Timestamp,PosIsDeg,ForceIs,AccX,AccY,AccZ,GyroX,GyroY,GyroZ
2024-12-16 10:39:07.561,0.45,544.0,0.24,0.96,0.05,0.07,0.18,0.56
2024-12-16 10:39:07.619,-3.82,524.0,0.17,0.93,0.07,-0.17,-5.98,-6.64
2024-12-16 10:39:07.777,-0.22,539.0,0.25,0.97,0.05,-0.29,-7.75,-8.05
2024-12-16 10:39:07.889,12.15,524.0,0.19,0.99,0.06,-1.45,10.99,-0.6
2024-12-16 10:39:07.949,13.72,531.0,0.22,0.97,0.07,-0.35,4.64,4.1
2024-12-16 10:39:08.17,23.85,513.0,0.2,0.96,0.07,1.84,4.7,5.14
2024-12-16 10:39:08.64,27.22,535.0,0.19,0.96,0.09,0.87,1.83,2.33
2024-12-16 10:39:08.116,27.9,518.0,0.17,0.96,0.06,1.48,-0.12,-1.94
2024-12-16 10:39:08.172,30.82,521.0,0.2,1.0,0.06,0.69,3.11,-0.72
2024-12-16 10:39:08.225,34.88,519.0,0.19,1.0,0.06,-1.57,5.98,3.85
2024-12-16 10:39:08.290,33.08,520.0,0.16,0.95,0.07,-2.31,4.7,4.34
2024-12-16 10:39:08.347,37.8,522.0,0.18,0.96,0.06,-2.73,7.69,7.46
2024-12-16 10:39:08.397,44.32,526.0,0.19,0.95,0.08,-2.12,7.57,8.43
2024-12-16 10:39:08.480,46.8,522.0,0.23,0.97,0.09,-2.18,8.49,8.62
2024-12-16 10:39:08.536,50.4,528.0,0.25,0.95,0.09,-1.21,5.98,9.71
2024-12-16 10:39:08.586,54.45,538.0,0.26,0.96,0.09,-0.96,6.35,10.14
2024-12-16 10:39:08.645,59.17,529.0,0.24,0.93,0.1,0.2,5.56,10.32
2024-12-16 10:39:08.705,60.3,504.0,0.29,0.99,0.11,-1.63,5.07,10.45
2024-12-16 10:39:08.766,66.82,511.0,0.27,0.95,0.1,-1.88,0.49,10.57
2024-12-16 10:39:08.829,67.72,539.0,0.3,0.96,0.12,-4.44,0.25,11.12
2024-12-16 10:39:08.895,73.8,503.0,0.3,0.92,0.1,-3.16,-1.89,10.87
2024-12-16 10:39:08.948,75.82,509.0,0.31,0.98,0.11,-4.32,-0.79,10.75
2024-12-16 10:39:09.0,80.78,494.0,0.3,0.96,0.1,-3.59,-0.43,12.64
2024-12-16 10:39:09.67,83.92,500.0,0.33,0.89,0.11,-1.82,-2.38,8.07
2024-12-16 10:39:10.442,89.1,525.0,0.35,0.92,0.11,-0.78,-1.16,1.96
2024-12-16 10:39:10.605,90.0,502.0,0.36,0.92,0.11,-0.29,0.55,0.56
2024-12-16 10:39:10.758,90.9,507.0,0.36,0.92,0.12,-0.66,0.61,0.99
2024-12-16 10:39:11.553,84.38,525.0,0.36,0.92,0.12,-0.47,-0.49,0.68
2024-12-16 10:39:12.566,84.6,480.0,0.34,0.93,0.11,1.11,1.16,-5.12
2024-12-16 10:39:12.617,83.03,514.0,0.37,1.03,0.15,-0.05,-2.07,-2.98
2024-12-16 10:39:12.677,80.1,579.0,0.3,0.96,0.03,-6.03,5.74,22.47
2024-12-16 10:39:12.797,75.38,578.0,0.34,0.72,0.1,-3.83,-2.93,20.88
2024-12-16 10:39:12.847,68.62,561.0,0.33,0.95,0.18,18.39,15.81,-26.6
2024-12-16 10:39:12.905,60.97,544.0,0.31,0.97,0.11,22.54,13.92,-32.89
2024-12-16 10:39:12.968,61.2,537.0,0.24,0.95,0.04,5.63,-1.04,-25.99
2024-12-16 10:39:13.95,52.88,516.0,0.28,0.98,0.08,-4.08,-3.84,-15.31
2024-12-16 10:39:13.156,49.72,511.0,0.26,0.98,0.08,7.22,3.11,-16.23
2024-12-16 10:39:13.202,41.4,503.0,0.24,0.99,0.07,6.12,0.61,-15.37
2024-12-16 10:39:13.263,38.47,510.0,0.21,0.99,0.06,2.39,0.43,-8.96
2024-12-16 10:39:13.323,35.55,509.0,0.17,0.97,0.09,0.5,4.58,-4.81
2024-12-16 10:39:13.403,33.75,509.0,0.23,0.99,0.09,0.01,3.79,-4.69
2024-12-16 10:39:13.449,29.7,504.0,0.19,0.97,0.08,0.26,-5.55,-3.9
2024-12-16 10:39:13.512,27.45,514.0,0.17,0.98,0.06,1.36,-4.82,-4.02
2024-12-16 10:39:13.570,20.02,496.0,0.18,1.0,0.06,-0.47,-1.59,-3.29
2024-12-16 10:39:13.628,18.45,539.0,0.14,0.97,0.05,-0.84,-0.55,-3.71
2024-12-16 10:39:13.696,14.85,530.0,0.12,0.97,0.06,0.5,5.37,-3.96
2024-12-16 10:39:13.755,12.15,525.0,0.13,0.98,0.05,3.43,11.05,-3.47
2024-12-16 10:39:13.809,7.2,539.0,0.14,1.01,0.06,3.25,15.99,1.35
2024-12-16 10:39:13.872,6.3,532.0,0.14,1.0,0.06,2.94,12.76,-0.78
2024-12-16 10:39:15.141,-2.7,537.0,0.16,0.97,0.06,0.75,-2.32,3.06
2024-12-16 10:39:15.202,-0.22,528.0,0.16,0.97,0.07,-0.11,-2.2,4.4
2024-12-16 10:39:15.273,-1.35,550.0,0.16,0.97,0.07,-0.96,-1.28,5.08
2024-12-16 10:39:15.496,2.92,537.0,0.17,0.96,0.06,-0.9,0.0,0.13
2024-12-16 10:39:15.732,0.22,525.0,0.18,0.99,0.07,-0.9,-1.46,0.01
2024-12-16 10:39:16.658,0.9,541.0,0.15,0.98,0.07,-0.17,-1.46,0.62
2024-12-16 10:39:16.718,-1.12,547.0,0.16,0.98,0.07,0.07,0.12,0.5
2024-12-16 10:39:16.780,-2.47,540.0,0.16,0.97,0.07,0.2,-1.89,0.68
2024-12-16 10:39:16.842,0.45,548.0,0.15,0.98,0.07,-0.66,-3.23,1.29
2024-12-16 10:39:16.905,-1.57,543.0,0.15,0.98,0.07,-0.72,-0.24,1.9
2024-12-16 10:39:16.961,0.45,530.0,0.16,0.98,0.07,-0.6,0.06,1.78
2024-12-16 10:39:17.20,0.9,563.0,0.16,0.98,0.07,-0.54,-1.16,1.23
2024-12-16 10:39:17.77,2.02,549.0,0.16,0.98,0.07,-0.54,-0.97,1.05
2024-12-16 10:39:17.139,-5.62,550.0,0.16,0.97,0.07,-0.41,-0.67,1.23
2024-12-16 10:39:17.193,-4.05,530.0,0.16,0.98,0.07,-0.66,-1.1,1.6
2024-12-16 10:39:17.253,-2.02,531.0,0.16,0.98,0.07,-0.6,-0.97,1.54
2024-12-16 10:39:17.266,-2.7,533.0,0.16,0.98,0.07,-0.54,-0.79,1.47
2024-12-16 10:39:17.319,-3.38,540.0,0.16,0.98,0.07,-0.35,-0.55,1.47
2024-12-16 10:39:18.287,0.45,533.0,0.16,0.98,0.07,-0.6,-0.3,0.74
2024-12-16 10:39:18.348,-3.38,525.0,0.13,0.96,0.08,-0.54,-6.1,-7.19
2024-12-16 10:39:18.391,3.6,515.0,0.14,0.97,0.06,0.07,-7.99,-9.76
2024-12-16 10:39:18.438,0.9,508.0,0.16,1.0,0.04,0.62,-1.46,-5.67
2024-12-16 10:39:18.497,4.72,511.0,0.14,0.98,0.05,-0.11,-2.38,-11.71
2024-12-16 10:39:18.550,9.0,539.0,0.14,1.0,0.07,-2.92,7.69,-4.14
2024-12-16 10:39:18.629,12.6,522.0,0.15,1.01,0.05,-1.76,11.78,6.3
2024-12-16 10:39:18.726,15.75,562.0,0.18,0.99,0.06,0.26,10.13,14.54
2024-12-16 10:39:18.782,20.7,532.0,0.18,0.98,0.11,1.48,3.91,17.53
2024-12-16 10:39:18.839,27.45,538.0,0.18,0.96,0.08,1.6,3.79,15.63
2024-12-16 10:39:18.890,30.38,541.0,0.2,0.96,0.08,0.87,1.28,12.34
2024-12-16 10:39:18.932,36.22,529.0,0.2,0.97,0.08,0.75,-0.24,10.75
2024-12-16 10:39:18.980,36.45,533.0,0.21,0.97,0.09,-0.23,1.1,9.47
2024-12-16 10:39:19.26,36.0,513.0,0.22,0.97,0.09,-1.7,1.65,7.09
2024-12-16 10:39:19.83,38.92,536.0,0.21,0.96,0.09,-2.43,1.04,6.97
2024-12-16 10:39:19.135,38.7,532.0,0.21,0.94,0.08,-2.43,-2.07,5.08
2024-12-16 10:39:19.216,45.67,544.0,0.24,0.98,0.09,-2.73,-0.36,5.69
2024-12-16 10:39:19.260,49.27,533.0,0.24,0.95,0.08,-2.18,0.55,8.37
2024-12-16 10:39:19.310,54.0,542.0,0.26,0.97,0.08,-2.73,0.06,9.9
2024-12-16 10:39:19.358,60.07,530.0,0.27,0.97,0.09,-2.98,0.43,14.47
2024-12-16 10:39:19.416,57.82,528.0,0.3,0.95,0.1,-2.49,0.98,14.05
2024-12-16 10:39:19.463,65.25,526.0,0.27,0.94,0.11,-1.57,1.28,14.47
2024-12-16 10:39:19.533,67.95,521.0,0.3,0.94,0.11,-1.27,0.86,12.28
2024-12-16 10:39:19.590,70.2,515.0,0.31,0.94,0.12,-2.37,1.59,11.3
2024-12-16 10:39:19.635,68.85,498.0,0.32,0.88,0.11,-1.33,-2.56,6.54
2024-12-16 10:39:19.725,78.97,522.0,0.33,0.95,0.14,-3.22,-1.1,8.74
2024-12-16 10:39:19.817,78.75,514.0,0.33,0.88,0.11,-5.48,-4.58,6.85
2024-12-16 10:39:21.71,85.05,513.0,0.36,0.91,0.14,-0.41,-2.07,0.19
2024-12-16 10:39:21.127,85.95,515.0,0.36,0.92,0.14,-0.54,-1.4,0.74
2024-12-16 10:39:21.183,91.12,522.0,0.36,0.92,0.14,0.07,-0.91,0.68
2024-12-16 10:39:21.318,87.07,504.0,0.36,0.92,0.14,0.5,-1.83,0.13
2024-12-16 10:39:21.691,86.17,514.0,0.35,0.92,0.14,0.07,-0.73,-0.05
2024-12-16 10:39:21.740,83.47,497.0,0.35,0.91,0.13,0.32,-0.85,-1.03
2024-12-16 10:39:21.785,90.9,516.0,0.35,0.92,0.13,0.38,-0.43,-1.09
2024-12-16 10:39:22.102,88.2,506.0,0.35,0.93,0.13,-0.17,-0.06,-0.66
2024-12-16 10:39:22.200,90.0,513.0,0.35,0.92,0.14,-1.27,-0.49,2.33
2024-12-16 10:39:22.258,85.5,512.0,0.37,0.92,0.12,-1.21,-2.62,1.78
2024-12-16 10:39:22.326,86.62,490.0,0.35,0.91,0.15,-1.08,-2.32,1.05
2024-12-16 10:39:22.383,85.05,495.0,0.35,0.92,0.13,-0.84,0.31,2.7
2024-12-16 10:39:22.432,85.72,507.0,0.36,0.92,0.12,-0.96,-1.46,3.06
2024-12-16 10:39:22.494,84.82,500.0,0.34,0.91,0.13,-0.96,-2.99,1.6
2024-12-16 10:39:22.716,84.6,493.0,0.35,0.92,0.14,-1.7,0.18,-1.15
2024-12-16 10:39:22.818,88.2,499.0,0.36,0.92,0.15,-1.21,0.06,0.68
2024-12-16 10:39:23.967,87.97,493.0,0.34,0.92,0.15,0.38,-1.16,-0.97
2024-12-16 10:39:24.24,85.28,569.0,0.35,1.08,0.12,-4.32,-1.16,7.7
2024-12-16 10:39:24.73,80.32,609.0,0.33,0.9,0.09,-4.44,4.88,21.43
2024-12-16 10:39:24.122,72.22,583.0,0.39,0.68,0.13,-4.38,-7.2,14.9
2024-12-16 10:39:24.185,67.72,573.0,0.37,0.87,0.23,5.81,4.52,-1.52
2024-12-16 10:39:24.251,63.67,558.0,0.37,0.93,0.21,16.43,11.05,-27.33
2024-12-16 10:39:24.307,62.1,539.0,0.29,0.96,0.12,13.87,-2.93,-32.89
2024-12-16 10:39:24.360,59.4,495.0,0.26,0.93,0.11,3.37,-12.39,-30.32
2024-12-16 10:39:24.414,58.95,542.0,0.24,0.96,0.11,-3.47,-13.3,-27.94
2024-12-16 10:39:24.467,56.7,511.0,0.27,1.0,0.13,-3.77,-10.01,-22.02
2024-12-16 10:39:24.540,49.05,510.0,0.23,0.95,0.12,0.2,-7.44,-25.01
2024-12-16 10:39:24.585,43.42,520.0,0.21,0.99,0.09,3.19,-2.81,-19.7
2024-12-16 10:39:24.635,44.55,505.0,0.18,0.99,0.08,4.9,1.59,-14.33
2024-12-16 10:39:24.688,39.38,516.0,0.16,0.99,0.09,2.94,3.97,-6.09
2024-12-16 10:39:24.742,33.08,498.0,0.15,0.99,0.1,2.88,5.25,-2.92
2024-12-16 10:39:24.835,32.4,499.0,0.2,1.01,0.11,2.58,6.65,-1.27
2024-12-16 10:39:24.886,31.72,521.0,0.17,0.97,0.13,1.97,6.29,-1.94
2024-12-16 10:39:24.930,21.82,514.0,0.15,0.98,0.09,1.54,2.99,-2.43
2024-12-16 10:39:24.975,23.4,530.0,0.1,0.97,0.11,1.17,4.15,3.79
2024-12-16 10:39:25.33,21.82,527.0,0.15,0.98,0.09,1.36,0.49,2.02
2024-12-16 10:39:25.89,14.17,528.0,0.12,0.98,0.09,2.58,5.13,2.15
2024-12-16 10:39:25.147,8.55,544.0,0.14,0.98,0.07,2.88,4.58,-1.82
2024-12-16 10:39:25.210,9.68,562.0,0.16,0.98,0.09,2.33,6.35,-2.61
2024-12-16 10:39:25.257,9.68,542.0,0.1,0.96,0.09,2.21,2.63,-4.38
2024-12-16 10:39:25.303,-0.9,548.0,0.13,0.97,0.07,1.84,1.04,-5.73
2024-12-16 10:39:26.586,-2.25,550.0,0.16,0.98,0.05,-2.06,-2.74,0.99
2024-12-16 10:39:26.649,-1.8,558.0,0.17,0.98,0.05,-2.0,-3.36,0.74
2024-12-16 10:39:26.705,0.67,552.0,0.16,0.98,0.05,-1.88,-5.92,0.38
2024-12-16 10:39:26.769,1.57,536.0,0.15,0.97,0.04,-2.31,-6.65,0.38
2024-12-16 10:39:26.829,-0.22,551.0,0.16,0.98,0.05,-2.06,-5.49,0.38
2024-12-16 10:39:26.911,-0.67,535.0,0.15,0.98,0.05,-1.45,-4.39,0.62
2024-12-16 10:39:27.48,-0.9,544.0,0.15,0.98,0.05,-0.23,1.41,1.29
2024-12-16 10:39:27.164,-0.22,540.0,0.15,0.98,0.05,-0.11,0.25,1.6
2024-12-16 10:39:27.251,-2.7,551.0,0.15,0.98,0.05,0.5,2.26,1.66
2024-12-16 10:39:27.359,-1.8,549.0,0.16,0.97,0.05,0.26,0.49,1.05
2024-12-16 10:39:27.420,2.92,547.0,0.16,0.98,0.05,0.2,2.93,1.66
2024-12-16 10:39:27.551,0.22,564.0,0.17,0.98,0.06,1.54,11.11,4.53
2024-12-16 10:39:27.945,3.6,577.0,0.17,0.97,0.07,-1.88,-2.74,2.94
2024-12-16 10:39:28.69,2.25,562.0,0.17,0.98,0.05,-1.02,-0.73,1.9
2024-12-16 10:39:28.124,0.45,567.0,0.18,0.99,0.06,-0.11,0.8,2.21
2024-12-16 10:39:28.192,0.0,546.0,0.18,1.0,0.06,-0.11,0.8,2.21
2024-12-16 10:39:29.119,-1.12,574.0,0.19,0.97,0.05,-0.11,-0.3,1.96
2024-12-16 10:39:29.176,0.45,559.0,0.2,0.97,0.06,0.2,1.16,2.88
2024-12-16 10:39:29.226,-1.57,578.0,0.2,0.97,0.06,0.62,2.08,3.24
2024-12-16 10:39:29.271,-2.47,546.0,0.09,0.93,0.07,1.3,-2.87,-0.54
2024-12-16 10:39:29.317,1.12,533.0,0.17,0.96,0.06,0.69,-9.46,-13.48
2024-12-16 10:39:29.362,3.15,538.0,0.22,1.01,0.06,2.03,3.11,-7.92
2024-12-16 10:39:29.408,10.35,524.0,0.09,0.94,0.1,-1.57,1.22,-9.45
2024-12-16 10:39:29.456,12.15,525.0,0.2,0.98,0.06,-3.95,-4.88,-5.48
2024-12-16 10:39:29.503,14.62,544.0,0.17,0.99,0.06,-3.28,-3.42,-3.16
2024-12-16 10:39:29.550,18.9,547.0,0.19,1.0,0.06,-2.98,0.43,1.54
2024-12-16 10:39:29.595,20.25,548.0,0.18,0.98,0.06,-2.24,2.81,5.81
2024-12-16 10:39:29.642,19.12,541.0,0.17,0.96,0.07,-2.31,1.65,7.94
2024-12-16 10:39:29.690,29.47,565.0,0.19,0.97,0.07,-1.94,1.1,9.71
2024-12-16 10:39:29.735,26.55,550.0,0.2,0.98,0.05,-0.6,3.18,10.26
2024-12-16 10:39:29.782,33.08,556.0,0.21,0.98,0.09,-0.35,0.25,10.69
2024-12-16 10:39:29.866,34.65,579.0,0.21,0.99,0.08,1.3,3.72,11.06
2024-12-16 10:39:29.938,36.9,554.0,0.21,0.96,0.08,0.44,6.47,12.52
2024-12-16 10:39:29.984,45.9,545.0,0.24,0.97,0.07,-0.66,4.09,13.74
2024-12-16 10:39:30.38,41.17,574.0,0.25,0.95,0.08,-2.37,1.95,15.02
2024-12-16 10:39:30.97,49.95,544.0,0.28,0.95,0.08,-4.44,1.89,15.21
2024-12-16 10:39:30.152,52.88,555.0,0.29,0.94,0.09,-4.75,0.43,14.17
2024-12-16 10:39:30.234,56.47,567.0,0.3,0.95,0.09,-5.11,0.67,13.01
2024-12-16 10:39:30.293,59.62,542.0,0.31,0.95,0.11,-7.55,0.43,12.34
2024-12-16 10:39:30.344,65.03,543.0,0.33,0.93,0.11,-7.49,-2.13,12.28
2024-12-16 10:39:30.393,69.3,535.0,0.35,0.93,0.12,-7.86,-5.06,12.09
2024-12-16 10:39:30.443,71.32,548.0,0.34,0.93,0.12,-7.55,-4.76,13.07
2024-12-16 10:39:30.506,73.8,537.0,0.36,0.93,0.12,-7.74,-4.39,13.07
2024-12-16 10:39:30.556,78.53,538.0,0.37,0.92,0.13,-7.62,-7.57,11.06
2024-12-16 10:39:30.615,77.17,510.0,0.37,0.91,0.14,-7.68,-7.81,11.12
2024-12-16 10:39:30.658,86.4,513.0,0.37,0.87,0.14,-7.43,-7.44,8.68
2024-12-16 10:39:31.956,92.7,518.0,0.37,0.91,0.14,0.38,0.0,-0.3
2024-12-16 10:39:33.54,88.2,503.0,0.37,0.91,0.16,-0.66,0.18,0.74
2024-12-16 10:39:33.745,89.1,485.0,0.35,0.93,0.14,-0.54,-0.43,-1.09
2024-12-16 10:39:33.801,85.95,547.0,0.36,1.08,0.15,-3.71,-2.13,8.86
2024-12-16 10:39:33.850,81.22,622.0,0.32,1.06,0.11,-5.11,-1.4,22.84
2024-12-16 10:39:33.929,78.07,672.0,0.41,0.74,0.1,-5.72,-10.56,19.54
2024-12-16 10:39:33.987,69.53,592.0,0.37,0.81,0.21,6.36,1.41,2.15
2024-12-16 10:39:34.60,71.32,563.0,0.37,0.89,0.2,24.0,22.28,-26.24
2024-12-16 10:39:34.110,66.38,533.0,0.26,0.98,0.1,22.47,-0.18,-37.04
2024-12-16 10:39:34.158,62.1,517.0,0.2,0.96,0.09,9.05,-2.56,-34.35
2024-12-16 10:39:34.203,56.92,518.0,0.22,0.97,0.05,-2.61,-2.2,-24.95
2024-12-16 10:39:34.250,52.42,521.0,0.28,0.98,0.14,-3.34,1.28,-24.1
2024-12-16 10:39:34.321,49.5,514.0,0.24,0.98,0.11,1.42,2.69,-23.92
2024-12-16 10:39:34.374,47.92,545.0,0.2,0.99,0.05,6.85,6.53,-19.89
2024-12-16 10:39:34.432,42.52,513.0,0.17,0.99,0.06,5.75,7.45,-16.47
2024-12-16 10:39:34.483,38.25,506.0,0.15,1.03,0.08,1.84,7.57,-8.96
2024-12-16 10:39:34.529,36.67,492.0,0.18,1.0,0.09,1.3,7.94,-7.8
2024-12-16 10:39:34.578,33.52,485.0,0.16,0.98,0.1,2.21,8.24,-6.52
2024-12-16 10:39:34.623,32.17,484.0,0.16,0.99,0.07,4.71,4.09,-7.68
2024-12-16 10:39:34.670,29.25,494.0,0.11,0.98,0.08,1.91,3.42,-4.45
2024-12-16 10:39:34.715,21.6,502.0,0.15,1.0,0.07,0.99,3.72,-1.94
2024-12-16 10:39:34.761,22.5,486.0,0.1,0.97,0.08,0.75,3.36,-3.1
2024-12-16 10:39:34.834,21.38,512.0,0.11,0.98,0.07,0.2,3.54,-6.95
2024-12-16 10:39:34.889,13.72,498.0,0.08,0.98,0.05,1.97,6.29,-5.12
2024-12-16 10:39:34.935,17.77,510.0,0.1,0.99,0.05,0.81,7.88,-4.51
2024-12-16 10:39:34.980,15.3,518.0,0.08,1.0,0.06,0.93,9.22,-3.47
2024-12-16 10:39:35.32,11.02,523.0,0.08,1.0,0.06,1.78,11.29,-2.25
2024-12-16 10:39:35.96,7.2,568.0,0.08,0.99,0.05,3.31,13.73,-1.15
2024-12-16 10:39:35.151,2.92,535.0,0.08,0.99,0.06,3.37,16.3,0.62
2024-12-16 10:39:36.436,-1.35,565.0,0.12,0.99,0.06,-0.66,-2.32,3.24
2024-12-16 10:39:36.628,0.22,542.0,0.13,0.98,0.07,0.07,0.86,4.34
