Timestamp,PosIsDeg,ForceIs,AccX,AccY,AccZ,GyroX,GyroY,GyroZ
2024-12-06 12:26:16.525,-1.35,449.0,0.24,0.96,-0.01,0.21,0.68,0.21
2024-12-06 12:26:16.537,0.45,465.0,0.24,0.96,-0.01,0.15,-0.23,0.09
2024-12-06 12:26:16.558,0.22,451.0,0.24,0.96,-0.01,0.03,-0.35,0.09
2024-12-06 12:26:16.589,-3.38,464.0,0.24,0.96,-0.01,0.09,0.07,0.03
2024-12-06 12:26:16.613,3.38,453.0,0.24,0.96,-0.01,0.03,0.5,0.09
2024-12-06 12:26:16.650,1.35,467.0,0.24,0.96,-0.01,-0.1,0.13,0.21
2024-12-06 12:26:16.690,-2.02,454.0,0.25,0.96,-0.01,-0.16,-0.23,-0.34
2024-12-06 12:26:16.695,-1.12,458.0,0.24,0.96,-0.01,0.03,-0.42,0.03
2024-12-06 12:26:16.723,-2.25,450.0,0.21,0.95,0.0,-0.46,-2.67,-2.23
2024-12-06 12:26:16.750,-0.45,463.0,0.16,0.92,-0.02,0.58,-7.86,-8.76
2024-12-06 12:26:16.795,4.5,467.0,0.23,0.94,-0.01,0.94,-8.9,-12.91
2024-12-06 12:26:16.807,5.4,458.0,0.25,0.99,-0.03,1.55,-5.85,-9.74
2024-12-06 12:26:16.835,5.85,459.0,0.2,0.98,-0.01,1.67,-1.64,-7.6
2024-12-06 12:26:16.865,11.7,469.0,0.21,0.97,0.0,-1.13,0.62,-5.47
2024-12-06 12:26:16.910,11.92,456.0,0.18,0.95,-0.01,-2.78,4.16,-6.38
2024-12-06 12:26:16.922,8.55,452.0,0.21,0.98,-0.01,-2.05,7.03,-4.25
2024-12-06 12:26:16.944,11.92,472.0,0.21,0.99,-0.04,-1.26,8.25,-3.39
2024-12-06 12:26:16.977,8.55,470.0,0.21,0.98,-0.04,-0.28,8.01,-2.23
2024-12-06 12:26:16.999,14.85,482.0,0.23,0.99,-0.04,0.94,7.82,-0.04
2024-12-06 12:26:17.27,10.8,477.0,0.22,0.98,-0.02,2.16,6.42,0.88
2024-12-06 12:26:17.78,12.82,457.0,0.24,0.98,-0.02,2.77,6.3,3.26
2024-12-06 12:26:17.89,17.55,479.0,0.21,0.97,-0.02,3.75,6.97,5.03
2024-12-06 12:26:17.109,17.1,479.0,0.22,0.97,-0.01,3.81,6.3,4.73
2024-12-06 12:26:17.137,14.62,458.0,0.21,0.96,-0.01,3.51,5.69,5.09
2024-12-06 12:26:17.165,18.23,488.0,0.2,0.95,0.0,2.83,4.53,3.2
2024-12-06 12:26:17.194,22.05,458.0,0.21,0.96,0.0,2.04,4.53,1.8
2024-12-06 12:26:17.220,17.32,465.0,0.2,0.96,-0.01,1.74,5.69,0.27
2024-12-06 12:26:17.305,20.48,459.0,0.21,0.97,-0.01,0.27,4.34,-0.52
2024-12-06 12:26:17.309,25.65,479.0,0.2,0.96,-0.02,-0.22,3.43,-1.68
2024-12-06 12:26:17.331,22.72,479.0,0.22,0.97,-0.01,-0.34,3.06,-2.23
2024-12-06 12:26:17.358,26.55,479.0,0.21,0.97,-0.02,-0.03,3.06,-2.72
2024-12-06 12:26:17.385,27.67,471.0,0.21,0.96,-0.01,-0.22,2.7,-3.27
2024-12-06 12:26:17.430,29.25,470.0,0.2,0.96,-0.02,-0.16,3.25,-3.7
2024-12-06 12:26:17.468,27.0,471.0,0.21,0.98,-0.02,-0.1,5.14,-2.78
2024-12-06 12:26:17.580,32.85,474.0,0.23,0.98,-0.02,1.25,6.48,1.43
2024-12-06 12:26:17.607,33.3,469.0,0.21,0.97,-0.01,1.49,5.63,-14.32
2024-12-06 12:26:17.642,34.42,473.0,0.22,0.97,-0.0,1.25,4.28,0.7
2024-12-06 12:26:17.662,36.9,484.0,0.2,0.96,-0.01,1.0,4.1,1.19
2024-12-06 12:26:17.711,39.83,486.0,0.21,0.97,-0.0,0.33,3.98,0.39
2024-12-06 12:26:17.717,43.65,484.0,0.21,0.97,-0.01,0.09,3.86,1.43
2024-12-06 12:26:17.749,40.5,479.0,0.21,0.96,-0.0,0.03,2.94,0.7
2024-12-06 12:26:17.771,41.4,474.0,0.22,0.96,-0.01,0.03,1.66,0.58
2024-12-06 12:26:17.798,45.0,488.0,0.21,0.97,-0.01,-0.03,0.99,0.33
2024-12-06 12:26:17.826,41.17,473.0,0.21,0.98,-0.02,-0.16,0.87,0.64
2024-12-06 12:26:17.857,45.22,469.0,0.2,0.96,-0.01,0.45,1.29,-0.04
2024-12-06 12:26:17.882,43.65,477.0,0.22,0.98,-0.01,0.51,2.15,0.76
2024-12-06 12:26:17.926,47.02,491.0,0.21,0.98,-0.02,0.51,2.27,1.67
2024-12-06 12:26:17.937,44.1,473.0,0.22,0.98,-0.02,0.27,1.6,2.53
2024-12-06 12:26:17.966,47.47,481.0,0.21,0.97,-0.02,0.39,0.68,2.59
2024-12-06 12:26:17.994,54.45,488.0,0.2,0.96,-0.02,0.27,0.74,1.43
2024-12-06 12:26:18.25,53.1,482.0,0.22,0.97,-0.01,0.33,1.05,2.35
2024-12-06 12:26:18.49,48.82,482.0,0.22,0.97,-0.01,0.51,1.6,2.53
2024-12-06 12:26:18.76,56.02,476.0,0.23,0.97,-0.01,0.64,1.72,3.63
2024-12-06 12:26:18.105,54.9,496.0,0.21,0.95,-0.02,1.06,1.54,3.69
2024-12-06 12:26:18.152,55.57,548.0,0.23,0.96,-0.01,1.25,1.29,2.65
2024-12-06 12:26:18.158,57.15,487.0,0.22,0.98,-0.01,0.94,1.11,3.63
2024-12-06 12:26:18.188,57.82,485.0,0.22,0.97,-0.01,0.33,1.05,3.38
2024-12-06 12:26:18.213,55.8,492.0,0.23,0.96,-0.01,0.21,0.93,3.81
2024-12-06 12:26:18.242,62.77,483.0,0.22,0.95,-0.02,0.27,1.11,3.69
2024-12-06 12:26:18.269,59.62,512.0,0.24,0.96,-0.01,0.39,0.8,3.38
2024-12-06 12:26:18.298,58.5,487.0,0.23,0.96,-0.02,0.88,0.87,2.96
2024-12-06 12:26:18.324,60.52,479.0,0.24,0.96,-0.01,1.0,0.38,2.16
2024-12-06 12:26:18.378,66.6,489.0,0.24,0.97,-0.01,0.82,0.5,2.59
2024-12-06 12:26:18.382,65.03,500.0,0.22,0.96,-0.02,0.7,0.8,2.28
2024-12-06 12:26:18.408,69.3,489.0,0.24,0.95,-0.02,0.45,0.8,2.16
2024-12-06 12:26:18.435,66.15,492.0,0.24,0.96,-0.02,0.21,0.56,2.65
2024-12-06 12:26:18.462,65.03,485.0,0.24,0.95,-0.02,0.7,0.62,1.73
2024-12-06 12:26:18.490,69.07,489.0,0.24,0.97,-0.02,1.37,0.38,1.92
2024-12-06 12:26:18.521,69.53,500.0,0.24,0.97,-0.02,1.13,0.07,1.8
2024-12-06 12:26:18.637,67.95,492.0,0.24,0.96,-0.02,0.39,-1.15,1.92
2024-12-06 12:26:18.644,70.42,516.0,0.24,0.96,-0.02,-0.34,-1.58,1.67
2024-12-06 12:26:18.654,71.1,502.0,0.24,0.95,-0.02,-0.52,-2.31,1.49
2024-12-06 12:26:18.682,72.22,497.0,0.24,0.95,-0.02,-0.64,-2.74,0.88
2024-12-06 12:26:18.710,73.57,500.0,0.25,0.95,-0.01,-0.64,-2.61,0.7
2024-12-06 12:26:18.772,79.42,507.0,0.25,0.98,-0.01,-0.83,-2.8,1.12
2024-12-06 12:26:18.775,77.62,514.0,0.24,0.96,-0.03,-0.83,-2.61,0.64
2024-12-06 12:26:18.793,74.03,504.0,0.25,0.95,-0.01,-0.22,-3.28,0.76
2024-12-06 12:26:18.824,80.1,515.0,0.24,0.95,-0.03,-0.28,-3.1,0.45
2024-12-06 12:26:18.849,80.1,513.0,0.24,0.96,-0.01,-0.52,-3.41,0.09
2024-12-06 12:26:18.875,79.2,522.0,0.24,0.96,-0.02,-1.13,-2.86,0.03
2024-12-06 12:26:18.903,81.22,527.0,0.24,0.95,-0.02,-1.13,-2.74,-0.16
2024-12-06 12:26:18.930,85.28,520.0,0.25,0.96,-0.01,-0.58,-2.06,0.03
2024-12-06 12:26:18.939,85.28,527.0,0.25,0.96,-0.02,-0.64,-1.94,0.15
2024-12-06 12:26:18.946,85.5,520.0,0.24,0.97,-0.02,-0.64,-1.27,0.09
2024-12-06 12:26:18.967,84.15,577.0,0.23,0.98,-0.02,-0.64,-1.27,0.09
2024-12-06 12:26:18.978,84.6,535.0,0.25,0.96,-0.02,-0.4,-1.15,-0.16
2024-12-06 12:26:18.981,82.12,531.0,0.26,0.97,-0.03,-0.4,-1.51,0.33
2024-12-06 12:26:18.985,86.4,540.0,0.26,0.97,-0.03,-0.46,-2.37,0.58
2024-12-06 12:26:18.993,86.17,538.0,0.25,0.97,-0.02,-0.77,-2.92,0.45
2024-12-06 12:26:19.9,82.35,549.0,0.24,0.98,-0.02,-1.26,-3.47,0.51
2024-12-06 12:26:19.16,86.4,548.0,0.24,0.98,-0.02,-1.62,-3.47,0.76
2024-12-06 12:26:19.50,83.03,550.0,0.24,0.99,-0.03,-1.68,-4.08,1.25
2024-12-06 12:26:19.53,84.82,550.0,0.23,0.98,-0.03,-2.41,-4.63,2.96
2024-12-06 12:26:19.55,86.4,540.0,0.22,0.97,-0.03,-2.54,-4.32,3.26
2024-12-06 12:26:19.62,82.8,546.0,0.22,0.95,-0.03,-2.96,-4.08,3.44
2024-12-06 12:26:19.71,86.17,545.0,0.23,0.95,-0.03,-3.45,-3.89,3.69
2024-12-06 12:26:19.79,85.28,560.0,0.23,0.95,-0.03,-3.82,-3.96,4.12
2024-12-06 12:26:19.87,85.95,555.0,0.23,0.94,-0.03,-3.82,-3.96,4.36
2024-12-06 12:26:19.94,84.38,550.0,0.23,0.94,-0.03,-4.06,-3.96,4.36
2024-12-06 12:26:19.102,84.6,556.0,0.24,0.94,-0.03,-4.31,-3.96,4.42
2024-12-06 12:26:19.116,85.05,548.0,0.24,0.95,-0.03,-4.31,-4.08,4.48
2024-12-06 12:26:19.118,86.85,543.0,0.25,0.95,-0.03,-4.31,-4.26,4.48
2024-12-06 12:26:19.134,80.1,543.0,0.25,0.95,-0.03,-4.12,-4.26,4.42
2024-12-06 12:26:19.145,84.6,539.0,0.25,0.95,-0.02,-3.88,-4.08,4.3
2024-12-06 12:26:19.150,85.72,543.0,0.26,0.95,-0.01,-3.51,-3.77,4.05
2024-12-06 12:26:19.156,87.3,541.0,0.26,0.95,-0.01,-3.09,-3.22,3.87
2024-12-06 12:26:19.167,85.05,536.0,0.26,0.95,-0.0,-2.66,-2.43,3.63
2024-12-06 12:26:19.173,84.38,541.0,0.26,0.95,-0.0,-2.17,-1.58,3.26
2024-12-06 12:26:19.180,86.85,549.0,0.26,0.95,-0.0,-2.17,-1.58,3.26
2024-12-06 12:26:19.188,84.15,553.0,0.26,0.94,0.0,-1.62,-0.84,2.83
2024-12-06 12:26:19.195,79.65,531.0,0.27,0.94,0.0,-1.07,-0.05,2.35
2024-12-06 12:26:19.203,85.95,544.0,0.27,0.95,0.0,-0.52,0.68,1.67
2024-12-06 12:26:19.213,88.65,541.0,0.27,0.95,0.0,0.09,1.35,0.94
2024-12-06 12:26:19.222,85.95,540.0,0.27,0.95,0.0,0.64,2.03,0.15
2024-12-06 12:26:19.229,84.15,548.0,0.27,0.95,0.0,0.64,2.03,0.15
2024-12-06 12:26:19.239,85.05,537.0,0.27,0.95,-0.0,1.19,2.51,-0.65
2024-12-06 12:26:19.242,84.6,515.0,0.26,0.95,-0.0,1.74,2.88,-1.5
2024-12-06 12:26:19.250,86.4,552.0,0.26,0.95,-0.01,2.16,3.12,-2.29
2024-12-06 12:26:19.285,83.7,544.0,0.25,0.95,-0.01,2.77,3.67,-3.76
2024-12-06 12:26:19.290,82.57,578.0,0.24,0.95,-0.01,2.77,3.67,-3.94
2024-12-06 12:26:19.298,85.28,541.0,0.24,0.95,-0.01,2.65,3.8,-4.19
2024-12-06 12:26:19.305,83.03,536.0,0.24,0.96,-0.01,2.65,3.8,-4.19
2024-12-06 12:26:19.311,83.25,530.0,0.24,0.96,-0.01,2.47,3.86,-4.19
2024-12-06 12:26:19.319,86.17,522.0,0.24,0.96,-0.02,2.35,3.73,-4.06
2024-12-06 12:26:19.329,86.17,522.0,0.24,0.96,-0.02,2.16,3.49,-3.94
2024-12-06 12:26:19.335,83.92,526.0,0.24,0.96,-0.02,1.86,3.31,-3.64
2024-12-06 12:26:19.348,86.17,518.0,0.24,0.96,-0.02,1.55,2.88,-3.39
2024-12-06 12:26:19.351,86.62,529.0,0.24,0.96,-0.02,1.25,2.39,-2.96
2024-12-06 12:26:19.359,88.88,529.0,0.25,0.96,-0.02,1.25,2.39,-2.96
2024-12-06 12:26:19.367,84.82,524.0,0.25,0.96,-0.02,0.88,1.84,-2.66
2024-12-06 12:26:19.375,85.5,534.0,0.25,0.96,-0.02,0.51,1.23,-2.23
2024-12-06 12:26:19.383,86.17,525.0,0.25,0.96,-0.02,0.27,0.68,-1.87
2024-12-06 12:26:19.399,85.05,522.0,0.25,0.96,-0.02,0.03,0.26,-1.38
2024-12-06 12:26:19.402,84.38,546.0,0.25,0.97,-0.02,-0.1,-0.11,-1.01
2024-12-06 12:26:19.407,85.5,524.0,0.25,0.97,-0.02,-0.1,-0.11,-1.01
2024-12-06 12:26:19.417,82.35,521.0,0.25,0.97,-0.02,-0.28,-0.35,-0.58
2024-12-06 12:26:19.421,87.52,536.0,0.25,0.97,-0.02,-0.4,-0.48,-0.22
2024-12-06 12:26:19.437,83.47,543.0,0.25,0.97,-0.01,-0.58,-0.54,0.51
2024-12-06 12:26:19.445,87.52,527.0,0.25,0.97,-0.02,-0.58,-0.54,0.51
2024-12-06 12:26:19.452,86.17,523.0,0.25,0.97,-0.02,-0.64,-0.66,0.82
2024-12-06 12:26:19.460,85.72,526.0,0.26,0.97,-0.02,-0.71,-0.97,1.06
2024-12-06 12:26:19.468,85.28,521.0,0.26,0.96,-0.02,-0.71,-1.27,1.19
2024-12-06 12:26:19.478,88.88,521.0,0.26,0.96,-0.02,-0.64,-1.58,1.37
2024-12-06 12:26:19.539,80.32,499.0,0.26,0.96,-0.02,-0.58,-1.82,1.37
2024-12-06 12:26:19.545,85.72,521.0,0.24,0.96,-0.01,-0.1,-1.82,1.06
2024-12-06 12:26:19.546,86.4,535.0,0.24,0.96,-0.01,-0.03,-1.58,0.94
2024-12-06 12:26:19.552,85.95,524.0,0.24,0.96,-0.01,-0.1,-1.39,0.82
2024-12-06 12:26:19.559,86.62,534.0,0.24,0.96,-0.01,-0.1,-1.27,0.7
2024-12-06 12:26:19.566,87.75,519.0,0.24,0.96,-0.01,-0.1,-1.27,0.7
2024-12-06 12:26:19.576,81.67,528.0,0.24,0.96,-0.02,-0.1,-1.15,0.64
2024-12-06 12:26:19.673,86.62,521.0,0.25,0.96,-0.02,-0.34,-1.09,0.09
2024-12-06 12:26:19.678,86.17,523.0,0.25,0.96,-0.02,-0.28,-1.09,0.15
2024-12-06 12:26:19.686,84.15,516.0,0.25,0.96,-0.02,-0.22,-1.15,0.27
2024-12-06 12:26:19.695,87.3,537.0,0.25,0.96,-0.02,-0.16,-1.15,0.33
2024-12-06 12:26:19.704,81.9,529.0,0.25,0.96,-0.02,-0.16,-1.21,0.33
2024-12-06 12:26:19.738,87.97,522.0,0.25,0.96,-0.02,-0.16,-1.33,0.33
2024-12-06 12:26:19.740,81.45,552.0,0.24,0.96,-0.02,-0.1,-1.51,0.45
2024-12-06 12:26:19.748,87.97,523.0,0.24,0.97,-0.02,-0.1,-1.45,0.58
2024-12-06 12:26:19.758,87.3,518.0,0.24,0.97,-0.02,-0.1,-1.45,0.58
2024-12-06 12:26:19.768,82.57,520.0,0.24,0.96,-0.02,-0.16,-1.39,0.64
2024-12-06 12:26:19.771,84.15,525.0,0.24,0.96,-0.01,-0.22,-1.21,0.76
2024-12-06 12:26:19.779,86.4,525.0,0.24,0.96,-0.01,-0.22,-1.09,0.82
2024-12-06 12:26:19.789,85.5,512.0,0.24,0.96,-0.01,-0.28,-1.03,0.82
2024-12-06 12:26:19.799,83.03,519.0,0.24,0.96,-0.02,-0.34,-1.03,0.82
2024-12-06 12:26:19.803,85.5,522.0,0.24,0.96,-0.02,-0.34,-1.03,0.82
2024-12-06 12:26:19.810,87.07,520.0,0.24,0.96,-0.02,-0.34,-1.03,0.76
2024-12-06 12:26:19.842,88.2,519.0,0.25,0.96,-0.02,-0.34,-1.21,0.82
2024-12-06 12:26:19.846,85.72,521.0,0.25,0.96,-0.02,-0.28,-1.39,0.76
2024-12-06 12:26:19.848,84.6,521.0,0.25,0.96,-0.02,-0.16,-1.45,0.76
2024-12-06 12:26:19.859,86.62,535.0,0.24,0.96,-0.02,-0.1,-1.39,0.82
2024-12-06 12:26:19.864,85.5,517.0,0.24,0.96,-0.02,-0.03,-1.15,0.82
2024-12-06 12:26:19.877,87.52,516.0,0.24,0.96,-0.02,0.03,-1.03,0.94
2024-12-06 12:26:19.883,87.3,520.0,0.24,0.96,-0.01,0.09,-0.84,1.06
2024-12-06 12:26:19.899,83.03,557.0,0.24,0.96,-0.01,0.15,-0.72,1.06
2024-12-06 12:26:19.906,86.85,540.0,0.24,0.96,-0.02,0.09,-0.66,1.06
2024-12-06 12:26:19.912,87.75,522.0,0.24,0.96,-0.02,0.09,-0.6,1.0
2024-12-06 12:26:19.922,87.07,527.0,0.24,0.96,-0.02,0.03,-0.6,1.0
2024-12-06 12:26:19.927,86.85,540.0,0.24,0.96,-0.02,0.03,-0.66,0.88
2024-12-06 12:26:19.963,85.05,534.0,0.24,0.96,-0.02,0.27,-0.72,0.64
2024-12-06 12:26:19.965,84.15,555.0,0.24,0.96,-0.02,0.27,-0.66,0.58
2024-12-06 12:26:19.972,86.62,553.0,0.24,0.96,-0.02,0.27,-0.66,0.58
2024-12-06 12:26:19.980,83.03,541.0,0.24,0.96,-0.02,0.33,-0.6,0.64
2024-12-06 12:26:19.994,81.9,521.0,0.24,0.96,-0.02,0.33,-0.6,0.58
2024-12-06 12:26:20.0,87.52,520.0,0.24,0.96,-0.02,0.33,-0.48,0.64
2024-12-06 12:26:20.6,82.35,529.0,0.24,0.96,-0.02,0.33,-0.23,0.64
2024-12-06 12:26:20.12,85.5,524.0,0.24,0.96,-0.02,0.27,-0.05,0.58
2024-12-06 12:26:20.20,86.62,519.0,0.24,0.96,-0.02,0.27,-0.05,0.58
2024-12-06 12:26:20.28,81.0,527.0,0.25,0.96,-0.02,0.33,0.01,0.64
2024-12-06 12:26:20.37,81.9,541.0,0.25,0.96,-0.02,0.33,0.07,0.64
2024-12-06 12:26:20.78,89.32,526.0,0.25,0.96,-0.02,0.45,0.01,0.39
2024-12-06 12:26:20.81,85.5,527.0,0.25,0.96,-0.02,0.51,-0.05,0.27
2024-12-06 12:26:20.89,87.3,519.0,0.25,0.96,-0.02,0.58,-0.05,0.15
2024-12-06 12:26:20.98,81.0,524.0,0.24,0.96,-0.02,0.58,0.07,0.03
2024-12-06 12:26:20.106,87.75,523.0,0.24,0.96,-0.02,0.58,0.07,0.03
2024-12-06 12:26:20.113,85.95,553.0,0.24,0.96,-0.02,0.64,0.19,0.03
2024-12-06 12:26:20.120,86.85,520.0,0.24,0.96,-0.02,0.64,0.26,0.03
2024-12-06 12:26:20.132,85.5,516.0,0.24,0.96,-0.02,0.64,0.32,0.15
2024-12-06 12:26:20.137,83.25,541.0,0.24,0.96,-0.02,0.64,0.44,0.21
2024-12-06 12:26:20.143,87.3,518.0,0.24,0.96,-0.02,0.64,0.44,0.21
2024-12-06 12:26:20.152,87.52,519.0,0.24,0.96,-0.02,0.64,0.44,0.33
2024-12-06 12:26:20.160,87.75,536.0,0.25,0.96,-0.02,0.58,0.38,0.45
2024-12-06 12:26:20.166,87.52,509.0,0.25,0.96,-0.03,0.58,0.26,0.51
2024-12-06 12:26:20.211,81.9,541.0,0.25,0.96,-0.03,0.51,0.13,0.64
2024-12-06 12:26:20.214,87.3,511.0,0.25,0.96,-0.02,0.64,-0.11,0.88
2024-12-06 12:26:20.219,83.47,525.0,0.24,0.96,-0.02,0.64,0.07,0.94
2024-12-06 12:26:20.229,89.77,519.0,0.24,0.96,-0.02,0.64,0.07,0.94
2024-12-06 12:26:20.236,85.05,518.0,0.25,0.96,-0.02,0.7,0.19,0.94
2024-12-06 12:26:20.242,87.75,529.0,0.25,0.96,-0.02,0.7,0.32,1.0
2024-12-06 12:26:20.250,86.62,518.0,0.25,0.96,-0.02,0.76,0.5,1.0
2024-12-06 12:26:20.261,88.2,511.0,0.25,0.96,-0.02,0.76,0.62,1.06
2024-12-06 12:26:20.271,84.38,518.0,0.25,0.96,-0.02,0.76,0.62,1.12
2024-12-06 12:26:20.275,81.45,540.0,0.25,0.96,-0.02,0.82,0.62,1.12
2024-12-06 12:26:20.281,83.7,535.0,0.25,0.96,-0.02,0.88,0.56,1.12
2024-12-06 12:26:20.290,84.6,524.0,0.25,0.96,-0.02,0.94,0.44,1.06
2024-12-06 12:26:20.297,82.57,502.0,0.25,0.96,-0.02,1.0,0.32,1.12
2024-12-06 12:26:20.308,87.07,520.0,0.25,0.96,-0.02,1.0,0.13,1.12
2024-12-06 12:26:20.339,81.9,513.0,0.25,0.96,-0.02,0.82,-0.17,1.25
2024-12-06 12:26:20.344,83.25,507.0,0.25,0.96,-0.02,0.76,-0.23,1.31
2024-12-06 12:26:20.351,81.9,529.0,0.25,0.96,-0.02,0.76,-0.23,1.25
2024-12-06 12:26:20.358,83.7,532.0,0.25,0.96,-0.02,0.7,-0.11,1.25
2024-12-06 12:26:20.366,86.17,519.0,0.25,0.96,-0.02,0.64,-0.17,1.31
2024-12-06 12:26:20.376,85.5,510.0,0.25,0.96,-0.02,0.7,-0.17,1.37
2024-12-06 12:26:20.418,86.85,523.0,0.25,0.95,-0.02,0.33,-0.78,1.37
2024-12-06 12:26:20.423,83.7,526.0,0.25,0.95,-0.02,0.21,-0.9,1.25
2024-12-06 12:26:20.428,88.42,518.0,0.25,0.95,-0.02,0.15,-1.03,1.12
2024-12-06 12:26:20.435,83.47,514.0,0.25,0.95,-0.02,0.15,-1.03,1.0
2024-12-06 12:26:20.446,83.03,517.0,0.25,0.96,-0.02,0.09,-1.15,1.0
2024-12-06 12:26:20.461,87.3,511.0,0.25,0.96,-0.02,0.09,-0.97,0.88
2024-12-06 12:26:20.467,87.3,515.0,0.25,0.96,-0.02,0.15,-0.72,0.76
2024-12-06 12:26:20.474,84.38,528.0,0.25,0.96,-0.02,0.21,-0.48,0.64
2024-12-06 12:26:20.488,87.52,520.0,0.25,0.96,-0.02,0.21,-0.48,0.64
2024-12-06 12:26:20.493,81.67,508.0,0.25,0.96,-0.02,0.21,-0.35,0.58
2024-12-06 12:26:20.498,85.95,518.0,0.25,0.95,-0.02,0.27,-0.23,0.51
2024-12-06 12:26:20.510,81.22,533.0,0.25,0.95,-0.03,0.27,-0.23,0.45
2024-12-06 12:26:20.540,86.17,522.0,0.25,0.95,-0.03,0.21,-0.6,0.45
2024-12-06 12:26:20.545,85.5,514.0,0.25,0.95,-0.03,0.15,-0.72,0.51
2024-12-06 12:26:20.551,87.97,512.0,0.25,0.95,-0.03,0.15,-0.78,0.51
2024-12-06 12:26:20.561,86.4,525.0,0.25,0.95,-0.03,0.09,-0.6,0.51
2024-12-06 12:26:20.573,83.47,512.0,0.25,0.96,-0.02,0.09,-0.6,0.51
2024-12-06 12:26:20.575,85.95,514.0,0.25,0.96,-0.02,-0.03,-0.42,0.51
2024-12-06 12:26:20.583,85.05,528.0,0.25,0.96,-0.02,-0.03,-0.23,0.51
2024-12-06 12:26:20.592,83.25,545.0,0.25,0.96,-0.02,-0.03,-0.11,0.64
2024-12-06 12:26:20.601,82.12,515.0,0.25,0.96,-0.02,-0.1,-0.05,0.7
2024-12-06 12:26:20.726,87.97,521.0,0.26,0.96,-0.03,0.09,0.26,0.94
2024-12-06 12:26:20.735,87.3,509.0,0.26,0.95,-0.03,0.09,0.26,0.88
2024-12-06 12:26:20.741,85.95,524.0,0.26,0.95,-0.03,0.09,0.07,0.82
2024-12-06 12:26:20.749,82.35,519.0,0.26,0.95,-0.03,0.03,-0.11,0.7
2024-12-06 12:26:20.757,84.15,514.0,0.26,0.95,-0.03,-0.03,-0.23,0.58
2024-12-06 12:26:20.765,86.4,516.0,0.26,0.95,-0.03,-0.03,-0.23,0.58
2024-12-06 12:26:20.773,81.9,528.0,0.26,0.96,-0.03,-0.16,-0.42,0.51
2024-12-06 12:26:20.781,88.2,525.0,0.25,0.96,-0.03,-0.22,-0.6,0.39
2024-12-06 12:26:20.789,86.17,534.0,0.25,0.96,-0.02,-0.22,-0.66,0.33
2024-12-06 12:26:20.797,86.85,509.0,0.25,0.96,-0.02,-0.22,-0.66,0.27
2024-12-06 12:26:20.805,85.28,515.0,0.25,0.96,-0.02,-0.22,-0.54,0.27
2024-12-06 12:26:20.812,86.17,510.0,0.25,0.96,-0.02,-0.22,-0.54,0.27
2024-12-06 12:26:20.822,86.85,508.0,0.25,0.96,-0.02,-0.16,-0.48,0.27
2024-12-06 12:26:20.861,83.25,552.0,0.25,0.96,-0.02,-0.16,-0.35,0.21
2024-12-06 12:26:20.871,87.07,518.0,0.26,0.95,-0.03,-0.16,-0.35,0.21
2024-12-06 12:26:20.877,87.07,512.0,0.26,0.95,-0.03,-0.28,-0.48,0.21
2024-12-06 12:26:20.881,83.03,532.0,0.26,0.95,-0.03,-0.22,-0.54,0.27
2024-12-06 12:26:20.889,86.85,519.0,0.26,0.95,-0.03,-0.22,-0.6,0.27
2024-12-06 12:26:20.898,82.8,513.0,0.26,0.95,-0.03,-0.16,-0.6,0.27
2024-12-06 12:26:20.908,87.07,511.0,0.26,0.95,-0.03,-0.16,-0.66,0.33
2024-12-06 12:26:20.913,89.1,515.0,0.25,0.95,-0.03,-0.1,-0.54,0.33
2024-12-06 12:26:20.920,83.92,521.0,0.25,0.96,-0.02,-0.16,-0.35,0.39
2024-12-06 12:26:20.934,87.52,504.0,0.25,0.96,-0.02,-0.16,-0.23,0.45
2024-12-06 12:26:20.938,85.72,525.0,0.25,0.96,-0.02,-0.16,-0.23,0.45
2024-12-06 12:26:20.946,85.72,514.0,0.25,0.96,-0.02,-0.16,-0.11,0.45
2024-12-06 12:26:20.952,89.32,508.0,0.25,0.96,-0.02,-0.16,-0.05,0.39
2024-12-06 12:26:20.961,85.72,534.0,0.25,0.96,-0.02,-0.22,-0.05,0.33
2024-12-06 12:26:20.969,87.3,518.0,0.25,0.96,-0.03,-0.22,-0.05,0.21
2024-12-06 12:26:20.975,85.5,527.0,0.25,0.96,-0.03,-0.22,-0.11,0.09
2024-12-06 12:26:20.987,85.72,515.0,0.25,0.96,-0.03,-0.22,-0.11,0.09
2024-12-06 12:26:20.991,84.6,511.0,0.25,0.96,-0.03,-0.22,-0.23,-0.04
2024-12-06 12:26:20.998,88.88,513.0,0.25,0.96,-0.03,-0.22,-0.29,-0.1
2024-12-06 12:26:21.6,86.4,526.0,0.25,0.96,-0.03,-0.16,-0.35,-0.22
2024-12-06 12:26:21.14,86.85,505.0,0.25,0.96,-0.03,-0.22,-0.35,-0.16
2024-12-06 12:26:21.22,87.97,510.0,0.25,0.96,-0.03,-0.22,-0.42,-0.1
2024-12-06 12:26:21.30,84.38,516.0,0.25,0.96,-0.03,-0.22,-0.42,-0.1
2024-12-06 12:26:21.41,86.17,521.0,0.25,0.95,-0.03,-0.28,-0.29,0.03
2024-12-06 12:26:21.46,83.47,511.0,0.25,0.95,-0.03,-0.28,-0.11,0.09
2024-12-06 12:26:21.54,89.55,510.0,0.25,0.95,-0.03,-0.34,-0.05,0.21
2024-12-06 12:26:21.82,87.07,513.0,0.26,0.95,-0.03,-0.28,0.07,0.33
2024-12-06 12:26:21.84,83.92,505.0,0.26,0.95,-0.03,-0.28,0.13,0.45
2024-12-06 12:26:21.92,80.55,524.0,0.26,0.95,-0.03,-0.28,0.07,0.51
2024-12-06 12:26:21.122,85.72,519.0,0.26,0.95,-0.03,-0.22,-0.23,0.45
2024-12-06 12:26:21.126,82.57,536.0,0.26,0.96,-0.02,-0.22,-0.42,0.45
2024-12-06 12:26:21.133,80.32,527.0,0.26,0.96,-0.02,-0.22,-0.54,0.33
2024-12-06 12:26:21.139,85.95,536.0,0.25,0.96,-0.02,-0.22,-0.6,0.27
2024-12-06 12:26:21.145,79.42,522.0,0.25,0.96,-0.02,-0.28,-0.66,0.27
2024-12-06 12:26:21.154,87.75,514.0,0.25,0.96,-0.02,-0.28,-0.66,0.27
2024-12-06 12:26:21.161,75.82,518.0,0.25,0.96,-0.02,-0.28,-0.66,0.27
2024-12-06 12:26:21.176,82.8,530.0,0.25,0.96,-0.02,-0.4,-0.6,0.21
2024-12-06 12:26:21.178,84.82,533.0,0.25,0.96,-0.02,-0.4,-0.54,0.27
2024-12-06 12:26:21.184,82.12,514.0,0.25,0.96,-0.02,-0.46,-0.54,0.33
2024-12-06 12:26:21.192,84.38,509.0,0.25,0.96,-0.02,-0.52,-0.6,0.33
2024-12-06 12:26:21.201,86.17,525.0,0.25,0.96,-0.03,-0.52,-0.6,0.39
2024-12-06 12:26:21.209,86.62,508.0,0.26,0.95,-0.03,-0.64,-0.72,0.39
2024-12-06 12:26:21.216,85.95,514.0,0.26,0.95,-0.03,-0.71,-0.97,0.45
2024-12-06 12:26:21.224,84.15,512.0,0.26,0.95,-0.03,-0.77,-1.15,0.45
2024-12-06 12:26:21.235,86.4,509.0,0.26,0.95,-0.03,-0.77,-1.33,0.45
2024-12-06 12:26:21.245,87.52,532.0,0.26,0.95,-0.03,-0.77,-1.51,0.45
2024-12-06 12:26:21.248,83.7,512.0,0.26,0.95,-0.03,-0.77,-1.51,0.45
2024-12-06 12:26:21.255,87.52,522.0,0.26,0.95,-0.02,-0.71,-1.58,0.45
2024-12-06 12:26:21.264,85.28,524.0,0.25,0.95,-0.02,-0.71,-1.45,0.39
2024-12-06 12:26:21.275,87.3,524.0,0.25,0.96,-0.02,-0.64,-1.33,0.33
2024-12-06 12:26:21.288,82.12,506.0,0.25,0.96,-0.02,-0.58,-1.15,0.39
2024-12-06 12:26:21.305,87.3,502.0,0.25,0.96,-0.02,-0.58,-1.03,0.39
2024-12-06 12:26:21.316,87.52,508.0,0.25,0.96,-0.02,-0.64,-0.72,0.33
2024-12-06 12:26:21.364,86.62,509.0,0.25,0.96,-0.02,-0.71,-0.54,0.27
2024-12-06 12:26:21.367,87.52,503.0,0.25,0.96,-0.03,-0.52,-0.84,0.03
2024-12-06 12:26:21.369,86.85,509.0,0.25,0.96,-0.03,-0.52,-0.84,0.03
2024-12-06 12:26:21.377,82.35,516.0,0.25,0.96,-0.03,-0.52,-0.84,-0.04
2024-12-06 12:26:21.386,83.03,523.0,0.25,0.96,-0.03,-0.46,-0.97,-0.04
2024-12-06 12:26:21.397,86.62,518.0,0.25,0.96,-0.03,-0.46,-0.9,-0.04
2024-12-06 12:26:21.400,85.05,516.0,0.25,0.96,-0.03,-0.46,-0.84,-0.1
2024-12-06 12:26:21.409,86.62,514.0,0.25,0.96,-0.03,-0.46,-0.84,-0.1
2024-12-06 12:26:21.418,88.42,512.0,0.25,0.96,-0.03,-0.46,-0.84,-0.1
2024-12-06 12:26:21.423,81.22,506.0,0.25,0.96,-0.03,-0.4,-0.84,-0.04
2024-12-06 12:26:21.432,86.4,524.0,0.25,0.96,-0.03,-0.34,-0.84,-0.04
2024-12-06 12:26:21.441,87.97,517.0,0.25,0.96,-0.03,-0.34,-0.9,0.03
2024-12-06 12:26:21.455,83.7,517.0,0.25,0.96,-0.03,-0.34,-0.97,-0.04
2024-12-06 12:26:21.458,86.17,509.0,0.25,0.96,-0.03,-0.34,-0.97,-0.1
2024-12-06 12:26:21.462,87.3,507.0,0.25,0.96,-0.03,-0.34,-0.97,-0.1
2024-12-06 12:26:21.470,85.28,507.0,0.25,0.96,-0.02,-0.34,-1.09,-0.16
2024-12-06 12:26:21.480,85.28,509.0,0.25,0.96,-0.02,-0.28,-1.27,-0.22
2024-12-06 12:26:21.486,86.62,508.0,0.25,0.96,-0.02,-0.28,-1.27,-0.34
2024-12-06 12:26:21.494,83.03,506.0,0.25,0.96,-0.02,-0.28,-1.21,-0.4
2024-12-06 12:26:21.502,86.85,561.0,0.25,0.96,-0.02,-0.28,-1.21,-0.46
2024-12-06 12:26:21.537,86.4,511.0,0.25,0.96,-0.02,-0.28,-1.03,-0.46
2024-12-06 12:26:21.539,85.72,513.0,0.25,0.96,-0.02,-0.28,-0.54,-0.28
2024-12-06 12:26:21.543,85.28,506.0,0.25,0.96,-0.02,-0.28,-0.35,-0.22
2024-12-06 12:26:21.548,85.5,516.0,0.25,0.96,-0.03,-0.28,-0.35,-0.22
2024-12-06 12:26:21.557,81.22,520.0,0.25,0.96,-0.03,-0.34,-0.35,-0.1
2024-12-06 12:26:21.564,84.15,528.0,0.25,0.96,-0.03,-0.34,-0.48,-0.04
2024-12-06 12:26:21.571,85.05,526.0,0.25,0.96,-0.03,-0.34,-0.6,0.03
2024-12-06 12:26:21.579,82.8,537.0,0.25,0.96,-0.03,-0.34,-0.72,0.09
2024-12-06 12:26:21.587,86.17,522.0,0.25,0.96,-0.03,-0.34,-0.72,0.09
2024-12-06 12:26:21.594,88.65,496.0,0.25,0.96,-0.03,-0.28,-0.9,0.15
2024-12-06 12:26:21.602,86.85,522.0,0.25,0.96,-0.03,-0.22,-0.9,0.21
2024-12-06 12:26:21.611,86.85,509.0,0.25,0.96,-0.03,-0.16,-0.78,0.21
2024-12-06 12:26:21.620,86.62,526.0,0.25,0.96,-0.03,-0.1,-0.66,0.27
2024-12-06 12:26:21.627,81.22,514.0,0.25,0.96,-0.03,-0.03,-0.54,0.33
2024-12-06 12:26:21.637,87.97,515.0,0.25,0.96,-0.02,-0.03,-0.54,0.33
2024-12-06 12:26:21.646,80.55,523.0,0.25,0.96,-0.02,0.03,-0.42,0.33
2024-12-06 12:26:21.651,84.82,528.0,0.25,0.96,-0.02,0.03,-0.35,0.33
2024-12-06 12:26:21.657,88.42,521.0,0.25,0.96,-0.02,0.03,-0.23,0.39
2024-12-06 12:26:21.665,82.57,514.0,0.25,0.96,-0.02,-0.03,-0.11,0.27
2024-12-06 12:26:21.678,85.72,506.0,0.25,0.96,-0.02,-0.03,-0.05,0.27
2024-12-06 12:26:21.774,85.28,521.0,0.25,0.96,-0.02,-0.16,0.68,0.15
2024-12-06 12:26:21.787,86.4,512.0,0.25,0.96,-0.02,-0.16,0.68,0.27
2024-12-06 12:26:21.790,88.2,501.0,0.25,0.96,-0.02,-0.16,0.68,0.27
2024-12-06 12:26:21.797,87.52,517.0,0.25,0.96,-0.02,-0.22,0.68,0.27
2024-12-06 12:26:21.800,85.95,498.0,0.25,0.95,-0.02,-0.22,0.74,0.27
2024-12-06 12:26:21.808,85.72,511.0,0.25,0.96,-0.02,-0.22,0.5,0.21
2024-12-06 12:26:21.821,83.25,507.0,0.25,0.96,-0.02,-0.22,0.32,0.09
2024-12-06 12:26:21.824,85.05,522.0,0.25,0.96,-0.02,-0.22,0.26,-0.04
2024-12-06 12:26:21.833,83.03,512.0,0.25,0.96,-0.02,-0.22,0.26,-0.04
2024-12-06 12:26:21.843,83.92,519.0,0.25,0.96,-0.02,-0.16,0.13,-0.1
2024-12-06 12:26:21.852,89.55,516.0,0.25,0.96,-0.02,-0.1,0.01,-0.16
2024-12-06 12:26:21.856,82.12,509.0,0.25,0.96,-0.02,-0.16,0.01,-0.28
2024-12-06 12:26:21.866,88.42,519.0,0.25,0.96,-0.02,-0.16,0.19,-0.34
2024-12-06 12:26:21.874,86.4,509.0,0.25,0.96,-0.02,-0.1,0.26,-0.34
2024-12-06 12:26:21.878,83.92,511.0,0.25,0.96,-0.02,-0.1,0.26,-0.34
2024-12-06 12:26:21.887,88.42,512.0,0.25,0.96,-0.02,-0.16,0.32,-0.22
2024-12-06 12:26:21.895,82.35,523.0,0.25,0.96,-0.03,-0.22,0.26,-0.1
2024-12-06 12:26:21.910,80.78,508.0,0.25,0.96,-0.03,-0.28,0.19,0.03
2024-12-06 12:26:21.915,82.12,522.0,0.25,0.96,-0.03,-0.28,0.01,0.09
2024-12-06 12:26:21.918,85.5,518.0,0.25,0.96,-0.03,-0.34,-0.17,0.21
2024-12-06 12:26:21.926,89.1,510.0,0.25,0.96,-0.03,-0.34,-0.17,0.21
2024-12-06 12:26:21.933,85.05,508.0,0.26,0.96,-0.03,-0.28,-0.42,0.21
2024-12-06 12:26:21.945,86.85,513.0,0.25,0.96,-0.03,-0.22,-0.6,0.27
2024-12-06 12:26:21.957,87.3,526.0,0.25,0.96,-0.02,-0.16,-0.66,0.27
2024-12-06 12:26:21.997,83.03,509.0,0.25,0.96,-0.02,-0.03,-0.17,0.39
2024-12-06 12:26:22.14,87.75,506.0,0.25,0.96,-0.02,-0.03,-0.17,0.39
2024-12-06 12:26:22.16,84.15,512.0,0.25,0.96,-0.02,-0.03,0.01,0.39
2024-12-06 12:26:23.87,83.92,501.0,0.25,0.95,-0.02,-0.64,0.56,-0.16
2024-12-06 12:26:23.90,82.35,519.0,0.24,1.08,-0.04,-2.78,-0.84,1.92
2024-12-06 12:26:23.118,76.72,512.0,0.24,1.09,-0.05,-5.16,-5.6,11.13
2024-12-06 12:26:23.128,76.05,497.0,0.25,0.98,-0.1,-7.79,-3.96,13.39
2024-12-06 12:26:23.155,72.67,478.0,0.27,0.91,-0.07,-5.83,-9.82,19.68
2024-12-06 12:26:23.183,68.85,479.0,0.22,0.81,-0.02,-6.99,-6.95,15.22
2024-12-06 12:26:23.210,69.75,482.0,0.28,0.82,0.01,-4.86,-0.35,12.6
2024-12-06 12:26:23.238,67.72,474.0,0.31,0.88,0.06,-1.56,7.15,3.32
2024-12-06 12:26:23.265,67.5,467.0,0.34,0.95,0.05,3.08,8.62,-7.36
2024-12-06 12:26:23.296,66.15,481.0,0.3,0.95,0.02,5.89,5.93,-15.9
2024-12-06 12:26:23.342,64.57,467.0,0.26,0.93,0.01,7.59,2.76,-22.19
2024-12-06 12:26:23.354,64.12,467.0,0.22,0.95,-0.03,7.72,1.78,-24.14
2024-12-06 12:26:23.390,63.0,459.0,0.19,0.96,-0.03,5.64,2.39,-23.72
2024-12-06 12:26:23.413,58.95,480.0,0.2,0.99,-0.05,2.59,-0.29,-19.32
2024-12-06 12:26:23.431,56.02,476.0,0.19,0.99,-0.08,-1.13,-1.76,-14.01
2024-12-06 12:26:23.459,59.4,530.0,0.17,0.97,-0.06,-3.15,-1.64,-11.33
2024-12-06 12:26:23.487,56.02,474.0,0.21,0.99,-0.04,-3.51,-1.51,-8.7
2024-12-06 12:26:23.514,59.85,460.0,0.23,1.0,-0.03,-3.39,-2.98,-7.79
2024-12-06 12:26:23.549,56.7,466.0,0.23,0.98,-0.03,-1.99,-4.75,-8.21
2024-12-06 12:26:23.570,53.1,466.0,0.23,0.97,-0.02,-0.34,-5.42,-7.54
2024-12-06 12:26:23.598,54.0,463.0,0.21,0.98,-0.02,1.0,-4.93,-6.93
2024-12-06 12:26:23.624,54.22,478.0,0.18,0.97,-0.03,1.31,-2.8,-5.83
2024-12-06 12:26:23.653,48.15,454.0,0.17,0.98,-0.04,1.25,-0.05,-4.25
2024-12-06 12:26:23.680,51.3,454.0,0.18,0.98,-0.03,1.06,1.84,-1.62
2024-12-06 12:26:23.710,46.12,457.0,0.17,0.98,-0.05,0.45,3.49,-0.46
2024-12-06 12:26:23.737,47.47,457.0,0.18,0.98,-0.03,0.45,3.06,-0.4
2024-12-06 12:26:23.763,42.3,459.0,0.2,0.99,-0.04,1.37,1.05,0.33
2024-12-06 12:26:23.884,45.45,473.0,0.19,0.98,-0.03,1.74,-1.39,0.27
2024-12-06 12:26:23.887,44.55,449.0,0.18,0.98,-0.02,0.94,-5.05,-1.26
2024-12-06 12:26:23.900,35.77,469.0,0.16,0.96,-0.02,-0.28,-5.97,-2.54
2024-12-06 12:26:23.932,39.83,455.0,0.18,0.97,-0.02,-0.4,-6.21,-2.23
2024-12-06 12:26:23.957,31.27,458.0,0.16,0.97,-0.01,-1.26,-4.69,-2.66
2024-12-06 12:26:23.983,35.55,456.0,0.17,0.97,-0.02,-2.05,-2.8,-3.39
2024-12-06 12:26:24.24,38.25,469.0,0.18,0.98,-0.04,-1.62,-1.7,-2.17
2024-12-06 12:26:24.38,36.45,454.0,0.18,0.98,-0.04,-1.38,-3.16,-2.05
2024-12-06 12:26:24.67,32.62,482.0,0.17,0.97,-0.05,-1.5,-4.14,-1.26
2024-12-06 12:26:24.99,30.38,478.0,0.17,0.98,-0.04,-0.77,-4.99,-1.44
2024-12-06 12:26:24.128,32.62,458.0,0.15,0.98,-0.03,-0.83,-5.67,-1.99
2024-12-06 12:26:24.152,34.2,461.0,0.14,0.97,-0.04,-0.77,-4.63,-3.45
2024-12-06 12:26:24.182,34.42,456.0,0.15,0.98,-0.03,-0.28,-2.0,-3.76
2024-12-06 12:26:24.208,30.38,460.0,0.15,0.99,-0.04,-0.16,0.38,-2.6
2024-12-06 12:26:24.263,27.45,452.0,0.15,0.98,-0.04,-0.77,1.05,-1.68
2024-12-06 12:26:24.270,26.32,457.0,0.16,0.99,-0.03,-0.89,1.66,-0.52
2024-12-06 12:26:24.286,23.62,463.0,0.16,0.98,-0.03,-0.89,2.45,-0.16
2024-12-06 12:26:24.314,21.6,454.0,0.17,0.99,-0.04,-0.64,4.16,1.12
2024-12-06 12:26:24.341,23.62,458.0,0.16,0.98,-0.05,0.27,4.96,1.92
2024-12-06 12:26:24.375,22.5,457.0,0.16,0.98,-0.03,0.7,5.14,2.83
2024-12-06 12:26:24.401,18.45,458.0,0.14,0.97,-0.03,1.43,5.32,2.35
2024-12-06 12:26:24.425,20.25,469.0,0.16,0.98,-0.03,1.86,5.99,1.92
2024-12-06 12:26:24.479,24.52,489.0,0.15,0.98,-0.02,1.43,7.52,1.8
2024-12-06 12:26:24.482,20.48,467.0,0.15,0.98,-0.03,0.94,9.35,0.39
2024-12-06 12:26:24.508,20.7,455.0,0.17,0.98,-0.03,1.31,11.49,1.0
2024-12-06 12:26:24.538,14.4,456.0,0.17,0.98,-0.04,2.1,11.97,2.53
2024-12-06 12:26:24.564,17.55,455.0,0.17,0.98,-0.05,2.1,10.57,3.87
2024-12-06 12:26:24.590,13.05,451.0,0.19,1.0,-0.04,2.28,6.97,6.07
2024-12-06 12:26:24.619,10.8,456.0,0.18,0.99,-0.03,2.47,4.47,5.64
2024-12-06 12:26:24.646,15.52,471.0,0.19,0.96,-0.03,2.96,5.02,5.21
2024-12-06 12:26:24.707,11.7,454.0,0.19,0.95,-0.03,3.38,6.91,4.85
2024-12-06 12:26:24.710,15.07,458.0,0.18,0.95,-0.02,3.14,5.69,4.24
2024-12-06 12:26:24.729,8.32,459.0,0.18,0.96,-0.03,2.04,4.34,2.89
2024-12-06 12:26:24.756,11.02,452.0,0.18,0.97,-0.03,1.06,2.27,1.61
2024-12-06 12:26:24.784,6.3,457.0,0.17,0.97,-0.03,0.39,0.5,-0.16
2024-12-06 12:26:24.917,8.77,466.0,0.19,0.98,-0.02,-0.1,2.51,-0.28
2024-12-06 12:26:24.921,9.45,460.0,0.19,0.97,-0.02,-0.77,5.57,0.39
2024-12-06 12:26:24.924,3.15,462.0,0.19,0.95,-0.03,-1.19,4.16,-0.34
2024-12-06 12:26:24.956,5.62,473.0,0.21,0.97,-0.03,-1.07,1.17,-0.77
2024-12-06 12:26:24.976,0.22,463.0,0.2,0.98,-0.03,-0.34,-0.78,-0.83
2024-12-06 12:26:25.4,2.02,460.0,0.2,0.99,-0.04,0.15,-0.54,-0.04
2024-12-06 12:26:25.14,0.67,464.0,0.2,0.99,-0.04,0.58,-0.54,-0.04
2024-12-06 12:26:25.19,2.7,475.0,0.21,0.99,-0.04,0.76,0.56,0.76
2024-12-06 12:26:25.35,-2.02,454.0,0.2,0.99,-0.03,1.31,1.17,2.47
2024-12-06 12:26:25.43,3.82,468.0,0.2,0.98,-0.04,1.49,1.72,3.26
2024-12-06 12:26:25.50,2.25,471.0,0.19,0.98,-0.04,1.49,1.72,3.26
2024-12-06 12:26:25.60,3.6,471.0,0.18,0.97,-0.04,1.49,2.03,3.63
2024-12-06 12:26:25.68,4.05,461.0,0.17,0.96,-0.04,1.37,2.39,3.69
2024-12-06 12:26:25.76,0.67,466.0,0.16,0.95,-0.03,1.31,2.27,3.2
2024-12-06 12:26:25.81,2.25,469.0,0.16,0.95,-0.03,1.13,2.57,2.53
2024-12-06 12:26:25.89,0.67,465.0,0.15,0.95,-0.03,1.06,2.09,2.1
2024-12-06 12:26:25.97,0.22,472.0,0.17,0.95,-0.03,1.06,2.09,2.1
2024-12-06 12:26:25.113,-2.47,459.0,0.16,0.96,-0.03,0.82,2.09,1.73
2024-12-06 12:26:25.122,1.57,475.0,0.16,0.96,-0.03,0.82,1.9,0.94
2024-12-06 12:26:25.152,0.22,456.0,0.19,0.98,-0.03,0.45,3.25,-0.1
2024-12-06 12:26:25.157,-0.22,465.0,0.19,0.98,-0.03,0.58,3.55,0.45
2024-12-06 12:26:25.164,0.22,463.0,0.2,0.98,-0.03,0.76,3.55,1.0
2024-12-06 12:26:25.176,-3.38,465.0,0.19,0.98,-0.03,0.76,3.55,1.0
2024-12-06 12:26:25.187,0.9,463.0,0.18,0.98,-0.03,0.88,3.8,1.19
2024-12-06 12:26:25.190,-2.7,463.0,0.18,0.97,-0.03,0.88,3.92,1.12
2024-12-06 12:26:25.196,-3.38,465.0,0.18,0.97,-0.03,0.88,3.92,0.82
2024-12-06 12:26:25.209,0.0,463.0,0.18,0.97,-0.03,0.82,3.98,0.58
2024-12-06 12:26:25.214,-5.17,462.0,0.19,0.97,-0.03,0.82,3.98,0.58
2024-12-06 12:26:25.219,3.15,479.0,0.19,0.97,-0.03,0.88,3.86,0.39
2024-12-06 12:26:25.232,-2.7,450.0,0.19,0.97,-0.04,0.94,3.67,0.27
2024-12-06 12:26:25.234,0.0,483.0,0.19,0.97,-0.04,0.94,3.61,0.09
2024-12-06 12:26:25.242,1.12,475.0,0.19,0.97,-0.03,0.82,3.55,-0.1
2024-12-06 12:26:25.250,0.9,463.0,0.19,0.97,-0.03,0.7,3.25,-0.22
2024-12-06 12:26:25.260,-0.45,475.0,0.19,0.96,-0.03,0.7,3.25,-0.22
2024-12-06 12:26:25.282,-1.12,474.0,0.2,0.97,-0.03,0.51,2.21,-0.46
2024-12-06 12:26:25.285,-0.22,463.0,0.2,0.97,-0.03,0.45,1.48,-0.58
2024-12-06 12:26:25.289,2.92,477.0,0.2,0.97,-0.03,0.39,0.62,-0.65
2024-12-06 12:26:25.297,3.82,474.0,0.2,0.97,-0.03,0.39,-0.17,-0.65
2024-12-06 12:26:25.304,2.02,467.0,0.2,0.98,-0.02,0.39,-0.17,-0.65
2024-12-06 12:26:25.314,-0.9,484.0,0.2,0.98,-0.02,0.39,-0.84,-0.65
2024-12-06 12:26:25.322,-8.55,478.0,0.19,0.98,-0.03,0.39,-1.21,-0.65
2024-12-06 12:26:25.328,-0.67,461.0,0.19,0.97,-0.03,0.39,-1.39,-0.65
2024-12-06 12:26:25.344,0.22,477.0,0.19,0.97,-0.03,0.33,-1.09,-0.65
2024-12-06 12:26:25.348,-4.72,459.0,0.18,0.97,-0.04,0.33,-1.09,-0.65
2024-12-06 12:26:25.351,-0.9,479.0,0.18,0.96,-0.04,0.45,-0.54,-0.71
2024-12-06 12:26:25.361,0.0,478.0,0.18,0.96,-0.04,0.45,0.26,-0.77
2024-12-06 12:26:25.367,0.0,487.0,0.18,0.96,-0.04,0.39,0.74,-0.65
2024-12-06 12:26:25.378,0.67,485.0,0.18,0.96,-0.04,0.33,1.23,-0.4
2024-12-06 12:26:25.382,-1.8,477.0,0.19,0.97,-0.04,0.21,1.66,-0.04
2024-12-06 12:26:25.390,1.12,467.0,0.19,0.97,-0.04,0.21,1.66,-0.04
2024-12-06 12:26:25.403,0.22,463.0,0.19,0.97,-0.04,0.09,1.78,0.39
2024-12-06 12:26:25.407,0.67,465.0,0.19,0.97,-0.04,-0.03,1.72,0.7
2024-12-06 12:26:25.419,1.35,477.0,0.19,0.97,-0.03,-0.16,1.42,0.88
2024-12-06 12:26:25.422,-2.02,497.0,0.19,0.97,-0.03,-0.34,0.87,1.0
2024-12-06 12:26:25.459,-0.45,479.0,0.19,0.98,-0.04,-0.22,-0.6,0.94
2024-12-06 12:26:25.483,1.57,497.0,0.2,0.97,-0.03,-0.16,-0.72,0.88
2024-12-06 12:26:25.486,2.02,459.0,0.19,0.97,-0.03,-0.03,-0.78,0.94
2024-12-06 12:26:25.492,3.82,467.0,0.19,0.97,-0.04,0.03,-0.66,0.94
2024-12-06 12:26:25.500,2.02,465.0,0.19,0.97,-0.04,0.09,-0.29,0.94
2024-12-06 12:26:25.509,0.45,462.0,0.19,0.97,-0.04,0.15,-0.11,0.82
2024-12-06 12:26:25.514,0.0,486.0,0.19,0.97,-0.04,0.15,0.01,0.76
2024-12-06 12:26:25.522,0.0,469.0,0.19,0.96,-0.04,0.21,0.01,0.76
2024-12-06 12:26:25.539,2.7,528.0,0.19,0.96,-0.04,0.27,0.07,0.76
2024-12-06 12:26:25.543,0.22,464.0,0.19,0.97,-0.04,0.27,0.19,0.76
2024-12-06 12:26:25.547,2.25,463.0,0.19,0.97,-0.04,0.09,0.19,0.76
2024-12-06 12:26:25.551,0.22,463.0,0.19,0.97,-0.03,0.03,0.07,0.88
2024-12-06 12:26:25.566,-2.02,456.0,0.19,0.97,-0.03,0.03,0.07,0.88
2024-12-06 12:26:25.570,-1.57,466.0,0.19,0.98,-0.03,-0.03,-0.23,1.0
2024-12-06 12:26:25.574,0.0,453.0,0.19,0.98,-0.03,-0.03,-0.29,1.06
2024-12-06 12:26:25.605,-2.25,459.0,0.19,0.96,-0.04,-0.03,0.01,0.94
2024-12-06 12:26:25.618,0.0,469.0,0.19,0.96,-0.04,0.03,0.19,0.88
2024-12-06 12:26:25.622,0.45,449.0,0.22,0.96,-0.04,0.03,0.26,0.82
2024-12-06 12:26:25.638,-2.7,474.0,0.19,0.96,-0.04,-0.1,0.32,0.88
2024-12-06 12:26:25.642,1.12,461.0,0.19,0.97,-0.04,-0.1,0.32,0.88
2024-12-06 12:26:25.645,-1.35,470.0,0.2,0.97,-0.03,-0.22,0.13,1.06
2024-12-06 12:26:25.651,1.35,465.0,0.2,0.97,-0.03,-0.28,-0.17,1.12
2024-12-06 12:26:25.658,-2.02,465.0,0.2,0.97,-0.03,-0.4,-0.35,1.31
2024-12-06 12:26:25.666,1.12,482.0,0.2,0.97,-0.03,-0.46,-0.54,1.43
2024-12-06 12:26:25.678,0.0,464.0,0.2,0.98,-0.03,-0.46,-0.78,1.49
2024-12-06 12:26:25.688,-5.17,470.0,0.2,0.98,-0.03,-0.58,-0.78,1.49
2024-12-06 12:26:25.691,0.9,461.0,0.2,0.97,-0.03,-0.64,-0.84,1.61
2024-12-06 12:26:25.697,0.0,460.0,0.2,0.97,-0.03,-0.64,-0.97,1.67
2024-12-06 12:26:25.709,-0.9,458.0,0.2,0.97,-0.03,-0.58,-1.15,1.67
2024-12-06 12:26:25.712,-3.82,459.0,0.2,0.97,-0.03,-0.46,-1.33,1.67
2024-12-06 12:26:25.724,-1.57,466.0,0.2,0.97,-0.04,-0.46,-1.33,1.67
2024-12-06 12:26:25.728,-2.92,466.0,0.2,0.96,-0.04,-0.4,-1.51,1.49
2024-12-06 12:26:25.738,-2.7,467.0,0.2,0.96,-0.04,-0.34,-1.82,1.25
2024-12-06 12:26:25.745,2.7,502.0,0.2,0.97,-0.04,-0.28,-2.12,1.06
2024-12-06 12:26:25.759,-3.6,471.0,0.2,0.97,-0.04,-0.28,-2.43,0.94
2024-12-06 12:26:25.766,0.67,480.0,0.2,0.97,-0.03,-0.34,-2.92,0.94
2024-12-06 12:26:25.775,-4.5,456.0,0.2,0.97,-0.03,-0.4,-3.35,0.94
2024-12-06 12:26:25.783,0.22,479.0,0.19,0.97,-0.04,-0.46,-3.41,1.06
2024-12-06 12:26:25.794,1.8,467.0,0.19,0.97,-0.04,-0.52,-3.35,1.19
2024-12-06 12:26:25.802,2.25,475.0,0.19,0.97,-0.04,-0.58,-3.28,1.25
2024-12-06 12:26:25.828,-3.6,474.0,0.18,0.97,-0.04,-0.58,-2.86,1.19
2024-12-06 12:26:25.833,2.7,475.0,0.18,0.97,-0.04,-0.64,-2.43,1.06
2024-12-06 12:26:25.837,1.35,480.0,0.18,0.97,-0.04,-0.64,-1.94,0.94
2024-12-06 12:26:25.843,-0.22,466.0,0.18,0.97,-0.04,-0.64,-1.94,0.94
2024-12-06 12:26:25.851,-1.57,455.0,0.18,0.97,-0.04,-0.64,-1.51,0.94
2024-12-06 12:26:25.860,-0.45,460.0,0.18,0.97,-0.04,-0.58,-1.09,0.94
2024-12-06 12:26:25.873,-2.02,459.0,0.19,0.97,-0.04,-0.64,-0.72,0.94
2024-12-06 12:26:25.970,1.57,473.0,0.2,0.97,-0.04,-0.58,1.42,0.45
2024-12-06 12:26:25.973,-1.57,460.0,0.2,0.97,-0.04,-0.58,1.23,0.33
2024-12-06 12:26:25.980,-1.57,463.0,0.2,0.97,-0.04,-0.77,1.17,0.15
2024-12-06 12:26:25.992,2.7,461.0,0.2,0.97,-0.03,-0.95,1.17,-0.1
2024-12-06 12:26:25.997,0.67,459.0,0.2,0.97,-0.03,-0.95,1.05,-0.22
2024-12-06 12:26:26.3,-0.9,457.0,0.2,0.97,-0.03,-0.95,1.05,-0.22
2024-12-06 12:26:26.12,-0.22,457.0,0.2,0.97,-0.03,-0.95,0.93,-0.22
2024-12-06 12:26:26.19,2.25,480.0,0.21,0.98,-0.02,-0.89,0.8,-0.16
2024-12-06 12:26:26.28,-2.02,472.0,0.21,0.98,-0.03,-0.77,0.56,0.03
2024-12-06 12:26:26.34,1.35,462.0,0.21,0.98,-0.03,-0.64,0.44,0.15
2024-12-06 12:26:26.72,2.02,452.0,0.2,0.97,-0.03,-0.16,0.07,0.09
2024-12-06 12:26:26.74,0.9,468.0,0.2,0.97,-0.03,-0.1,-0.11,0.03
2024-12-06 12:26:26.84,-1.12,470.0,0.2,0.97,-0.03,-0.03,-0.54,0.03
2024-12-06 12:26:26.91,-4.28,451.0,0.2,0.97,-0.03,-0.03,-0.54,0.03
2024-12-06 12:26:26.98,-0.22,457.0,0.2,0.97,-0.03,-0.03,-1.15,0.09
2024-12-06 12:26:26.107,-2.92,475.0,0.2,0.97,-0.03,-0.1,-1.7,0.21
2024-12-06 12:26:26.113,-0.9,459.0,0.2,0.97,-0.03,-0.16,-2.19,0.39
2024-12-06 12:26:26.119,-1.8,453.0,0.2,0.97,-0.03,-0.28,-2.61,0.58
2024-12-06 12:26:26.127,-1.12,473.0,0.19,0.97,-0.03,-0.28,-2.61,0.58
2024-12-06 12:26:26.139,0.45,456.0,0.19,0.97,-0.03,-0.4,-2.67,0.7
2024-12-06 12:26:26.144,-2.7,485.0,0.19,0.97,-0.03,-0.64,-2.49,0.82
2024-12-06 12:26:26.150,-1.57,487.0,0.19,0.97,-0.03,-0.64,-2.49,1.0
2024-12-06 12:26:26.159,-1.8,456.0,0.19,0.97,-0.03,-0.64,-2.43,1.25
2024-12-06 12:26:26.173,-2.02,459.0,0.19,0.97,-0.03,-0.58,-2.19,1.37
2024-12-06 12:26:26.176,-2.7,466.0,0.19,0.97,-0.03,-0.58,-2.19,1.37
2024-12-06 12:26:26.183,-0.9,471.0,0.19,0.97,-0.03,-0.52,-1.82,1.43
2024-12-06 12:26:26.188,-1.12,472.0,0.19,0.97,-0.03,-0.52,-1.39,1.37
2024-12-06 12:26:26.200,1.57,483.0,0.19,0.97,-0.04,-0.46,-1.03,1.31
2024-12-06 12:26:26.206,-2.02,445.0,0.19,0.97,-0.04,-0.4,-0.72,1.37
2024-12-06 12:26:26.212,0.22,454.0,0.19,0.97,-0.04,-0.4,-0.54,1.37
2024-12-06 12:26:26.220,-2.25,439.0,0.19,0.97,-0.04,-0.4,-0.54,1.37
2024-12-06 12:26:26.230,-1.57,459.0,0.19,0.97,-0.04,-0.34,-0.35,1.37
2024-12-06 12:26:26.238,0.45,453.0,0.19,0.97,-0.04,-0.34,-0.29,1.37
2024-12-06 12:26:26.244,-0.45,458.0,0.19,0.97,-0.04,-0.34,-0.17,1.37
2024-12-06 12:26:26.254,2.25,457.0,0.19,0.97,-0.04,-0.4,-0.17,1.43
2024-12-06 12:26:26.260,2.25,452.0,0.19,0.97,-0.04,-0.46,-0.11,1.37
2024-12-06 12:26:26.291,1.57,454.0,0.19,0.97,-0.03,-0.52,0.01,1.43
2024-12-06 12:26:26.297,0.45,471.0,0.19,0.97,-0.03,-0.52,0.26,1.37
2024-12-06 12:26:26.307,1.12,456.0,0.19,0.97,-0.03,-0.52,0.26,1.37
2024-12-06 12:26:26.319,0.9,465.0,0.19,0.97,-0.03,-0.4,0.38,1.19
2024-12-06 12:26:26.321,0.0,451.0,0.2,0.97,-0.03,-0.34,0.44,1.0
2024-12-06 12:26:26.331,0.0,470.0,0.2,0.97,-0.03,-0.28,0.5,0.88
2024-12-06 12:26:26.338,-0.67,471.0,0.2,0.97,-0.03,-0.28,0.44,0.7
2024-12-06 12:26:26.345,0.45,460.0,0.2,0.97,-0.03,-0.28,0.44,0.58
2024-12-06 12:26:26.357,-2.47,455.0,0.2,0.97,-0.03,-0.22,0.32,0.58
2024-12-06 12:26:26.362,1.8,515.0,0.2,0.97,-0.02,-0.16,0.13,0.51
2024-12-06 12:26:26.372,0.67,460.0,0.2,0.97,-0.03,-0.1,-0.11,0.45
2024-12-06 12:26:26.381,1.57,466.0,0.2,0.97,-0.03,-0.03,-0.29,0.39
2024-12-06 12:26:26.386,0.0,448.0,0.2,0.97,-0.03,-0.03,-0.29,0.33
2024-12-06 12:26:26.395,1.12,448.0,0.2,0.97,-0.03,-0.03,-0.29,0.33
2024-12-06 12:26:26.401,0.22,448.0,0.19,0.97,-0.03,-0.03,-0.29,0.15
2024-12-06 12:26:26.406,0.67,473.0,0.19,0.97,-0.03,-0.1,-0.29,-0.04
2024-12-06 12:26:26.413,1.12,475.0,0.19,0.96,-0.03,-0.1,-0.29,-0.1
2024-12-06 12:26:26.425,0.9,444.0,0.19,0.96,-0.03,-0.1,-0.17,-0.1
2024-12-06 12:26:26.432,-1.12,470.0,0.19,0.96,-0.03,-0.16,-0.11,-0.04
2024-12-06 12:26:26.440,1.35,460.0,0.19,0.97,-0.03,-0.16,-0.11,-0.04
2024-12-06 12:26:26.450,-1.8,455.0,0.19,0.97,-0.03,-0.22,-0.17,0.03
2024-12-06 12:26:26.455,-3.38,456.0,0.2,0.97,-0.03,-0.22,-0.23,0.15
2024-12-06 12:26:26.460,3.15,448.0,0.19,0.97,-0.03,-0.22,-0.29,0.27
2024-12-06 12:26:26.471,3.15,481.0,0.19,0.97,-0.03,-0.22,-0.29,0.33
2024-12-06 12:26:26.482,-5.4,483.0,0.19,0.97,-0.03,-0.28,-0.17,0.33
2024-12-06 12:26:26.520,2.02,486.0,0.19,0.97,-0.03,-0.46,0.5,0.45
2024-12-06 12:26:26.523,-3.15,464.0,0.19,0.97,-0.03,-0.46,0.56,0.45
2024-12-06 12:26:26.528,-3.15,455.0,0.2,0.98,-0.03,-0.46,0.68,0.45
2024-12-06 12:26:26.537,2.92,447.0,0.2,0.98,-0.03,-0.46,0.8,0.51
2024-12-06 12:26:26.547,0.67,468.0,0.2,0.98,-0.03,-0.52,0.87,0.58
2024-12-06 12:26:26.556,0.22,469.0,0.2,0.98,-0.03,-0.52,0.87,0.64
2024-12-06 12:26:26.577,-0.45,469.0,0.2,0.97,-0.03,-0.52,0.87,0.64
2024-12-06 12:26:26.580,-3.82,462.0,0.2,0.97,-0.03,-0.4,0.8,0.7
2024-12-06 12:26:26.584,-1.12,467.0,0.2,0.97,-0.03,-0.4,0.68,0.76
2024-12-06 12:26:26.590,0.22,451.0,0.2,0.97,-0.03,-0.4,0.68,0.82
2024-12-06 12:26:26.598,-0.67,465.0,0.2,0.97,-0.03,-0.4,0.68,0.88
2024-12-06 12:26:26.606,-4.05,451.0,0.2,0.97,-0.03,-0.46,0.87,0.88
2024-12-06 12:26:26.616,-0.45,464.0,0.2,0.97,-0.03,-0.52,1.05,1.0
2024-12-06 12:26:26.623,-2.02,455.0,0.2,0.97,-0.03,-0.64,1.42,0.94
2024-12-06 12:26:26.631,-2.02,467.0,0.2,0.97,-0.03,-0.71,1.78,0.94
2024-12-06 12:26:26.640,0.22,463.0,0.2,0.97,-0.03,-0.71,2.09,1.0
2024-12-06 12:26:26.647,2.47,455.0,0.2,0.97,-0.03,-0.71,2.09,1.0
2024-12-06 12:26:26.655,-3.38,457.0,0.2,0.97,-0.03,-0.58,2.39,1.06
2024-12-06 12:26:26.678,2.02,471.0,0.21,0.97,-0.04,0.09,3.37,1.06
2024-12-06 12:26:26.685,-2.7,470.0,0.21,0.98,-0.04,0.27,3.31,1.06
2024-12-06 12:26:26.695,-1.57,457.0,0.21,0.98,-0.04,0.27,3.31,1.06
2024-12-06 12:26:26.699,1.35,479.0,0.21,0.98,-0.04,0.51,3.0,1.0
2024-12-06 12:26:26.734,-1.57,461.0,0.21,0.98,-0.03,0.82,1.29,1.25
2024-12-06 12:26:26.737,1.35,461.0,0.21,0.98,-0.03,0.76,0.5,1.37
2024-12-06 12:26:26.744,0.22,458.0,0.21,0.98,-0.03,0.82,-0.11,1.37
2024-12-06 12:26:26.758,-4.72,458.0,0.21,0.97,-0.03,0.82,-0.6,1.43
2024-12-06 12:26:26.768,0.45,454.0,0.21,0.97,-0.03,0.76,-1.03,1.49
2024-12-06 12:26:26.771,-0.45,482.0,0.21,0.97,-0.03,0.76,-1.27,1.49
2024-12-06 12:26:26.776,0.45,467.0,0.2,0.97,-0.03,0.7,-1.27,1.49
2024-12-06 12:26:26.785,-3.15,448.0,0.2,0.97,-0.04,0.76,-1.33,1.55
2024-12-06 12:26:26.796,0.0,456.0,0.2,0.97,-0.04,0.76,-1.15,1.43
2024-12-06 12:26:26.801,-0.22,459.0,0.2,1.0,-0.03,0.82,-0.97,1.43
2024-12-06 12:26:26.814,0.22,468.0,0.2,0.97,-0.03,0.88,-0.72,1.37
2024-12-06 12:26:26.824,0.22,469.0,0.2,0.97,-0.03,0.94,-0.35,1.37
2024-12-06 12:26:26.830,2.02,459.0,0.2,0.97,-0.03,1.0,-0.17,1.43
2024-12-06 12:26:26.837,-2.02,465.0,0.2,0.97,-0.03,1.06,0.19,1.43
2024-12-06 12:26:26.846,2.47,503.0,0.2,0.97,-0.03,1.0,0.74,1.37
2024-12-06 12:26:26.853,-1.12,472.0,0.2,0.97,-0.03,1.0,0.74,1.37
2024-12-06 12:26:26.868,-0.9,452.0,0.2,0.97,-0.03,0.94,0.93,1.37
2024-12-06 12:26:26.881,1.8,469.0,0.2,0.97,-0.03,0.76,1.05,1.31
2024-12-06 12:26:26.886,1.8,474.0,0.2,0.97,-0.03,0.7,1.05,1.25
2024-12-06 12:26:26.898,0.9,458.0,0.2,0.97,-0.03,0.64,0.93,1.19
2024-12-06 12:26:26.901,1.12,458.0,0.2,0.97,-0.03,0.64,0.93,1.19
2024-12-06 12:26:26.907,2.7,451.0,0.2,0.97,-0.03,0.58,0.8,1.12
2024-12-06 12:26:26.917,2.7,474.0,0.2,0.97,-0.03,0.51,0.68,1.06
2024-12-06 12:26:27.19,0.45,448.0,0.2,0.97,-0.04,0.27,1.29,0.51
2024-12-06 12:26:27.22,-1.57,459.0,0.21,0.97,-0.04,0.27,1.48,0.45
2024-12-06 12:26:27.27,-1.8,455.0,0.21,0.97,-0.04,0.27,1.54,0.39
2024-12-06 12:26:27.67,-3.82,474.0,0.21,0.97,-0.03,0.21,0.74,0.39
2024-12-06 12:26:27.75,-0.67,456.0,0.21,0.97,-0.03,0.21,-0.29,0.15
2024-12-06 12:26:27.82,0.67,469.0,0.21,0.97,-0.03,0.21,-0.29,0.15
2024-12-06 12:26:27.91,-1.12,455.0,0.21,0.97,-0.03,0.15,-0.84,0.09
2024-12-06 12:26:27.97,0.67,456.0,0.21,0.97,-0.03,0.09,-1.15,0.03
2024-12-06 12:26:27.105,-0.22,455.0,0.21,0.97,-0.03,0.09,-1.33,-0.04
2024-12-06 12:26:27.119,0.0,466.0,0.21,0.97,-0.03,0.09,-1.27,-0.1
2024-12-06 12:26:27.124,-0.22,479.0,0.21,0.97,-0.03,0.21,-1.09,-0.16
2024-12-06 12:26:27.127,0.9,463.0,0.2,0.96,-0.03,0.21,-1.09,-0.16
2024-12-06 12:26:27.133,0.22,457.0,0.2,0.96,-0.03,0.27,-0.72,-0.28
2024-12-06 12:26:27.141,2.02,463.0,0.2,0.96,-0.04,0.27,-0.29,-0.4
2024-12-06 12:26:27.153,-1.35,458.0,0.2,0.96,-0.04,0.21,0.01,-0.52
2024-12-06 12:26:27.181,-3.38,476.0,0.2,0.96,-0.04,0.15,0.19,-0.58
2024-12-06 12:26:27.186,-4.95,458.0,0.2,0.96,-0.04,-0.22,0.26,-0.52
2024-12-06 12:26:27.188,-1.57,460.0,0.2,0.96,-0.04,-0.46,0.07,-0.4
2024-12-06 12:26:27.193,-0.22,455.0,0.2,0.96,-0.04,-0.71,0.07,-0.28
2024-12-06 12:26:27.213,2.02,460.0,0.2,0.97,-0.04,-0.71,0.07,-0.28
2024-12-06 12:26:27.220,-0.45,472.0,0.2,0.97,-0.04,-1.07,-0.11,0.15
2024-12-06 12:26:27.235,1.8,492.0,0.2,0.97,-0.04,-1.19,-0.05,0.33
2024-12-06 12:26:27.243,-0.67,449.0,0.2,0.97,-0.04,-1.19,-0.05,0.33
2024-12-06 12:26:27.253,-4.95,473.0,0.2,0.97,-0.03,-1.13,0.07,0.45
2024-12-06 12:26:27.287,-5.85,459.0,0.21,0.97,-0.03,-1.01,0.07,0.45
2024-12-06 12:26:27.294,0.45,483.0,0.21,0.97,-0.03,-0.52,0.32,0.51
2024-12-06 12:26:27.298,0.0,455.0,0.21,0.97,-0.03,-0.4,0.19,0.64
2024-12-06 12:26:27.305,2.47,465.0,0.21,0.97,-0.03,-0.28,0.07,0.82
2024-12-06 12:26:27.311,0.22,468.0,0.21,0.97,-0.03,-0.16,-0.05,0.88
2024-12-06 12:26:27.317,1.57,471.0,0.21,0.97,-0.03,-0.1,-0.11,0.88
2024-12-06 12:26:27.328,2.47,472.0,0.21,0.97,-0.03,-0.1,-0.11,0.88
2024-12-06 12:26:27.331,0.67,465.0,0.21,0.97,-0.03,0.03,-0.23,0.94
2024-12-06 12:26:27.339,0.67,457.0,0.21,0.97,-0.03,0.09,-0.23,0.94
2024-12-06 12:26:27.353,-2.02,474.0,0.21,0.97,-0.03,0.15,-0.17,0.94
2024-12-06 12:26:27.355,1.12,453.0,0.21,0.97,-0.03,0.27,-0.05,1.12
2024-12-06 12:26:27.363,-0.45,466.0,0.21,0.97,-0.04,0.27,0.19,1.25
2024-12-06 12:26:27.382,2.7,460.0,0.21,0.96,-0.04,0.39,0.19,1.25
2024-12-06 12:26:27.409,2.47,488.0,0.2,0.96,-0.04,0.51,0.99,1.61
2024-12-06 12:26:27.412,2.92,463.0,0.2,0.96,-0.04,0.45,1.11,1.61
2024-12-06 12:26:27.417,1.12,465.0,0.2,0.97,-0.03,0.33,0.99,1.67
2024-12-06 12:26:27.432,2.47,476.0,0.2,0.97,-0.03,0.27,0.93,1.67
2024-12-06 12:26:27.435,-1.35,450.0,0.2,0.97,-0.03,0.15,0.87,1.8
2024-12-06 12:26:27.442,-2.25,463.0,0.2,0.97,-0.03,-15.48,0.74,1.73
2024-12-06 12:26:27.447,-0.67,466.0,0.2,0.97,-0.03,0.03,0.74,1.73
2024-12-06 12:26:27.468,0.9,465.0,0.2,0.97,-0.03,-0.03,0.8,1.73
2024-12-06 12:26:27.471,1.35,464.0,0.2,0.97,-0.03,-0.1,1.23,1.73
2024-12-06 12:26:27.477,0.0,460.0,0.2,0.97,-0.03,-0.1,1.54,1.73
2024-12-06 12:26:27.487,0.45,485.0,0.2,0.97,-0.03,-0.1,1.54,1.73
2024-12-06 12:26:27.493,0.0,452.0,0.2,0.96,-0.03,-0.03,1.72,1.73
2024-12-06 12:26:27.501,-1.12,460.0,0.2,0.96,-0.03,-0.03,1.9,1.73
2024-12-06 12:26:27.517,0.45,460.0,0.21,0.96,-0.03,-0.03,2.03,1.67
2024-12-06 12:26:27.545,-3.82,478.0,0.21,0.96,-0.03,-0.03,1.35,1.61
2024-12-06 12:26:27.548,-0.45,456.0,0.21,0.96,-0.03,-0.16,1.23,1.43
2024-12-06 12:26:27.553,-3.82,451.0,0.21,0.96,-0.03,-0.28,1.23,1.19
2024-12-06 12:26:27.563,0.9,472.0,0.21,0.96,-0.03,-0.28,1.23,1.19
2024-12-06 12:26:27.578,-1.12,455.0,0.21,0.96,-0.03,-0.34,0.93,1.06
2024-12-06 12:26:27.588,-2.7,456.0,0.21,0.96,-0.03,-0.46,0.5,1.06
2024-12-06 12:26:27.592,-0.45,472.0,0.21,0.97,-0.03,-0.46,0.07,0.94
2024-12-06 12:26:27.599,-0.45,463.0,0.21,0.97,-0.03,-0.46,-0.05,0.82
2024-12-06 12:26:27.635,0.45,465.0,0.21,0.97,-0.03,-0.46,-0.05,0.82
2024-12-06 12:26:27.640,-0.45,454.0,0.2,0.97,-0.03,-0.52,-0.17,0.45
2024-12-06 12:26:27.646,1.12,465.0,0.2,0.97,-0.03,-0.52,-0.17,0.45
2024-12-06 12:26:27.655,0.0,450.0,0.2,0.97,-0.03,-0.52,0.01,0.45
2024-12-06 12:26:27.662,-4.05,473.0,0.2,0.97,-0.03,-0.64,0.32,0.51
2024-12-06 12:26:27.668,-0.45,478.0,0.2,0.97,-0.03,-0.71,0.56,0.64
2024-12-06 12:26:27.679,-3.6,458.0,0.2,0.97,-0.03,-0.77,0.74,0.76
2024-12-06 12:26:27.691,0.67,452.0,0.2,0.97,-0.03,-0.77,0.99,0.82
2024-12-06 12:26:27.694,0.9,448.0,0.2,0.97,-0.03,-0.77,0.99,0.82
2024-12-06 12:26:27.700,2.25,461.0,0.21,0.97,-0.03,-0.83,1.35,0.76
2024-12-06 12:26:27.707,-2.25,497.0,0.21,0.97,-0.03,-0.89,1.6,0.76
2024-12-06 12:26:27.715,-1.8,462.0,0.21,0.96,-0.03,-0.89,1.84,0.64
2024-12-06 12:26:27.759,-0.22,464.0,0.22,0.96,-0.03,-0.71,2.27,0.33
2024-12-06 12:26:27.768,-5.17,463.0,0.22,0.96,-0.03,-0.58,1.72,0.09
2024-12-06 12:26:27.782,2.02,474.0,0.22,0.96,-0.03,-0.58,1.72,0.09
2024-12-06 12:26:27.793,0.67,468.0,0.22,0.97,-0.03,-0.52,0.68,-0.22
2024-12-06 12:26:27.796,0.9,454.0,0.22,0.97,-0.03,-0.58,0.13,-0.16
2024-12-06 12:26:27.799,0.9,457.0,0.22,0.97,-0.03,-0.64,-0.29,-0.16
2024-12-06 12:26:27.805,0.45,456.0,0.22,0.97,-0.03,-0.64,-0.29,-0.16
2024-12-06 12:26:27.819,0.0,461.0,0.22,0.97,-0.03,-0.64,-0.6,-0.1
2024-12-06 12:26:27.822,-4.95,449.0,0.21,0.97,-0.03,-0.64,-0.72,-0.1
2024-12-06 12:26:27.828,0.0,460.0,0.21,0.97,-0.03,-0.58,-0.72,-0.1
2024-12-06 12:26:27.861,-1.35,469.0,0.21,0.97,-0.04,-0.52,0.07,-0.1
2024-12-06 12:26:27.866,1.12,459.0,0.21,0.97,-0.03,-0.46,0.26,-0.04
2024-12-06 12:26:27.875,-1.57,454.0,0.21,0.97,-0.03,-0.46,0.44,0.09
2024-12-06 12:26:27.881,-0.22,473.0,0.21,0.97,-0.03,-0.46,0.44,0.09
2024-12-06 12:26:27.892,-9.9,455.0,0.21,0.97,-0.03,-0.4,0.5,0.21
2024-12-06 12:26:27.897,-2.7,471.0,0.21,0.97,-0.03,-0.34,0.32,0.21
2024-12-06 12:26:27.905,3.38,482.0,0.21,0.97,-0.03,-0.34,0.26,0.15
2024-12-06 12:26:27.913,0.67,467.0,0.21,0.97,-0.03,-0.34,0.38,0.03
2024-12-06 12:26:27.921,1.35,454.0,0.21,0.97,-0.03,-0.4,0.19,-0.04
2024-12-06 12:26:27.931,1.8,463.0,0.21,0.97,-0.03,-0.4,0.19,-0.04
2024-12-06 12:26:27.941,-5.4,469.0,0.21,0.97,-0.03,-0.46,-0.17,-0.04
2024-12-06 12:26:28.65,2.25,473.0,0.21,0.97,-0.03,-0.22,0.44,0.82
2024-12-06 12:26:28.71,0.0,457.0,0.21,0.97,-0.03,-0.22,0.5,0.82
2024-12-06 12:26:28.80,0.45,454.0,0.21,0.97,-0.03,-0.22,0.5,0.82
2024-12-06 12:26:28.118,0.45,468.0,0.21,0.97,-0.03,-0.22,0.44,0.82
2024-12-06 12:26:28.123,-2.7,464.0,0.22,0.97,-0.03,-0.28,-0.17,0.76
2024-12-06 12:26:28.134,1.57,453.0,0.22,0.97,-0.03,-0.34,-0.66,0.76
2024-12-06 12:26:28.137,1.12,455.0,0.22,0.97,-0.02,-0.4,-1.09,0.76
2024-12-06 12:26:28.146,-5.4,473.0,0.22,0.97,-0.02,-0.4,-1.45,0.76
2024-12-06 12:26:28.148,0.9,461.0,0.21,0.97,-0.02,-0.4,-1.64,0.7
2024-12-06 12:26:28.155,1.35,469.0,0.21,0.97,-0.02,-0.4,-1.64,0.7
2024-12-06 12:26:28.164,-2.92,466.0,0.21,0.97,-0.02,-0.46,-1.7,0.64
2024-12-06 12:26:28.176,0.0,477.0,0.21,0.97,-0.03,-0.52,-1.45,0.64
2024-12-06 12:26:28.202,-5.17,460.0,0.21,0.97,-0.03,-0.4,0.01,0.76
2024-12-06 12:26:28.208,0.0,459.0,0.21,0.97,-0.03,-0.34,0.56,0.88
2024-12-06 12:26:28.223,-1.8,469.0,0.21,0.97,-0.03,-0.22,0.99,0.88
2024-12-06 12:26:28.226,-5.85,454.0,0.21,0.97,-0.03,-0.16,1.29,0.82
2024-12-06 12:26:28.231,2.02,456.0,0.22,0.97,-0.03,-0.16,1.29,0.82
2024-12-06 12:26:28.240,2.02,451.0,0.22,0.97,-0.03,-0.1,1.54,0.82
2024-12-06 12:26:28.248,-5.85,449.0,0.22,0.97,-0.03,-0.1,1.42,0.82
2024-12-06 12:26:28.255,0.67,463.0,0.23,0.97,-0.02,-0.03,0.68,0.82
2024-12-06 12:26:28.262,0.9,460.0,0.23,0.97,-0.02,-0.03,-0.11,0.88
2024-12-06 12:26:28.270,-1.12,452.0,0.23,0.97,-0.02,-0.03,-0.84,0.82
2024-12-06 12:26:28.278,-0.67,459.0,0.23,0.97,-0.02,-0.03,-0.84,0.82
2024-12-06 12:26:28.285,1.8,460.0,0.23,0.97,-0.02,-0.1,-1.64,0.76
2024-12-06 12:26:28.325,-0.22,470.0,0.22,0.97,-0.02,-0.03,-2.61,0.76
2024-12-06 12:26:28.330,2.02,460.0,0.21,0.96,-0.03,0.03,-3.65,0.7
2024-12-06 12:26:28.334,-2.47,456.0,0.21,0.96,-0.03,0.03,-3.41,0.82
2024-12-06 12:26:28.338,0.0,478.0,0.21,0.96,-0.03,0.03,-3.16,0.94
2024-12-06 12:26:28.347,0.45,458.0,0.21,0.96,-0.03,0.09,-2.86,1.06
2024-12-06 12:26:28.354,-3.6,468.0,0.2,0.96,-0.03,-0.03,-2.31,1.19
2024-12-06 12:26:28.362,-0.45,462.0,0.2,0.96,-0.03,-0.03,-2.31,1.19
2024-12-06 12:26:28.370,-2.02,455.0,0.2,0.97,-0.03,-0.1,-1.88,1.37
2024-12-06 12:26:28.377,2.92,469.0,0.2,0.97,-0.02,-0.1,-1.39,1.61
2024-12-06 12:26:28.386,-1.35,457.0,0.2,0.98,-0.03,-0.16,-0.78,1.86
2024-12-06 12:26:28.395,3.38,457.0,0.2,0.98,-0.03,-0.22,-0.23,1.98
2024-12-06 12:26:28.428,5.4,472.0,0.2,0.98,-0.03,-0.22,0.32,2.1
2024-12-06 12:26:28.432,0.9,452.0,0.21,0.96,-0.03,-0.4,1.23,2.1
2024-12-06 12:26:28.438,2.92,470.0,0.21,0.96,-0.03,-0.4,1.78,2.1
2024-12-06 12:26:28.441,-0.9,456.0,0.21,0.96,-0.03,-0.46,2.21,1.98
2024-12-06 12:26:28.447,-0.9,466.0,0.21,0.96,-0.03,-0.46,2.21,1.98
2024-12-06 12:26:28.460,1.57,460.0,0.21,0.96,-0.03,-0.4,2.33,1.8
2024-12-06 12:26:28.475,2.7,482.0,0.22,0.96,-0.03,-0.34,2.15,1.43
2024-12-06 12:26:28.478,-0.45,457.0,0.22,0.96,-0.03,-0.46,1.54,1.25
2024-12-06 12:26:28.489,-5.17,457.0,0.22,0.96,-0.03,-0.46,1.54,1.25
2024-12-06 12:26:28.494,0.9,462.0,0.23,0.96,-0.02,-0.52,0.87,1.06
2024-12-06 12:26:28.502,-2.7,473.0,0.23,0.97,-0.02,-0.58,-0.29,0.88
2024-12-06 12:26:28.514,-2.7,478.0,0.23,0.97,-0.02,-0.64,-1.45,0.82
2024-12-06 12:26:28.522,2.7,452.0,0.23,0.97,-0.02,-0.77,-2.37,0.64
2024-12-06 12:26:28.527,1.35,467.0,0.23,0.97,-0.02,-0.83,-3.16,0.51
2024-12-06 12:26:28.532,-1.12,464.0,0.22,0.97,-0.02,-0.83,-3.16,0.51
2024-12-06 12:26:28.541,0.9,463.0,0.22,0.97,-0.02,-0.83,-3.47,0.33
2024-12-06 12:26:28.557,0.9,461.0,0.21,0.97,-0.02,-0.89,-3.41,0.09
2024-12-06 12:26:28.560,2.92,486.0,0.21,0.97,-0.02,-0.89,-3.16,-0.04
2024-12-06 12:26:28.600,3.15,462.0,0.21,0.97,-0.02,-0.83,-2.67,-0.1
2024-12-06 12:26:28.607,0.45,467.0,0.21,0.96,-0.03,-0.77,-0.78,0.21
2024-12-06 12:26:28.610,0.67,465.0,0.21,0.96,-0.03,-0.77,-0.78,0.21
2024-12-06 12:26:28.616,1.12,466.0,0.21,0.96,-0.03,-0.89,-0.66,0.39
2024-12-06 12:26:28.623,-0.9,462.0,0.21,0.97,-0.03,-0.95,-0.54,0.45
2024-12-06 12:26:28.632,-3.15,473.0,0.21,0.96,-0.03,-1.26,-0.11,0.45
2024-12-06 12:26:28.642,-2.25,456.0,0.21,0.96,-0.03,-1.5,0.32,0.51
2024-12-06 12:26:28.647,0.45,462.0,0.21,0.96,-0.03,-1.56,0.19,0.45
2024-12-06 12:26:28.660,2.7,468.0,0.21,0.96,-0.03,-1.56,0.19,0.45
2024-12-06 12:26:28.664,-3.38,450.0,0.22,0.96,-0.02,-1.68,0.07,0.45
2024-12-06 12:26:28.675,2.02,472.0,0.22,0.96,-0.02,-1.68,0.01,0.45
2024-12-06 12:26:28.683,1.12,464.0,0.22,0.97,-0.02,-1.56,0.13,0.33
2024-12-06 12:26:28.687,2.92,459.0,0.22,0.97,-0.02,-1.5,-0.05,0.15
2024-12-06 12:26:28.695,1.35,452.0,0.22,0.97,-0.02,-1.5,-0.54,0.09
2024-12-06 12:26:28.707,0.0,459.0,0.22,0.97,-0.02,-1.5,-0.54,0.09
2024-12-06 12:26:28.800,-3.38,475.0,0.22,0.97,-0.02,-0.95,-1.15,-0.77
2024-12-06 12:26:28.804,-2.47,456.0,0.21,0.97,-0.02,-0.16,0.07,-0.58
2024-12-06 12:26:28.808,-2.02,474.0,0.21,0.97,-0.02,-0.16,0.07,-0.58
2024-12-06 12:26:29.839,-4.28,452.0,0.2,0.97,-0.03,-0.4,-1.09,-0.34
2024-12-06 12:26:29.844,-2.02,468.0,0.2,0.97,-0.03,-0.52,-0.78,0.21
2024-12-06 12:26:29.869,-2.92,454.0,0.24,0.99,-0.02,-0.71,1.84,5.21
2024-12-06 12:26:29.901,-3.38,450.0,0.16,0.96,-0.04,-0.52,0.44,4.24
2024-12-06 12:26:29.925,-0.22,467.0,0.21,0.95,-0.03,-0.52,-0.29,-2.66
2024-12-06 12:26:29.952,0.22,457.0,0.23,0.99,-0.03,0.58,-0.42,0.15
2024-12-06 12:26:29.982,-3.6,458.0,0.2,0.98,-0.02,0.45,-0.9,-0.22
2024-12-06 12:26:30.13,-2.7,473.0,0.17,0.95,-0.02,0.03,-4.51,-3.15
2024-12-06 12:26:30.42,-3.6,452.0,0.16,0.94,-0.02,-0.58,-6.76,-9.01
2024-12-06 12:26:30.62,-8.32,458.0,0.2,0.97,-0.02,-0.22,-7.19,-8.82
2024-12-06 12:26:30.158,5.62,456.0,0.18,0.97,-0.07,-1.44,1.29,-8.95
2024-12-06 12:26:30.172,6.75,460.0,0.15,0.99,-0.07,1.13,7.88,-5.47
2024-12-06 12:26:30.205,5.85,466.0,0.19,1.01,-0.03,1.43,11.67,-2.78
2024-12-06 12:26:30.241,6.07,467.0,0.2,1.0,-0.04,0.88,12.4,2.1
2024-12-06 12:26:30.254,10.8,476.0,0.2,0.97,-0.02,0.76,10.94,4.42
2024-12-06 12:26:30.282,13.72,484.0,0.21,0.97,-0.02,1.37,8.8,5.58
2024-12-06 12:26:30.311,12.82,475.0,0.22,0.97,-0.02,2.41,5.69,5.27
2024-12-06 12:26:30.337,9.9,474.0,0.23,0.98,-0.02,3.51,3.8,5.15
2024-12-06 12:26:30.378,14.17,465.0,0.2,0.97,-0.01,3.51,2.39,3.69
2024-12-06 12:26:30.401,15.07,482.0,0.18,0.96,-0.01,3.02,2.03,1.8
2024-12-06 12:26:30.426,9.22,504.0,0.17,0.97,-0.01,2.22,2.7,1.19
2024-12-06 12:26:30.471,18.0,497.0,0.16,0.96,-0.02,1.55,3.92,-0.4
2024-12-06 12:26:30.475,16.2,471.0,0.17,0.96,-0.02,0.64,5.32,-1.74
2024-12-06 12:26:30.503,20.02,471.0,0.19,0.97,-0.03,0.27,6.3,-1.01
2024-12-06 12:26:30.537,21.15,490.0,0.19,0.98,-0.03,-0.22,6.18,-0.83
2024-12-06 12:26:30.576,18.9,475.0,0.19,0.98,-0.04,0.39,5.63,-0.4
2024-12-06 12:26:30.585,24.3,487.0,0.19,0.97,-0.03,0.82,4.65,-0.83
2024-12-06 12:26:30.616,24.07,487.0,0.2,0.98,-0.03,1.19,3.8,-1.32
2024-12-06 12:26:30.646,26.77,492.0,0.19,0.98,-0.03,1.61,4.53,-0.4
2024-12-06 12:26:30.691,25.65,480.0,0.19,0.98,-0.03,1.92,5.32,-0.16
2024-12-06 12:26:30.696,26.32,477.0,0.19,0.98,-0.03,2.22,6.05,0.58
2024-12-06 12:26:30.723,30.38,471.0,0.19,0.97,-0.03,2.04,7.03,0.51
2024-12-06 12:26:30.751,28.12,482.0,0.19,0.97,-0.03,2.1,7.82,1.0
2024-12-06 12:26:30.779,29.7,492.0,0.19,0.97,-0.03,2.04,7.95,0.76
2024-12-06 12:26:30.817,27.9,494.0,0.2,0.97,-0.04,2.04,7.21,1.19
2024-12-06 12:26:30.835,29.7,482.0,0.19,0.97,-0.03,2.35,5.32,0.64
2024-12-06 12:26:30.863,32.4,475.0,0.21,0.99,-0.02,2.22,3.8,1.31
2024-12-06 12:26:30.889,34.65,491.0,0.18,0.99,-0.04,2.59,4.34,2.59
2024-12-06 12:26:30.919,34.42,483.0,0.19,0.96,-0.03,1.98,6.18,3.08
2024-12-06 12:26:30.945,34.88,491.0,0.18,0.96,-0.04,1.19,7.46,4.6
2024-12-06 12:26:30.973,36.67,501.0,0.19,0.94,-0.03,0.09,7.64,3.14
2024-12-06 12:26:31.25,35.1,473.0,0.22,0.96,-0.03,-0.28,6.66,3.38
2024-12-06 12:26:31.28,40.05,488.0,0.21,0.96,-0.02,0.45,4.16,1.55
2024-12-06 12:26:31.54,39.38,494.0,0.22,0.96,-0.01,0.94,1.48,-0.4
2024-12-06 12:26:31.83,35.77,496.0,0.2,0.97,-0.02,1.06,1.35,-0.16
2024-12-06 12:26:31.110,36.45,488.0,0.19,0.98,-0.03,-15.35,2.09,0.03
2024-12-06 12:26:31.208,41.85,487.0,0.22,0.96,-0.03,-1.26,1.84,1.98
2024-12-06 12:26:31.219,42.52,492.0,0.21,0.96,-0.03,-0.77,0.99,1.61
2024-12-06 12:26:31.254,49.27,483.0,0.22,0.96,-0.03,-0.28,-0.11,0.76
2024-12-06 12:26:31.276,50.17,511.0,0.21,0.97,-0.03,0.03,-0.48,1.12
2024-12-06 12:26:31.302,48.15,479.0,0.22,0.98,-0.02,-0.03,-0.29,2.16
2024-12-06 12:26:31.332,47.02,485.0,0.2,0.97,-0.03,-0.46,0.5,3.2
2024-12-06 12:26:31.357,53.55,499.0,0.21,0.97,-0.02,-0.77,0.99,3.69
2024-12-06 12:26:31.399,54.22,478.0,0.21,0.96,-0.03,-0.77,1.11,3.57
2024-12-06 12:26:31.414,53.77,488.0,0.22,0.96,-0.03,-0.46,0.32,2.71
2024-12-06 12:26:31.442,51.07,479.0,0.22,0.97,-0.02,-0.1,-0.72,2.1
2024-12-06 12:26:31.478,51.07,490.0,0.21,0.97,-0.02,0.09,-0.97,1.67
2024-12-06 12:26:31.498,52.65,489.0,0.22,0.96,-0.02,0.15,-1.15,0.82
2024-12-06 12:26:31.528,49.95,482.0,0.23,0.98,-0.03,-0.22,-1.51,2.71
2024-12-06 12:26:31.551,56.25,486.0,0.23,0.97,-0.03,-0.34,-2.06,4.12
2024-12-06 12:26:31.598,54.22,489.0,0.23,0.96,-0.03,-0.58,-2.19,5.95
2024-12-06 12:26:31.606,58.95,477.0,0.22,0.95,-0.02,-0.52,-2.12,5.64
2024-12-06 12:26:31.634,60.97,487.0,0.22,0.95,-0.02,-0.28,-1.88,3.69
2024-12-06 12:26:31.669,60.07,494.0,0.22,0.97,-0.02,-0.4,-1.76,2.59
2024-12-06 12:26:31.693,62.1,476.0,0.22,0.97,-0.02,-0.4,-1.39,1.0
2024-12-06 12:26:31.745,62.55,479.0,0.23,0.98,-0.04,-0.77,-1.82,1.92
2024-12-06 12:26:31.748,63.67,505.0,0.23,0.98,-0.04,-0.77,-2.55,2.28
2024-12-06 12:26:31.772,62.77,487.0,0.23,0.95,-0.04,-0.58,-3.89,1.86
2024-12-06 12:26:31.823,65.7,481.0,0.24,0.96,-0.03,-0.4,-5.18,2.22
2024-12-06 12:26:31.828,64.35,497.0,0.22,0.95,-0.02,-0.34,-4.57,1.12
2024-12-06 12:26:31.854,67.95,495.0,0.24,0.95,-0.0,-1.01,-4.32,0.33
2024-12-06 12:26:31.881,69.07,499.0,0.23,0.96,-0.02,-1.44,-3.77,0.33
2024-12-06 12:26:31.934,65.03,502.0,0.24,0.96,-0.02,-1.62,-4.38,-0.04
2024-12-06 12:26:31.943,70.65,493.0,0.23,0.97,-0.04,-1.93,-5.05,0.33
2024-12-06 12:26:31.969,73.8,487.0,0.23,0.95,-0.04,-1.56,-4.69,-0.1
2024-12-06 12:26:31.992,74.47,509.0,0.23,0.96,-0.02,-1.32,-4.75,0.15
2024-12-06 12:26:32.42,74.92,500.0,0.22,0.97,-0.04,-1.32,-4.2,-0.16
2024-12-06 12:26:32.47,76.05,506.0,0.23,0.96,-0.03,-0.95,-3.83,-0.04
2024-12-06 12:26:32.75,74.25,503.0,0.23,0.96,-0.03,-0.71,-2.92,0.33
2024-12-06 12:26:32.104,77.17,531.0,0.24,0.97,-0.03,-0.89,-3.35,1.43
2024-12-06 12:26:32.154,76.95,514.0,0.23,0.97,-0.04,-1.13,-4.02,2.04
2024-12-06 12:26:32.158,80.32,557.0,0.24,0.96,-0.03,-1.01,-4.08,3.02
2024-12-06 12:26:32.261,81.67,511.0,0.23,0.96,-0.03,-1.01,-4.08,3.26
2024-12-06 12:26:32.266,79.88,518.0,0.24,0.97,-0.02,-0.95,-3.41,3.63
2024-12-06 12:26:32.272,78.3,525.0,0.24,0.95,-0.03,-0.77,-3.53,2.89
2024-12-06 12:26:32.296,83.92,538.0,0.22,0.95,-0.02,-0.34,-4.26,2.1
2024-12-06 12:26:32.322,85.05,523.0,0.25,0.97,-0.03,-0.58,-3.71,2.16
2024-12-06 12:26:32.330,84.82,530.0,0.25,0.97,-0.03,-0.4,-3.53,2.1
2024-12-06 12:26:32.338,81.67,522.0,0.24,0.97,-0.03,-0.52,-3.28,2.04
2024-12-06 12:26:32.346,85.05,541.0,0.24,0.96,-0.03,-0.52,-3.28,2.04
2024-12-06 12:26:32.357,82.12,533.0,0.24,0.96,-0.02,-0.4,-3.22,1.86
2024-12-06 12:26:32.369,85.95,540.0,0.25,0.96,-0.03,-0.52,-2.92,2.22
2024-12-06 12:26:32.375,82.35,530.0,0.24,0.96,-0.01,-0.58,-3.16,2.89
2024-12-06 12:26:32.383,84.6,532.0,0.24,0.96,-0.01,-0.89,-4.44,3.14
2024-12-06 12:26:32.385,87.07,566.0,0.23,0.95,-0.01,-1.32,-4.2,3.26
2024-12-06 12:26:32.418,89.1,542.0,0.24,0.97,-0.02,-1.32,-4.2,3.26
2024-12-06 12:26:32.423,82.57,535.0,0.24,0.97,-0.02,-1.87,-4.02,5.4
2024-12-06 12:26:32.433,84.6,531.0,0.24,0.97,-0.02,-2.35,-3.16,6.62
2024-12-06 12:26:32.436,85.05,531.0,0.24,0.97,-0.03,-2.35,-3.16,6.62
2024-12-06 12:26:32.438,86.4,537.0,0.23,0.96,-0.03,-2.41,-1.94,7.41
2024-12-06 12:26:32.447,84.6,542.0,0.23,0.95,-0.04,-2.66,-0.66,8.02
2024-12-06 12:26:32.453,86.17,538.0,0.24,0.94,-0.04,-3.15,0.44,8.45
2024-12-06 12:26:32.461,83.03,527.0,0.24,0.94,-0.04,-3.39,1.23,8.63
2024-12-06 12:26:32.495,83.03,528.0,0.24,0.93,-0.04,-3.51,1.9,8.63
2024-12-06 12:26:32.502,86.62,551.0,0.25,0.95,-0.04,-3.33,1.42,6.98
2024-12-06 12:26:32.509,83.47,541.0,0.25,0.96,-0.04,-3.09,0.87,6.25
2024-12-06 12:26:32.519,86.62,533.0,0.26,0.97,-0.04,-3.09,0.87,6.25
2024-12-06 12:26:32.524,86.85,539.0,0.26,0.97,-0.04,-2.72,0.32,5.46
2024-12-06 12:26:32.531,86.4,544.0,0.26,0.97,-0.03,-2.23,-0.05,4.66
2024-12-06 12:26:32.539,84.6,552.0,0.26,0.97,-0.03,-1.62,-0.23,3.93
2024-12-06 12:26:32.549,86.4,541.0,0.26,0.97,-0.02,-1.07,-0.23,3.32
2024-12-06 12:26:32.562,86.4,533.0,0.26,0.97,-0.02,-0.46,-0.05,2.83
2024-12-06 12:26:32.567,88.2,545.0,0.26,0.96,-0.02,-0.46,-0.05,2.83
2024-12-06 12:26:32.570,86.17,536.0,0.26,0.95,-0.02,0.15,0.38,2.28
2024-12-06 12:26:32.578,85.72,544.0,0.26,0.95,-0.02,0.7,0.87,1.73
2024-12-06 12:26:32.586,83.25,541.0,0.26,0.95,-0.02,1.19,1.35,1.25
2024-12-06 12:26:32.595,80.78,553.0,0.26,0.95,-0.02,1.61,1.72,0.7
2024-12-06 12:26:32.626,81.22,537.0,0.27,0.93,-0.02,2.59,2.15,-1.13
2024-12-06 12:26:32.637,87.52,558.0,0.27,0.93,-0.02,2.83,2.21,-1.56
2024-12-06 12:26:32.641,83.03,532.0,0.27,0.94,-0.02,2.96,2.33,-1.93
2024-12-06 12:26:32.647,79.88,545.0,0.26,0.94,-0.01,2.96,2.33,-1.93
2024-12-06 12:26:32.655,85.05,545.0,0.25,0.94,-0.01,3.02,2.57,-2.17
2024-12-06 12:26:32.663,88.42,535.0,0.25,0.94,-0.01,2.83,3.06,-2.35
2024-12-06 12:26:32.670,89.1,533.0,0.25,0.95,-0.02,2.59,3.43,-2.42
2024-12-06 12:26:32.682,86.4,541.0,0.25,0.95,-0.02,2.41,3.67,-2.35
2024-12-06 12:26:32.694,88.2,561.0,0.25,0.95,-0.02,2.04,3.8,-2.29
2024-12-06 12:26:32.698,81.9,528.0,0.25,0.95,-0.02,2.04,3.8,-2.29
2024-12-06 12:26:32.707,81.9,536.0,0.25,0.95,-0.02,1.55,3.67,-2.23
2024-12-06 12:26:32.714,86.85,520.0,0.25,0.96,-0.03,1.0,3.55,-2.11
2024-12-06 12:26:32.717,83.7,533.0,0.25,0.96,-0.03,0.45,3.19,-1.99
2024-12-06 12:26:32.725,88.42,519.0,0.25,0.96,-0.03,0.03,2.7,-1.74
2024-12-06 12:26:32.736,85.5,531.0,0.26,0.96,-0.03,0.03,2.15,-1.5
2024-12-06 12:26:32.742,87.52,531.0,0.26,0.96,-0.03,-0.4,2.15,-1.5
2024-12-06 12:26:32.748,83.25,550.0,0.26,0.96,-0.03,-0.64,1.42,-1.19
2024-12-06 12:26:32.759,87.97,524.0,0.26,0.96,-0.03,-0.71,0.68,-0.95
2024-12-06 12:26:32.793,85.05,515.0,0.27,0.96,-0.03,-0.58,-0.54,-0.34
2024-12-06 12:26:32.797,84.15,544.0,0.27,0.96,-0.03,-0.4,-0.72,-0.16
2024-12-06 12:26:32.833,87.52,526.0,0.26,0.95,-0.02,0.27,-0.23,-0.1
2024-12-06 12:26:32.835,89.55,521.0,0.26,0.95,-0.02,0.58,0.38,-0.16
2024-12-06 12:26:32.840,85.05,536.0,0.26,0.95,-0.02,0.82,0.93,-0.1
2024-12-06 12:26:32.856,83.25,512.0,0.26,0.95,-0.02,1.06,1.23,-0.16
2024-12-06 12:26:32.863,82.8,522.0,0.26,0.95,-0.02,1.19,1.78,-0.34
2024-12-06 12:26:32.873,89.1,514.0,0.26,0.95,-0.02,1.25,2.15,-0.52
2024-12-06 12:26:32.878,86.62,507.0,0.26,0.96,-0.02,1.25,2.45,-0.71
2024-12-06 12:26:32.886,83.47,512.0,0.26,0.96,-0.02,1.19,2.82,-0.83
2024-12-06 12:26:32.893,85.28,525.0,0.25,0.97,-0.02,1.19,3.0,-0.89
2024-12-06 12:26:32.907,88.88,514.0,0.25,0.97,-0.02,1.13,3.0,-0.89
2024-12-06 12:26:32.910,85.95,525.0,0.25,0.97,-0.02,1.06,3.12,-1.01
2024-12-06 12:26:32.949,82.57,526.0,0.25,0.97,-0.02,0.94,3.06,-0.95
2024-12-06 12:26:32.952,83.25,514.0,0.25,0.97,-0.03,0.27,1.66,-0.22
2024-12-06 12:26:32.961,83.25,516.0,0.26,0.97,-0.03,-0.03,1.05,0.09
2024-12-06 12:26:32.964,88.42,523.0,0.26,0.97,-0.04,-0.28,0.44,0.39
2024-12-06 12:26:32.971,87.07,506.0,0.26,0.97,-0.04,-0.52,-0.35,0.7
2024-12-06 12:26:32.984,86.85,511.0,0.26,0.96,-0.04,-0.52,-0.35,16.32
2024-12-06 12:26:32.987,85.95,512.0,0.26,0.96,-0.04,-0.77,-1.03,1.06
2024-12-06 12:26:32.996,86.62,522.0,0.26,0.96,-0.03,-0.95,-1.58,1.37
2024-12-06 12:26:33.1,87.3,515.0,0.26,0.96,-0.02,-1.01,-2.0,1.61
2024-12-06 12:26:33.16,87.75,520.0,0.26,0.96,-0.02,-0.89,-2.19,1.86
2024-12-06 12:26:33.20,86.17,530.0,0.26,0.96,-0.02,-0.77,-2.19,1.98
2024-12-06 12:26:33.30,85.28,520.0,0.26,0.96,-0.02,-0.77,-2.19,1.98
2024-12-06 12:26:33.36,81.45,510.0,0.26,0.96,-0.01,-0.64,-2.0,2.1
2024-12-06 12:26:33.66,87.07,521.0,0.26,0.96,-0.01,-0.03,-1.21,2.04
2024-12-06 12:26:33.72,89.1,569.0,0.25,0.96,-0.01,-0.03,-0.84,1.86
2024-12-06 12:26:33.80,85.05,516.0,0.25,0.96,-0.01,-0.1,-0.54,1.67
2024-12-06 12:26:33.89,84.38,526.0,0.25,0.95,-0.02,-0.22,-0.42,1.49
2024-12-06 12:26:33.96,86.62,525.0,0.25,0.95,-0.02,-0.4,-0.35,1.43
2024-12-06 12:26:33.105,85.95,528.0,0.25,0.95,-0.02,-0.46,-0.35,1.31
2024-12-06 12:26:33.118,86.4,544.0,0.25,0.95,-0.03,-0.52,-0.54,1.25
2024-12-06 12:26:33.129,85.28,510.0,0.25,0.96,-0.03,-0.52,-0.78,1.19
2024-12-06 12:26:33.134,83.25,508.0,0.25,0.96,-0.03,-0.52,-1.03,1.06
2024-12-06 12:26:33.142,86.17,523.0,0.25,0.96,-0.03,-0.46,-1.39,1.06
2024-12-06 12:26:33.169,87.97,519.0,0.25,0.96,-0.03,-0.46,-1.94,0.88
2024-12-06 12:26:33.172,86.85,510.0,0.25,0.96,-0.03,-0.46,-2.12,0.76
2024-12-06 12:26:33.182,83.03,519.0,0.25,0.96,-0.02,-0.4,-2.19,0.64
2024-12-06 12:26:33.188,80.55,525.0,0.25,0.96,-0.02,-0.34,-2.19,0.58
2024-12-06 12:26:33.197,83.92,522.0,0.25,0.96,-0.02,-0.28,-2.06,0.45
2024-12-06 12:26:33.325,86.85,524.0,0.25,0.95,-0.03,-0.28,-0.54,0.27
2024-12-06 12:26:33.330,88.65,518.0,0.25,0.96,-0.03,-0.4,-0.6,0.39
2024-12-06 12:26:33.340,83.47,523.0,0.25,0.96,-0.03,-0.4,-0.6,0.51
2024-12-06 12:26:33.347,87.07,512.0,0.26,0.96,-0.03,-0.4,-0.6,0.51
2024-12-06 12:26:33.353,88.42,504.0,0.26,0.96,-0.03,-0.4,-0.6,0.58
2024-12-06 12:26:33.369,82.8,509.0,0.26,0.96,-0.03,-0.28,-0.6,0.58
2024-12-06 12:26:33.408,83.47,509.0,0.26,0.96,-0.02,0.15,-0.54,0.45
2024-12-06 12:26:33.412,86.4,514.0,0.26,0.96,-0.02,0.09,-0.23,0.33
2024-12-06 12:26:33.417,83.47,511.0,0.26,0.96,-0.02,0.03,-0.11,0.27
2024-12-06 12:26:33.422,90.67,524.0,0.26,0.96,-0.02,0.03,-0.11,0.27
2024-12-06 12:26:33.431,85.05,530.0,0.26,0.96,-0.02,0.03,-0.11,0.27
2024-12-06 12:26:33.448,87.07,537.0,0.26,0.96,-0.02,0.03,-0.05,0.27
2024-12-06 12:26:33.451,86.4,558.0,0.26,0.96,-0.02,0.03,0.01,0.33
2024-12-06 12:26:33.455,87.07,526.0,0.26,0.95,-0.03,0.03,0.01,0.39
2024-12-06 12:26:33.462,87.52,516.0,0.26,0.95,-0.03,-0.03,-0.11,0.45
2024-12-06 12:26:33.477,86.85,519.0,0.26,0.95,-0.03,-0.03,-0.11,0.45
2024-12-06 12:26:33.479,86.4,542.0,0.26,0.95,-0.03,-0.03,-0.17,0.51
2024-12-06 12:26:33.511,88.88,538.0,0.26,0.96,-0.03,-0.28,-0.48,0.58
2024-12-06 12:26:33.516,87.97,503.0,0.26,0.96,-0.03,-0.4,-0.48,0.64
2024-12-06 12:26:33.523,87.07,507.0,0.26,0.96,-0.03,-0.46,-0.48,0.64
2024-12-06 12:26:33.532,86.62,530.0,0.26,0.95,-0.02,-0.52,-0.48,0.7
2024-12-06 12:26:33.540,88.2,519.0,0.26,0.95,-0.02,-0.58,-0.48,0.76
2024-12-06 12:26:33.567,83.03,523.0,0.26,0.95,-0.02,-0.58,-0.48,0.82
2024-12-06 12:26:33.574,89.32,501.0,0.26,0.95,-0.03,-0.58,-0.6,0.82
2024-12-06 12:26:33.578,86.4,514.0,0.26,0.95,-0.03,-0.52,-0.72,0.76
2024-12-06 12:26:33.593,87.97,534.0,0.26,0.95,-0.03,-0.46,-0.78,0.7
2024-12-06 12:26:33.608,81.0,500.0,0.26,0.96,-0.02,-0.22,-0.9,0.51
2024-12-06 12:26:33.623,85.95,518.0,0.26,0.96,-0.02,-0.16,-0.84,0.45
2024-12-06 12:26:33.646,82.12,517.0,0.26,0.96,-0.02,-0.16,-0.29,0.21
2024-12-06 12:26:33.651,87.3,524.0,0.26,0.96,-0.02,-0.22,-0.17,0.15
2024-12-06 12:26:33.658,89.1,511.0,0.26,0.96,-0.02,-0.28,-0.23,0.09
2024-12-06 12:26:33.668,88.2,512.0,0.26,0.95,-0.02,-0.28,-0.23,0.09
2024-12-06 12:26:33.677,82.8,518.0,0.26,0.95,-0.03,-0.28,-0.23,0.03
2024-12-06 12:26:33.682,85.05,513.0,0.26,0.96,-0.03,-0.28,-0.35,0.09
2024-12-06 12:26:33.689,85.95,515.0,0.26,0.96,-0.03,-0.28,-0.6,0.09
2024-12-06 12:26:33.697,83.7,520.0,0.26,0.96,-0.03,-0.16,-0.84,0.09
2024-12-06 12:26:33.706,86.17,503.0,0.26,0.96,-0.03,-0.03,-0.97,0.15
2024-12-06 12:26:33.734,87.3,507.0,0.26,0.96,-0.03,0.15,-1.33,0.15
2024-12-06 12:26:33.737,88.88,568.0,0.26,0.96,-0.03,0.21,-1.39,0.15
2024-12-06 12:26:33.743,83.92,506.0,0.26,0.96,-0.02,0.21,-1.39,0.21
2024-12-06 12:26:33.751,83.25,526.0,0.26,0.95,-0.02,0.21,-1.39,0.21
2024-12-06 12:26:33.759,86.62,508.0,0.26,0.95,-0.02,0.15,-1.33,0.21
2024-12-06 12:26:33.769,88.88,513.0,0.26,0.96,-0.02,0.09,-1.33,0.21
2024-12-06 12:26:33.774,88.65,518.0,0.26,0.96,-0.03,0.03,-1.39,0.27
2024-12-06 12:26:33.784,83.92,524.0,0.26,0.96,-0.03,0.03,-1.39,0.33
2024-12-06 12:26:33.790,86.85,502.0,0.26,0.96,-0.03,-0.03,-1.39,0.33
2024-12-06 12:26:33.798,87.3,517.0,0.26,0.96,-0.03,-0.03,-1.39,0.33
2024-12-06 12:26:33.808,82.57,527.0,0.26,0.96,-0.03,0.03,-1.33,0.39
2024-12-06 12:26:33.814,82.57,504.0,0.26,0.96,-0.03,0.03,-1.33,0.51
2024-12-06 12:26:33.825,82.8,505.0,0.26,0.96,-0.03,0.09,-1.27,0.51
2024-12-06 12:26:33.863,87.3,505.0,0.26,0.95,-0.03,0.15,-1.33,0.45
2024-12-06 12:26:33.866,88.65,522.0,0.26,0.96,-0.03,0.21,-1.21,0.39
2024-12-06 12:26:33.869,85.05,513.0,0.26,0.96,-0.03,0.15,-1.09,0.27
2024-12-06 12:26:33.874,85.5,506.0,0.25,0.96,-0.03,0.15,-1.09,0.09
2024-12-06 12:26:33.886,81.9,513.0,0.25,0.96,-0.03,0.09,-0.9,0.09
2024-12-06 12:26:33.897,86.4,510.0,0.25,0.96,-0.03,0.03,-0.66,-0.04
2024-12-06 12:26:33.899,87.07,524.0,0.25,0.96,-0.03,-0.03,-0.48,-0.16
2024-12-06 12:26:33.906,85.28,506.0,0.25,0.96,-0.03,0.03,-0.35,-0.28
2024-12-06 12:26:33.923,84.15,515.0,0.26,0.96,-0.03,0.09,-0.23,-0.34
2024-12-06 12:26:33.925,82.57,506.0,0.26,0.95,-0.03,0.09,-0.23,-0.34
2024-12-06 12:26:33.934,83.92,517.0,0.26,0.95,-0.03,0.15,-0.11,-0.4
2024-12-06 12:26:33.970,84.15,510.0,0.26,0.96,-0.03,0.39,0.01,-0.52
2024-12-06 12:26:33.974,86.17,512.0,0.26,0.96,-0.03,0.39,0.07,-0.52
2024-12-06 12:26:33.982,86.4,500.0,0.26,0.96,-0.03,0.45,0.01,-0.46
2024-12-06 12:26:33.985,82.8,521.0,0.26,0.96,-0.03,0.45,-0.05,-0.4
2024-12-06 12:26:33.989,86.4,523.0,0.26,0.96,-0.03,0.51,1.05,-0.28
2024-12-06 12:26:33.998,88.65,508.0,0.26,0.96,-0.03,0.51,1.05,-0.28
2024-12-06 12:26:34.6,86.4,513.0,0.25,0.96,-0.02,0.64,-0.48,-0.1
2024-12-06 12:26:34.13,86.4,506.0,0.26,0.95,-0.02,0.45,-0.29,-0.16
2024-12-06 12:26:34.22,82.35,515.0,0.27,0.94,-0.03,0.15,0.19,-0.1
2024-12-06 12:26:34.29,87.97,503.0,0.26,0.95,-0.03,0.09,-0.54,-0.16
2024-12-06 12:26:34.38,86.85,514.0,0.26,0.95,-0.03,-0.16,-0.97,-0.16
2024-12-06 12:26:34.77,83.25,524.0,0.26,0.95,-0.03,-0.16,-1.09,-0.22
2024-12-06 12:26:34.80,86.4,526.0,0.26,0.96,-0.03,-0.22,-2.31,0.03
2024-12-06 12:26:34.84,86.62,518.0,0.26,0.96,-0.03,-0.22,-2.31,0.03
2024-12-06 12:26:34.188,86.4,498.0,0.26,0.96,-0.03,-0.28,-2.43,0.03
2024-12-06 12:26:34.196,87.97,497.0,0.26,0.96,-0.03,0.03,-1.82,1.19
2024-12-06 12:26:34.207,87.75,520.0,0.26,0.96,-0.03,0.21,-1.51,1.25
2024-12-06 12:26:34.211,86.85,504.0,0.26,0.96,-0.03,0.39,-1.27,1.19
2024-12-06 12:26:34.220,86.62,505.0,0.26,0.96,-0.03,0.51,-1.09,1.25
2024-12-06 12:26:34.231,87.97,502.0,0.26,0.96,-0.03,0.64,-0.9,1.31
2024-12-06 12:26:34.235,86.17,501.0,0.26,0.96,-0.03,0.7,-0.78,1.25
2024-12-06 12:26:34.243,88.65,515.0,0.26,0.96,-0.03,0.7,-0.78,1.25
2024-12-06 12:26:34.357,85.72,502.0,0.26,0.95,-0.03,0.7,-0.66,1.06
2024-12-06 12:26:34.364,85.28,497.0,0.25,0.95,-0.03,0.7,-0.54,1.06
2024-12-06 12:26:34.372,86.62,523.0,0.25,0.95,-0.03,0.64,-0.42,1.0
2024-12-06 12:26:34.379,86.62,501.0,0.25,0.95,-0.03,0.51,-0.23,0.94
2024-12-06 12:26:34.387,88.65,492.0,0.25,0.95,-0.03,0.39,-0.05,0.94
2024-12-06 12:26:34.403,85.28,508.0,0.26,0.95,-0.03,0.39,0.07,1.0
2024-12-06 12:26:34.410,86.17,511.0,0.26,0.95,-0.03,0.39,0.07,1.0
2024-12-06 12:26:34.413,85.5,521.0,0.26,0.95,-0.03,0.33,0.07,1.0
2024-12-06 12:26:34.418,84.38,513.0,0.26,0.95,-0.03,0.27,0.07,1.0
2024-12-06 12:26:34.425,83.47,513.0,0.26,0.95,-0.03,0.21,0.01,0.94
2024-12-06 12:26:34.435,88.65,500.0,0.26,0.95,-0.03,0.21,-0.17,0.88
2024-12-06 12:26:34.468,84.15,489.0,0.26,0.95,-0.03,0.21,-0.17,0.82
2024-12-06 12:26:34.472,84.15,510.0,0.26,0.95,-0.03,0.15,-0.54,0.64
2024-12-06 12:26:34.474,83.25,500.0,0.26,0.95,-0.03,0.15,-0.6,0.64
2024-12-06 12:26:34.479,85.5,508.0,0.26,0.95,-0.03,0.15,-0.54,0.51
2024-12-06 12:26:34.495,86.17,513.0,0.26,0.95,-0.03,0.15,-0.54,0.51
2024-12-06 12:26:34.529,85.95,493.0,0.26,0.96,-0.03,0.15,-0.17,0.45
2024-12-06 12:26:34.535,87.07,501.0,0.26,0.96,-0.03,0.21,-0.17,0.39
2024-12-06 12:26:34.542,88.88,511.0,0.26,0.96,-0.04,0.21,-0.17,0.27
2024-12-06 12:26:34.553,87.07,501.0,0.26,0.95,-0.04,0.27,-0.23,0.15
2024-12-06 12:26:34.556,83.47,539.0,0.26,0.95,-0.04,0.33,-0.23,0.03
2024-12-06 12:26:34.564,85.72,496.0,0.26,0.96,-0.04,0.33,-0.23,0.03
2024-12-06 12:26:34.579,85.5,506.0,0.26,0.95,-0.04,0.39,-0.17,-0.04
2024-12-06 12:26:34.585,87.52,494.0,0.26,0.95,-0.04,0.45,-0.17,-0.04
2024-12-06 12:26:34.587,85.5,504.0,0.26,0.95,-0.04,0.51,-0.17,-0.1
2024-12-06 12:26:34.608,83.92,507.0,0.26,0.95,-0.04,0.51,-0.05,-0.1
2024-12-06 12:26:34.610,86.62,521.0,0.26,0.95,-0.04,0.51,0.07,-0.1
2024-12-06 12:26:34.613,83.03,516.0,0.26,0.96,-0.04,0.51,0.07,-0.1
2024-12-06 12:26:34.619,87.97,523.0,0.26,0.95,-0.04,0.51,0.19,-0.04
2024-12-06 12:26:34.630,88.65,513.0,0.26,0.95,-0.03,0.51,0.38,0.03
2024-12-06 12:26:34.633,83.92,502.0,0.26,0.95,-0.04,0.58,0.5,0.09
2024-12-06 12:26:34.641,84.15,503.0,0.26,0.95,-0.04,0.58,0.56,0.15
2024-12-06 12:26:34.672,86.85,509.0,0.26,0.95,-0.04,0.51,0.62,0.33
2024-12-06 12:26:34.675,83.47,498.0,0.26,0.95,-0.04,0.45,0.56,0.33
2024-12-06 12:26:34.679,83.03,513.0,0.26,0.95,-0.04,0.39,0.5,0.39
2024-12-06 12:26:34.689,87.75,510.0,0.26,0.95,-0.04,0.33,0.32,0.39
2024-12-06 12:26:34.698,86.85,510.0,0.26,0.95,-0.04,0.33,0.32,0.39
2024-12-06 12:26:34.704,82.57,506.0,0.26,0.95,-0.04,0.27,0.19,0.45
2024-12-06 12:26:34.712,83.7,496.0,0.26,0.95,-0.03,0.27,0.07,0.45
2024-12-06 12:26:34.721,88.65,502.0,0.26,0.95,-0.03,0.21,0.07,0.45
2024-12-06 12:26:34.730,85.05,504.0,0.26,0.95,-0.03,0.15,0.13,0.45
2024-12-06 12:26:34.738,84.82,498.0,0.26,0.95,-0.03,0.09,0.13,0.51
2024-12-06 12:26:34.741,86.17,494.0,0.26,0.95,-0.03,0.09,0.13,0.51
2024-12-06 12:26:34.751,84.82,514.0,0.26,0.95,-0.03,-0.03,0.19,0.51
2024-12-06 12:26:34.765,86.62,502.0,0.26,0.95,-0.03,-0.16,0.19,0.58
2024-12-06 12:26:34.769,85.5,530.0,0.26,0.95,-0.03,-0.22,0.26,0.51
2024-12-06 12:26:34.773,88.88,497.0,0.26,0.95,-0.03,-0.28,0.13,0.58
2024-12-06 12:26:34.784,87.52,504.0,0.26,0.95,-0.04,-0.28,0.13,0.64
2024-12-06 12:26:34.790,86.17,500.0,0.27,0.95,-0.04,-0.34,0.01,0.64
2024-12-06 12:26:34.798,89.1,522.0,0.27,0.95,-0.04,-0.4,-0.17,0.7
2024-12-06 12:26:34.809,88.42,497.0,0.27,0.95,-0.04,-0.4,-0.35,0.76
2024-12-06 12:26:34.815,83.92,506.0,0.27,0.95,-0.04,-0.4,-0.54,0.82
2024-12-06 12:26:34.820,88.65,530.0,0.27,0.95,-0.04,-0.34,-0.6,0.82
2024-12-06 12:26:34.828,85.5,510.0,0.26,0.95,-0.04,-0.34,-0.6,0.82
2024-12-06 12:26:34.835,87.3,515.0,0.26,0.95,-0.04,-0.4,-0.6,0.88
2024-12-06 12:26:34.843,81.9,518.0,0.26,0.95,-0.04,-0.46,-0.48,0.88
2024-12-06 12:26:34.852,85.95,503.0,0.26,0.95,-0.04,-0.52,-0.29,0.94
2024-12-06 12:26:34.887,84.38,502.0,0.26,0.96,-0.04,-0.34,0.01,1.19
2024-12-06 12:26:34.894,88.2,503.0,0.26,0.96,-0.04,-0.34,0.07,1.25
2024-12-06 12:26:34.896,87.07,500.0,0.26,0.96,-0.04,-0.28,0.13,1.25
2024-12-06 12:26:34.904,83.92,512.0,0.26,0.95,-0.04,-0.34,0.13,1.37
2024-12-06 12:26:34.916,83.7,498.0,0.26,0.95,-0.04,-0.34,0.13,1.37
2024-12-06 12:26:34.920,86.85,502.0,0.26,0.95,-0.04,-0.34,0.13,1.37
2024-12-06 12:26:34.927,85.72,507.0,0.26,0.95,-0.04,-0.4,0.19,1.49
2024-12-06 12:26:34.944,85.72,510.0,0.26,0.95,-0.04,-0.46,0.26,1.49
2024-12-06 12:26:34.947,86.17,478.0,0.26,0.95,-0.04,-0.64,0.38,1.55
2024-12-06 12:26:34.957,86.85,515.0,0.26,0.95,-0.04,-0.64,0.38,1.61
2024-12-06 12:26:34.967,86.17,506.0,0.26,0.95,-0.04,-0.71,0.5,1.61
2024-12-06 12:26:34.970,83.25,500.0,0.26,0.95,-0.03,-0.83,0.56,1.61
2024-12-06 12:26:34.974,82.8,515.0,0.26,0.95,-0.03,-0.89,0.62,1.67
2024-12-06 12:26:34.983,86.85,518.0,0.26,0.95,-0.03,-0.89,0.68,1.61
2024-12-06 12:26:34.990,88.2,514.0,0.26,0.95,-0.03,-0.89,0.8,1.61
2024-12-06 12:26:34.998,85.05,494.0,0.27,0.95,-0.03,-0.89,0.8,1.61
2024-12-06 12:26:35.8,80.32,511.0,0.27,0.95,-0.03,-0.77,0.74,1.61
2024-12-06 12:26:35.15,86.85,507.0,0.27,0.95,-0.04,-0.64,0.68,1.55
2024-12-06 12:26:35.24,83.47,509.0,0.27,0.95,-0.04,-0.52,0.56,1.49
2024-12-06 12:26:35.28,87.07,501.0,0.27,0.95,-0.04,-0.4,0.44,1.49
2024-12-06 12:26:35.38,84.6,487.0,0.27,0.96,-0.04,-0.4,0.26,1.31
2024-12-06 12:26:35.49,86.62,525.0,0.27,0.96,-0.04,-0.28,0.26,1.31
2024-12-06 12:26:35.60,86.62,518.0,0.27,0.96,-0.04,-0.1,-0.17,1.12
2024-12-06 12:26:35.68,85.5,505.0,0.27,0.96,-0.04,-0.03,-0.42,1.0
2024-12-06 12:26:35.99,85.95,511.0,0.26,0.95,-0.03,-0.22,-0.66,0.82
2024-12-06 12:26:35.109,88.2,504.0,0.27,0.95,-0.03,-0.28,-0.54,0.76
2024-12-06 12:26:35.116,81.9,504.0,0.27,0.95,-0.03,-0.34,-0.48,0.82
2024-12-06 12:26:35.121,85.05,508.0,0.27,0.95,-0.03,-0.34,-0.35,0.94
2024-12-06 12:26:35.139,84.6,524.0,0.27,0.95,-0.03,-0.28,-0.17,0.88
2024-12-06 12:26:35.145,87.3,493.0,0.27,0.95,-0.03,-0.22,-0.05,0.88
2024-12-06 12:26:35.157,83.25,515.0,0.27,0.95,-0.03,-0.16,0.01,0.88
2024-12-06 12:26:35.162,88.42,507.0,0.27,0.95,-0.03,-0.16,0.07,0.94
2024-12-06 12:26:35.171,87.07,515.0,0.27,0.95,-0.03,-0.16,0.07,0.94
2024-12-06 12:26:35.178,88.2,511.0,0.27,0.95,-0.03,-0.16,0.19,1.0
2024-12-06 12:26:35.185,83.7,498.0,0.27,0.95,-0.02,-0.22,0.13,1.0
2024-12-06 12:26:35.191,86.85,501.0,0.27,0.95,-0.02,-0.22,0.13,1.06
2024-12-06 12:26:35.203,85.28,502.0,0.27,0.95,-0.02,-0.28,0.32,1.06
2024-12-06 12:26:35.207,85.5,497.0,0.27,0.95,-0.02,-0.28,0.44,1.06
2024-12-06 12:26:35.216,84.6,489.0,0.27,0.95,-0.02,-0.28,0.44,1.06
2024-12-06 12:26:35.223,84.82,522.0,0.27,0.95,-0.02,-0.28,0.44,1.06
2024-12-06 12:26:35.230,84.15,507.0,0.27,0.96,-0.03,-0.22,0.5,1.0
2024-12-06 12:26:35.238,86.85,516.0,0.27,0.96,-0.03,-0.16,0.44,0.88
2024-12-06 12:26:35.249,81.22,494.0,0.27,0.96,-0.03,-0.1,0.38,0.7
2024-12-06 12:26:35.257,86.85,520.0,0.27,0.96,-0.03,-0.03,0.19,0.51
2024-12-06 12:26:35.270,88.42,502.0,0.27,0.96,-0.03,-0.03,0.19,0.33
2024-12-06 12:26:35.274,82.8,520.0,0.27,0.96,-0.03,-0.03,-0.05,0.33
2024-12-06 12:26:35.277,82.12,503.0,0.27,0.95,-0.03,0.03,-0.29,0.09
2024-12-06 12:26:35.287,86.4,514.0,0.27,0.95,-0.03,0.09,-0.48,-0.1
2024-12-06 12:26:35.406,87.75,504.0,0.27,0.96,-0.03,-0.34,-1.39,-0.1
2024-12-06 12:26:35.413,84.6,513.0,0.27,0.96,-0.03,-0.34,-1.39,-0.1
2024-12-06 12:26:35.421,81.45,517.0,0.27,0.96,-0.03,-0.28,-1.39,-0.1
2024-12-06 12:26:35.431,83.92,505.0,0.27,0.96,-0.03,-0.28,-1.33,-0.04
2024-12-06 12:26:35.436,86.17,520.0,0.26,0.96,-0.03,-0.28,-1.15,0.03
2024-12-06 12:26:35.445,83.92,516.0,0.26,0.95,-0.03,-0.34,-1.03,0.15
2024-12-06 12:26:35.453,81.22,503.0,0.26,0.95,-0.03,-0.4,-0.84,0.15
2024-12-06 12:26:35.466,86.4,554.0,0.26,0.95,-0.03,-0.4,-0.84,0.15
2024-12-06 12:26:35.472,83.92,502.0,0.26,0.95,-0.03,-0.46,-0.66,0.21
2024-12-06 12:26:35.481,85.28,501.0,0.26,0.95,-0.03,-0.58,-0.48,0.27
2024-12-06 12:26:35.485,85.95,495.0,0.26,0.94,-0.03,-0.71,-0.35,0.27
2024-12-06 12:26:35.491,88.88,507.0,0.26,0.94,-0.03,-0.83,-0.29,0.21
2024-12-06 12:26:35.508,84.38,525.0,0.26,0.94,-0.03,-0.89,-0.23,0.09
2024-12-06 12:26:35.512,86.17,501.0,0.26,0.94,-0.03,-0.89,-0.23,0.09
2024-12-06 12:26:35.554,86.4,509.0,0.26,0.95,-0.03,-0.71,-0.78,-0.83
2024-12-06 12:26:35.559,86.85,512.0,0.26,0.95,-0.02,-0.64,-0.66,-0.95
2024-12-06 12:26:35.569,81.67,500.0,0.26,0.95,-0.02,-0.58,-0.6,-1.13
2024-12-06 12:26:35.574,82.12,521.0,0.26,0.96,-0.03,-0.58,-0.6,-1.19
2024-12-06 12:26:35.584,85.95,479.0,0.26,0.96,-0.03,-0.52,-0.6,-1.19
2024-12-06 12:26:35.590,88.42,565.0,0.26,0.96,-0.03,-0.46,-0.6,-1.26
2024-12-06 12:26:35.603,87.3,507.0,0.26,0.96,-0.03,-0.34,-0.6,-1.32
2024-12-06 12:26:35.617,88.2,492.0,0.26,0.96,-0.03,-0.28,-0.66,-1.19
2024-12-06 12:26:35.624,83.47,498.0,0.26,0.96,-0.03,-0.28,-0.72,-1.13
2024-12-06 12:26:35.630,86.85,507.0,0.26,0.96,-0.03,-0.28,-0.72,-1.13
2024-12-06 12:26:35.639,83.92,492.0,0.26,0.96,-0.03,-0.34,-0.78,-1.01
2024-12-06 12:26:35.645,86.17,500.0,0.26,0.96,-0.03,-0.34,-0.9,-0.83
2024-12-06 12:26:35.655,85.95,502.0,0.26,0.96,-0.03,-0.4,-0.9,-0.65
2024-12-06 12:26:35.663,83.47,502.0,0.26,0.96,-0.03,-0.52,-0.97,-0.4
2024-12-06 12:26:35.676,87.3,497.0,0.26,0.95,-0.04,-0.52,-0.84,-0.16
2024-12-06 12:26:35.678,83.47,508.0,0.26,0.95,-0.04,-0.58,-0.84,-0.16
2024-12-06 12:26:35.690,85.72,503.0,0.26,0.95,-0.04,-0.71,-0.72,0.09
2024-12-06 12:26:35.693,86.62,501.0,0.26,0.95,-0.04,-0.83,-0.48,0.33
2024-12-06 12:26:35.699,86.85,500.0,0.26,0.95,-0.04,-0.83,-0.35,0.51
2024-12-06 12:26:35.707,84.6,520.0,0.27,0.95,-0.04,-0.83,-0.23,0.7
2024-12-06 12:26:35.714,87.07,508.0,0.27,0.95,-0.04,-0.83,-0.23,0.7
2024-12-06 12:26:35.728,87.3,495.0,0.27,0.95,-0.04,-0.71,-0.23,0.82
2024-12-06 12:26:35.730,88.42,491.0,0.27,0.95,-0.04,-0.58,-0.17,0.88
2024-12-06 12:26:35.784,87.75,518.0,0.27,0.96,-0.04,-0.52,-0.17,0.88
2024-12-06 12:26:35.788,85.5,511.0,0.27,0.96,-0.03,0.39,-0.66,0.15
2024-12-06 12:26:35.790,87.07,498.0,0.27,0.96,-0.03,0.39,-0.66,0.15
2024-12-06 12:26:35.798,83.7,496.0,0.27,0.96,-0.03,0.58,-0.66,-0.04
2024-12-06 12:26:35.807,85.28,506.0,0.26,0.96,-0.03,0.64,-0.6,-0.1
2024-12-06 12:26:35.815,85.5,513.0,0.26,0.96,-0.03,0.64,-0.48,-0.1
2024-12-06 12:26:35.826,84.6,506.0,0.26,0.96,-0.03,0.58,-0.42,0.03
2024-12-06 12:26:35.837,86.17,515.0,0.26,0.96,-0.03,0.45,-0.23,0.09
2024-12-06 12:26:35.841,88.65,495.0,0.26,0.95,-0.03,0.45,-0.05,0.15
2024-12-06 12:26:35.845,89.77,507.0,0.26,0.95,-0.03,0.27,-0.05,0.15
2024-12-06 12:26:35.853,87.07,500.0,0.26,0.95,-0.03,0.09,-0.05,0.39
2024-12-06 12:26:35.863,86.85,498.0,0.26,0.95,-0.04,-0.03,-0.05,0.45
2024-12-06 12:26:35.869,81.9,506.0,0.26,0.95,-0.04,-0.22,-0.11,0.58
2024-12-06 12:26:35.886,84.38,528.0,0.26,0.95,-0.04,-0.34,-0.17,0.64
2024-12-06 12:26:35.892,85.95,498.0,0.26,0.95,-0.04,-0.34,-0.29,0.64
2024-12-06 12:26:35.916,88.42,521.0,0.26,0.95,-0.03,-0.22,-0.6,0.58
2024-12-06 12:26:35.926,85.95,517.0,0.26,0.95,-0.03,-0.03,-0.48,0.39
2024-12-06 12:26:35.937,80.55,521.0,0.26,0.95,-0.03,-0.03,-0.48,0.39
2024-12-06 12:26:35.940,87.52,504.0,0.26,0.95,-0.03,-0.03,-0.42,0.33
2024-12-06 12:26:35.946,82.57,500.0,0.26,0.95,-0.03,-0.03,-0.35,0.27
2024-12-06 12:26:35.953,88.65,515.0,0.26,0.95,-0.03,-0.03,-0.23,0.15
2024-12-06 12:26:35.961,87.97,511.0,0.26,0.95,-0.03,-0.03,-0.23,0.03
2024-12-06 12:26:37.212,85.95,508.0,0.26,0.95,-0.04,-0.22,-0.29,-1.13
2024-12-06 12:26:37.215,87.75,501.0,0.28,0.88,0.04,-3.64,4.28,4.54
2024-12-06 12:26:37.218,69.53,476.0,0.32,0.96,0.05,-1.32,6.79,-1.5
2024-12-06 12:26:37.245,68.4,502.0,0.32,0.96,0.03,2.1,6.42,-9.43
2024-12-06 12:26:37.277,67.5,472.0,0.3,0.95,-0.01,4.12,3.55,-14.07
2024-12-06 12:26:37.307,65.25,484.0,0.26,0.94,-0.04,5.58,2.09,-15.78
2024-12-06 12:26:37.346,67.28,477.0,0.26,0.96,-0.03,5.34,2.03,-14.99
2024-12-06 12:26:37.353,63.9,476.0,0.23,0.96,-0.04,4.18,3.19,-12.3
2024-12-06 12:26:37.382,63.45,464.0,0.23,0.95,-0.03,2.16,4.28,-11.33
2024-12-06 12:26:37.497,63.45,474.0,0.23,0.96,-0.04,0.64,4.47,-9.13
2024-12-06 12:26:37.511,60.75,468.0,0.24,0.99,-0.02,0.7,0.5,-6.69
2024-12-06 12:26:37.519,57.6,508.0,0.22,0.96,-0.03,1.67,1.29,-8.21
2024-12-06 12:26:37.546,57.82,464.0,0.23,0.96,-0.02,1.92,2.45,-7.97
2024-12-06 12:26:37.585,54.45,480.0,0.23,0.97,-0.03,2.04,3.0,-7.91
2024-12-06 12:26:37.604,54.22,463.0,0.22,0.98,-0.04,2.59,2.64,-6.75
2024-12-06 12:26:37.633,52.88,467.0,0.21,0.97,-0.04,2.41,1.54,-7.12
2024-12-06 12:26:37.657,50.62,463.0,0.21,0.97,-0.04,1.92,0.74,-5.89
2024-12-06 12:26:37.689,45.45,475.0,0.21,0.97,-0.04,1.43,0.01,-5.16
2024-12-06 12:26:37.711,51.75,475.0,0.21,0.97,-0.03,1.25,-0.48,-4.12
2024-12-06 12:26:37.743,45.9,476.0,0.2,0.97,-0.03,1.86,0.32,-3.82
2024-12-06 12:26:37.769,47.02,466.0,0.21,0.97,-0.02,1.67,1.17,-3.39
2024-12-06 12:26:37.807,45.0,460.0,0.2,0.97,-0.04,2.22,2.09,-3.09
2024-12-06 12:26:37.822,48.38,463.0,0.2,0.97,-0.04,2.47,1.29,-3.03
2024-12-06 12:26:37.850,42.08,468.0,0.18,0.96,-0.04,1.92,1.72,-4.31
2024-12-06 12:26:37.877,43.42,477.0,0.19,0.97,-0.03,1.8,2.09,-3.94
2024-12-06 12:26:37.909,42.97,476.0,0.19,0.98,-0.05,2.16,1.72,-3.64
2024-12-06 12:26:37.933,38.92,464.0,0.19,0.98,-0.04,1.61,0.87,-3.64
2024-12-06 12:26:37.962,35.55,459.0,0.19,0.97,-0.04,2.22,0.01,-3.03
2024-12-06 12:26:37.994,38.47,463.0,0.21,0.98,-0.04,2.77,-0.11,-1.56
2024-12-06 12:26:38.31,39.38,456.0,0.18,0.96,-0.04,2.22,0.93,-0.58
2024-12-06 12:26:38.50,31.27,476.0,0.18,0.97,-0.04,1.37,0.87,-2.11
2024-12-06 12:26:38.71,30.15,465.0,0.18,0.96,-0.04,0.09,0.87,-1.99
2024-12-06 12:26:38.100,32.85,455.0,0.15,0.96,-0.02,-1.74,0.5,-4.67
2024-12-06 12:26:38.136,27.9,466.0,0.17,0.97,-0.02,-2.05,2.09,-6.99
2024-12-06 12:26:38.156,33.97,471.0,0.17,0.98,-0.05,-0.34,3.0,-6.5
2024-12-06 12:26:38.181,30.15,451.0,0.17,0.98,-0.05,-0.46,2.39,-6.99
2024-12-06 12:26:38.209,25.42,466.0,0.18,0.99,-0.05,-0.71,1.72,-4.86
2024-12-06 12:26:38.257,28.12,469.0,0.18,0.99,-0.06,-0.77,0.68,-2.11
2024-12-06 12:26:38.263,28.57,463.0,0.17,0.98,-0.05,-1.87,1.05,-0.58
2024-12-06 12:26:38.297,27.22,450.0,0.16,0.97,-0.04,-1.56,2.33,0.03
2024-12-06 12:26:38.320,25.88,456.0,0.17,0.97,-0.03,-0.77,4.83,0.09
2024-12-06 12:26:38.352,25.2,446.0,0.16,0.98,-0.03,-0.71,6.36,0.33
2024-12-06 12:26:38.374,19.35,460.0,0.18,0.98,-0.04,-0.77,7.21,0.7
2024-12-06 12:26:38.402,22.5,450.0,0.18,0.98,-0.04,-0.1,6.79,1.67
2024-12-06 12:26:38.433,21.38,449.0,0.17,0.98,-0.03,-0.64,6.48,1.8
2024-12-06 12:26:38.550,18.0,442.0,0.17,0.98,-0.04,-0.46,7.46,1.92
2024-12-06 12:26:38.552,19.8,454.0,0.18,0.97,-0.04,1.8,6.11,0.33
2024-12-06 12:26:38.567,15.75,465.0,0.17,0.97,-0.03,1.74,4.47,0.33
2024-12-06 12:26:38.594,19.12,450.0,0.18,0.98,-0.04,1.31,3.61,1.55
2024-12-06 12:26:38.625,14.4,446.0,0.18,0.98,-0.04,1.13,3.06,2.41
2024-12-06 12:26:38.655,12.15,488.0,0.18,0.97,-0.04,0.64,3.55,2.47
2024-12-06 12:26:38.677,14.85,460.0,0.17,0.97,-0.04,0.82,4.04,2.47
2024-12-06 12:26:38.705,9.45,462.0,0.16,0.97,-0.03,1.31,3.19,0.7
2024-12-06 12:26:38.736,11.25,472.0,0.17,0.97,-0.03,1.61,2.15,-0.89
2024-12-06 12:26:38.770,5.4,466.0,0.17,0.96,-0.03,1.61,2.21,-2.11
2024-12-06 12:26:38.789,9.22,450.0,0.16,0.97,-0.04,1.19,0.99,-2.84
2024-12-06 12:26:38.815,9.22,455.0,0.16,0.99,-0.04,1.0,0.44,-3.45
2024-12-06 12:26:38.845,10.57,461.0,0.16,0.98,-0.04,0.64,2.57,-1.07
2024-12-06 12:26:38.870,6.3,456.0,0.15,0.97,-0.03,0.27,6.24,0.64
2024-12-06 12:26:38.898,3.82,455.0,0.16,0.97,-0.05,0.27,7.34,1.37
2024-12-06 12:26:38.928,4.72,458.0,0.16,0.97,-0.04,0.15,6.48,1.19
2024-12-06 12:26:38.954,3.15,462.0,0.18,0.97,-0.04,0.27,6.24,1.73
2024-12-06 12:26:38.984,5.17,464.0,0.18,0.97,-0.04,0.51,5.75,2.59
2024-12-06 12:26:39.10,2.02,474.0,0.18,0.98,-0.03,0.64,4.04,2.28
2024-12-06 12:26:39.22,3.6,467.0,0.18,0.98,-0.04,0.7,4.34,2.41
2024-12-06 12:26:39.24,0.67,466.0,0.19,0.98,-0.03,0.51,5.08,2.71
2024-12-06 12:26:39.32,2.7,463.0,0.18,0.98,-0.02,0.27,4.22,3.08
2024-12-06 12:26:39.42,-2.25,456.0,0.18,0.98,-0.03,0.39,3.67,3.2
2024-12-06 12:26:39.49,0.45,461.0,0.18,0.98,-0.03,0.15,3.8,3.08
2024-12-06 12:26:39.56,3.15,481.0,0.17,0.97,-0.03,0.15,3.8,3.08
2024-12-06 12:26:39.64,0.9,459.0,0.17,0.97,-0.03,0.03,3.06,2.71
2024-12-06 12:26:39.73,-0.22,465.0,0.17,0.96,-0.04,0.15,2.15,2.41
2024-12-06 12:26:39.85,2.92,464.0,0.17,0.96,-0.04,0.09,2.03,2.04
2024-12-06 12:26:39.87,-0.22,463.0,0.17,0.96,-0.04,0.03,1.96,1.67
2024-12-06 12:26:39.96,0.9,471.0,0.16,0.96,-0.03,0.09,1.23,1.12
2024-12-06 12:26:39.110,0.45,458.0,0.15,0.96,-0.03,0.03,0.87,0.45
2024-12-06 12:26:39.120,2.47,462.0,0.14,0.96,-0.03,0.15,-0.11,-0.71
2024-12-06 12:26:39.128,5.62,467.0,0.15,0.96,-0.03,0.03,-0.17,-2.05
2024-12-06 12:26:39.136,-4.28,455.0,0.15,0.96,-0.03,-0.22,0.26,-2.78
2024-12-06 12:26:39.146,-1.8,454.0,0.16,0.96,-0.03,-0.22,0.62,-2.72
2024-12-06 12:26:39.181,0.22,458.0,0.17,0.98,-0.03,-0.28,1.42,-0.83
2024-12-06 12:26:39.191,-2.02,458.0,0.17,0.98,-0.03,-0.28,1.42,-0.83
2024-12-06 12:26:39.197,-9.0,459.0,0.17,0.98,-0.03,-0.4,1.35,-1.01
2024-12-06 12:26:39.207,0.45,474.0,0.17,0.97,-0.03,-0.52,1.29,-0.95
2024-12-06 12:26:39.220,-2.7,456.0,0.18,0.97,-0.03,-0.64,0.99,-0.65
2024-12-06 12:26:39.227,0.22,457.0,0.18,0.97,-0.04,-0.64,0.99,-0.65
2024-12-06 12:26:39.234,0.0,459.0,0.17,0.97,-0.04,-0.64,0.8,-0.65
2024-12-06 12:26:39.242,3.15,469.0,0.17,0.97,-0.04,-0.71,0.68,-0.83
2024-12-06 12:26:39.264,0.67,474.0,0.17,0.97,-0.04,-0.77,0.44,-0.95
2024-12-06 12:26:39.267,-1.8,486.0,0.17,0.97,-0.04,-0.77,-0.11,-1.01
2024-12-06 12:26:39.274,-2.92,460.0,0.17,0.97,-0.03,-0.77,-0.11,-1.01
2024-12-06 12:26:39.280,0.45,457.0,0.17,0.97,-0.03,-0.77,-0.35,-0.95
2024-12-06 12:26:39.294,-3.6,475.0,0.17,0.97,-0.04,-0.64,-0.66,-1.01
2024-12-06 12:26:39.296,0.0,463.0,0.17,0.97,-0.04,-0.71,-0.66,-1.13
2024-12-06 12:26:39.303,-1.57,451.0,0.17,0.97,-0.04,-0.77,-0.66,-1.32
2024-12-06 12:26:39.314,1.12,461.0,0.17,0.97,-0.04,-0.83,-0.84,-1.5
2024-12-06 12:26:39.320,-1.12,461.0,0.17,0.97,-0.03,-0.83,-0.84,-1.5
2024-12-06 12:26:39.328,-2.92,471.0,0.17,0.97,-0.03,-0.77,-0.84,-1.68
2024-12-06 12:26:39.335,-3.15,472.0,0.17,0.97,-0.03,-0.71,-0.9,-1.74
2024-12-06 12:26:39.343,-0.22,450.0,0.17,0.98,-0.03,-0.58,-0.97,-1.87
2024-12-06 12:26:39.380,-5.17,452.0,0.17,0.98,-0.03,-0.28,-1.03,-1.87
2024-12-06 12:26:39.383,-0.22,465.0,0.17,0.99,-0.04,-0.22,-0.9,-1.81
2024-12-06 12:26:39.388,0.0,454.0,0.17,0.99,-0.04,-0.1,-0.66,-1.56
2024-12-06 12:26:39.398,-1.57,465.0,0.17,0.98,-0.04,0.09,-0.29,-1.32
2024-12-06 12:26:39.404,-2.47,460.0,0.17,0.98,-0.04,0.09,-0.29,-1.32
2024-12-06 12:26:39.412,1.12,475.0,0.17,0.98,-0.04,0.21,0.07,-1.01
2024-12-06 12:26:39.422,-0.22,459.0,0.17,0.98,-0.04,0.33,0.32,-0.71
2024-12-06 12:26:39.428,-1.12,461.0,0.17,0.98,-0.04,0.39,0.8,-0.46
2024-12-06 12:26:39.436,1.8,480.0,0.17,0.98,-0.04,0.45,1.05,-0.28
2024-12-06 12:26:39.443,1.35,469.0,0.17,0.98,-0.04,0.45,1.05,-0.04
2024-12-06 12:26:39.452,3.15,459.0,0.17,0.97,-0.04,0.45,1.05,-0.04
2024-12-06 12:26:39.463,-0.45,466.0,0.17,0.97,-0.04,0.51,1.05,0.15
2024-12-06 12:26:39.472,-3.38,477.0,0.17,0.97,-0.04,0.45,0.8,0.39
2024-12-06 12:26:39.475,1.35,456.0,0.18,0.97,-0.03,0.33,0.5,0.64
2024-12-06 12:26:39.489,-0.67,469.0,0.18,0.97,-0.03,0.21,0.26,0.94
2024-12-06 12:26:39.493,-0.9,458.0,0.18,0.98,-0.03,0.09,0.01,1.06
2024-12-06 12:26:39.499,1.12,453.0,0.18,0.97,-0.03,0.09,0.01,1.06
2024-12-06 12:26:39.604,-0.67,460.0,0.17,0.98,-0.03,0.33,-1.27,0.76
2024-12-06 12:26:39.626,-0.67,454.0,0.17,0.97,-0.03,0.15,-1.33,0.88
2024-12-06 12:26:39.630,-3.15,460.0,0.17,0.97,-0.03,-0.03,-1.39,0.88
2024-12-06 12:26:39.635,0.22,456.0,0.17,0.97,-0.03,-0.16,-1.27,0.82
2024-12-06 12:26:39.651,0.67,469.0,0.17,0.97,-0.04,-0.22,-1.27,0.76
2024-12-06 12:26:39.653,2.02,475.0,0.16,0.97,-0.04,-0.22,-1.27,0.76
2024-12-06 12:26:39.658,3.15,468.0,0.16,0.97,-0.04,-0.22,-1.21,0.58
2024-12-06 12:26:39.670,2.92,463.0,0.17,0.97,-0.04,-0.22,-1.09,0.45
2024-12-06 12:26:39.677,1.12,461.0,0.17,0.97,-0.04,-0.16,-1.21,0.45
2024-12-06 12:26:39.681,0.0,458.0,0.17,0.97,-0.04,-0.03,-1.33,0.45
2024-12-06 12:26:39.689,0.45,465.0,0.17,0.97,-0.04,0.03,-1.58,0.39
2024-12-06 12:26:39.699,1.35,456.0,0.17,0.98,-0.04,0.03,-1.58,0.39
2024-12-06 12:26:39.708,0.0,463.0,0.17,0.98,-0.04,0.15,-1.94,0.39
2024-12-06 12:26:39.719,0.67,463.0,0.17,0.98,-0.03,0.09,-2.31,0.27
2024-12-06 12:26:39.723,-2.47,458.0,0.17,0.98,-0.03,0.09,-2.61,0.27
2024-12-06 12:26:39.731,0.22,460.0,0.17,0.98,-0.03,0.09,-2.86,0.27
2024-12-06 12:26:39.738,-0.67,454.0,0.17,0.98,-0.04,0.09,-2.86,0.27
2024-12-06 12:26:39.743,-5.85,465.0,0.17,0.98,-0.04,0.03,-2.86,0.33
2024-12-06 12:26:39.750,0.67,480.0,0.16,0.98,-0.04,0.03,-2.67,0.39
2024-12-06 12:26:39.779,2.47,456.0,0.16,0.98,-0.04,-0.1,-2.43,0.45
2024-12-06 12:26:39.782,-3.15,450.0,0.16,0.97,-0.04,-0.1,-1.64,0.76
2024-12-06 12:26:39.789,2.25,466.0,0.16,0.97,-0.04,-0.16,-1.15,0.94
2024-12-06 12:26:39.799,-3.6,478.0,0.17,0.97,-0.04,-0.16,-0.78,1.12
2024-12-06 12:26:39.804,0.45,461.0,0.17,0.97,-0.04,-0.16,-0.54,1.37
2024-12-06 12:26:39.841,1.12,473.0,0.17,0.97,-0.04,-0.1,-0.35,1.43
2024-12-06 12:26:39.846,0.0,459.0,0.17,0.97,-0.04,-0.1,-0.29,1.25
2024-12-06 12:26:39.849,1.35,469.0,0.17,0.97,-0.04,-0.1,-0.35,1.06
2024-12-06 12:26:39.858,0.22,460.0,0.17,0.97,-0.04,-0.1,-0.35,1.06
2024-12-06 12:26:39.866,-0.9,475.0,0.17,0.97,-0.04,-0.1,-0.6,0.88
2024-12-06 12:26:39.873,-3.38,453.0,0.17,0.98,-0.04,-0.1,-0.72,0.88
2024-12-06 12:26:39.881,1.8,455.0,0.17,0.98,-0.03,-0.1,-0.78,0.88
2024-12-06 12:26:39.890,-2.25,466.0,0.17,0.98,-0.04,-0.1,-0.9,0.88
2024-12-06 12:26:39.898,-3.15,473.0,0.17,0.98,-0.04,-0.1,-0.9,0.88
2024-12-06 12:26:39.905,-0.9,465.0,0.17,0.98,-0.04,-0.1,-0.9,0.88
2024-12-06 12:26:39.916,-4.05,459.0,0.17,0.98,-0.04,-0.03,-0.9,0.76
2024-12-06 12:26:39.924,-1.35,459.0,0.17,0.98,-0.04,0.03,-0.78,0.7
2024-12-06 12:26:39.930,-0.45,457.0,0.16,0.98,-0.04,0.15,-0.72,0.64
2024-12-06 12:26:39.938,0.22,461.0,0.16,0.98,-0.04,0.21,-0.66,0.64
2024-12-06 12:26:39.946,0.9,466.0,0.16,0.98,-0.04,0.21,-0.66,0.64
2024-12-06 12:26:39.953,1.8,473.0,0.16,0.98,-0.04,0.21,-0.42,0.58
2024-12-06 12:26:39.962,-2.47,454.0,0.17,0.98,-0.04,0.09,-0.17,0.7
2024-12-06 12:26:39.967,3.38,448.0,0.17,0.98,-0.04,0.03,-0.11,0.88
2024-12-06 12:26:39.977,0.22,473.0,0.17,0.97,-0.03,-0.16,-0.05,0.94
2024-12-06 12:26:39.986,1.12,469.0,0.17,0.97,-0.03,-0.28,0.01,1.0
2024-12-06 12:26:39.989,0.67,453.0,0.17,0.97,-0.04,-0.28,0.01,1.0
2024-12-06 12:26:39.997,-1.8,473.0,0.16,0.97,-0.04,-0.28,0.19,0.94
2024-12-06 12:26:40.7,-3.15,464.0,0.17,0.97,-0.04,-0.4,0.38,0.82
2024-12-06 12:26:40.17,-0.22,451.0,0.17,0.97,-0.04,-0.4,0.56,0.76
2024-12-06 12:26:40.25,0.45,463.0,0.17,0.97,-0.04,-0.34,0.56,0.7
2024-12-06 12:26:40.28,-0.45,458.0,0.17,0.97,-0.04,-0.28,0.56,0.7
2024-12-06 12:26:40.36,-0.22,453.0,0.17,0.97,-0.04,-0.28,0.56,0.7
2024-12-06 12:26:40.44,0.45,461.0,0.17,0.97,-0.04,-0.22,0.44,0.7
2024-12-06 12:26:40.52,-0.22,467.0,0.17,0.97,-0.04,-0.22,0.26,0.64
2024-12-06 12:26:40.61,-0.9,456.0,0.17,0.97,-0.03,-0.22,0.01,0.51
2024-12-06 12:26:40.68,-3.15,459.0,0.17,0.97,-0.03,-0.22,-0.35,0.39
2024-12-06 12:26:40.78,0.45,459.0,0.17,0.98,-0.03,-0.22,-0.72,0.33
2024-12-06 12:26:40.85,0.9,453.0,0.17,0.98,-0.03,-0.22,-0.72,0.33
2024-12-06 12:26:40.96,1.35,450.0,0.17,0.98,-0.03,-0.28,-0.97,0.33
2024-12-06 12:26:40.99,0.45,470.0,0.17,0.98,-0.04,-0.34,-1.09,0.27
2024-12-06 12:26:40.128,-4.05,451.0,0.17,0.98,-0.04,-0.4,-1.09,0.27
2024-12-06 12:26:40.131,-0.9,477.0,0.17,0.98,-0.04,-0.4,-1.03,0.39
2024-12-06 12:26:40.153,-2.25,488.0,0.17,0.98,-0.04,-0.4,-0.9,0.51
2024-12-06 12:26:40.158,-0.67,474.0,0.17,0.98,-0.04,-0.28,-0.66,0.7
2024-12-06 12:26:40.163,-3.38,451.0,0.17,0.98,-0.04,-0.28,-0.66,0.7
2024-12-06 12:26:40.166,-4.5,453.0,0.17,0.97,-0.04,-0.28,-0.48,0.7
2024-12-06 12:26:40.185,-3.15,459.0,0.17,0.97,-0.04,-0.22,-0.48,0.58
2024-12-06 12:26:40.192,-0.22,463.0,0.17,0.97,-0.04,-0.22,-0.42,0.64
2024-12-06 12:26:40.198,1.57,475.0,0.17,0.97,-0.04,-0.22,-0.42,0.64
2024-12-06 12:26:40.207,0.22,462.0,0.17,0.97,-0.04,-0.28,-0.29,0.7
2024-12-06 12:26:40.213,0.67,459.0,0.17,0.97,-0.04,-0.28,-0.29,0.76
2024-12-06 12:26:40.220,-0.22,474.0,0.17,0.97,-0.04,-0.34,-0.29,0.88
2024-12-06 12:26:40.228,2.92,468.0,0.17,0.97,-0.04,-0.34,-0.29,0.94
2024-12-06 12:26:40.236,-4.05,470.0,0.17,0.97,-0.04,-0.4,-0.23,1.0
2024-12-06 12:26:40.246,-0.45,452.0,0.17,0.97,-0.03,-0.4,-0.23,1.0
2024-12-06 12:26:40.254,0.45,455.0,0.17,0.97,-0.04,-0.46,-0.17,1.0
2024-12-06 12:26:40.288,0.45,456.0,0.17,0.97,-0.04,-0.4,0.07,0.82
2024-12-06 12:26:40.294,-3.15,455.0,0.17,0.97,-0.04,-0.28,0.07,0.76
2024-12-06 12:26:40.300,0.0,477.0,0.17,0.97,-0.04,-0.16,0.13,0.7
2024-12-06 12:26:40.311,-1.8,474.0,0.17,0.97,-0.04,-0.03,0.19,0.64
2024-12-06 12:26:40.314,2.02,480.0,0.17,0.97,-0.04,0.03,0.26,0.51
2024-12-06 12:26:40.321,-2.47,456.0,0.17,0.98,-0.04,0.03,0.26,0.51
2024-12-06 12:26:40.330,-0.22,468.0,0.17,0.98,-0.04,0.03,0.32,0.45
2024-12-06 12:26:40.336,1.57,462.0,0.17,0.98,-0.04,-0.03,0.32,0.51
2024-12-06 12:26:40.344,-2.25,458.0,0.17,0.98,-0.04,-0.1,0.32,0.64
2024-12-06 12:26:40.353,-1.57,463.0,0.17,0.98,-0.04,-0.1,0.32,0.7
2024-12-06 12:26:40.359,0.67,459.0,0.17,0.98,-0.04,-0.16,0.56,0.82
2024-12-06 12:26:40.370,0.22,479.0,0.17,0.98,-0.04,-0.16,0.56,0.82
2024-12-06 12:26:40.376,-2.02,458.0,0.17,0.97,-0.04,-0.22,0.8,0.88
2024-12-06 12:26:40.384,-0.22,462.0,0.17,0.97,-0.04,-0.28,1.05,0.88
2024-12-06 12:26:40.394,-0.22,455.0,0.17,0.97,-0.04,-0.28,1.17,0.94
2024-12-06 12:26:40.401,-2.02,462.0,0.17,0.97,-0.04,-0.22,1.23,0.94
2024-12-06 12:26:40.410,-1.35,449.0,0.17,0.97,-0.04,-0.1,1.23,0.88
2024-12-06 12:26:40.417,1.8,462.0,0.17,0.98,-0.04,-0.1,1.23,0.88
2024-12-06 12:26:40.426,-4.5,448.0,0.18,0.98,-0.03,0.03,1.05,0.76
2024-12-06 12:26:40.435,-1.35,449.0,0.18,0.98,-0.03,0.09,0.8,0.7
2024-12-06 12:26:40.441,-1.12,463.0,0.18,0.98,-0.03,0.09,0.56,0.58
2024-12-06 12:26:40.451,1.8,461.0,0.18,0.98,-0.03,0.09,0.32,0.51
2024-12-06 12:26:40.454,0.45,466.0,0.18,0.98,-0.03,0.09,0.19,0.45
2024-12-06 12:26:40.480,-0.9,469.0,0.18,0.98,-0.04,0.09,0.19,0.45
2024-12-06 12:26:40.493,0.9,461.0,0.17,0.97,-0.04,-0.03,0.5,0.39
2024-12-06 12:26:40.516,0.67,448.0,0.18,0.97,-0.03,-0.16,0.62,0.51
2024-12-06 12:26:40.524,-1.12,453.0,0.18,0.97,-0.03,-0.22,0.62,0.64
2024-12-06 12:26:40.531,4.05,459.0,0.18,0.97,-0.03,-0.28,0.5,0.7
2024-12-06 12:26:40.536,0.45,465.0,0.18,0.97,-0.03,-0.34,0.44,0.7
2024-12-06 12:26:40.544,-1.57,453.0,0.18,0.97,-0.03,-0.34,0.44,0.7
2024-12-06 12:26:40.546,0.22,465.0,0.18,0.97,-0.03,-0.28,0.26,0.64
2024-12-06 12:26:40.554,0.45,457.0,0.18,0.97,-0.03,-0.34,0.26,0.51
2024-12-06 12:26:40.649,-0.9,463.0,0.17,0.97,-0.04,-0.03,-0.42,0.27
2024-12-06 12:26:40.656,-0.67,450.0,0.17,0.97,-0.04,0.03,-0.35,0.27
2024-12-06 12:26:40.666,0.0,457.0,0.18,0.97,-0.04,0.03,-0.23,0.33
2024-12-06 12:26:40.674,-2.25,458.0,0.18,0.97,-0.04,-0.03,-0.05,0.45
2024-12-06 12:26:40.681,-4.05,454.0,0.18,0.97,-0.04,-0.1,0.07,0.58
2024-12-06 12:26:40.687,-0.45,461.0,0.18,0.97,-0.04,-0.1,0.07,0.58
2024-12-06 12:26:40.695,-1.12,479.0,0.17,0.97,-0.04,-0.1,0.32,0.7
2024-12-06 12:26:40.705,3.15,462.0,0.17,0.97,-0.04,-0.1,0.5,0.82
2024-12-06 12:26:40.713,-1.8,464.0,0.18,0.97,-0.04,-0.1,0.68,0.88
2024-12-06 12:26:40.719,-2.47,459.0,0.18,0.97,-0.04,-0.03,0.87,0.82
2024-12-06 12:26:40.728,-2.25,461.0,0.18,0.97,-0.04,-0.03,1.05,0.88
2024-12-06 12:26:40.734,-2.25,475.0,0.18,0.97,-0.04,-0.03,1.05,0.88
2024-12-06 12:26:40.744,0.9,464.0,0.18,0.97,-0.04,0.09,0.99,0.88
2024-12-06 12:26:40.750,-0.9,451.0,0.18,0.97,-0.04,0.15,0.74,0.94
2024-12-06 12:26:40.757,-1.57,462.0,0.18,0.97,-0.04,0.21,0.44,0.94
2024-12-06 12:26:40.765,-2.02,478.0,0.18,0.97,-0.04,0.27,0.19,0.88
2024-12-06 12:26:40.774,2.7,463.0,0.18,0.97,-0.04,0.27,0.19,0.88
2024-12-06 12:26:40.781,0.22,471.0,0.18,0.98,-0.03,0.27,-0.17,0.88
2024-12-06 12:26:40.818,0.22,466.0,0.18,0.98,-0.03,0.21,-0.6,0.88
2024-12-06 12:26:40.821,-3.38,456.0,0.18,0.98,-0.03,0.03,-0.78,1.0
2024-12-06 12:26:40.827,2.25,456.0,0.17,0.98,-0.03,0.09,-0.6,1.0
2024-12-06 12:26:40.837,3.15,465.0,0.17,0.97,-0.03,0.09,-0.29,0.94
2024-12-06 12:26:40.845,2.47,480.0,0.17,0.97,-0.03,0.15,0.01,0.94
2024-12-06 12:26:40.850,1.8,469.0,0.17,0.97,-0.04,0.21,0.26,0.94
2024-12-06 12:26:40.857,-2.47,476.0,0.18,0.97,-0.04,0.21,0.26,0.94
2024-12-06 12:26:40.872,-0.45,460.0,0.18,0.97,-0.04,0.21,0.44,1.0
2024-12-06 12:26:40.875,-0.45,470.0,0.18,0.97,-0.04,0.27,0.56,1.0
2024-12-06 12:26:40.881,-1.57,472.0,0.18,0.97,-0.04,0.21,0.38,1.06
2024-12-06 12:26:40.893,-1.12,474.0,0.18,0.97,-0.04,0.15,0.07,1.12
2024-12-06 12:26:40.908,-0.67,452.0,0.18,0.97,-0.03,0.09,-0.23,1.19
2024-12-06 12:26:40.911,-9.0,468.0,0.18,0.97,-0.03,-0.03,-0.42,1.19
2024-12-06 12:26:40.919,2.25,469.0,0.18,0.97,-0.03,-0.16,-0.66,1.12
2024-12-06 12:26:40.928,-0.9,463.0,0.18,0.97,-0.03,-0.28,-1.03,1.12
2024-12-06 12:26:40.937,-3.82,459.0,0.18,0.97,-0.03,-0.34,-1.33,1.06
2024-12-06 12:26:40.969,1.35,459.0,0.18,0.98,-0.03,-0.16,-1.03,0.7
2024-12-06 12:26:40.973,2.02,472.0,0.18,0.98,-0.03,-0.16,-0.78,0.64
2024-12-06 12:26:40.980,2.7,452.0,0.18,0.98,-0.04,-0.03,-0.78,0.64
2024-12-06 12:26:40.988,-0.45,467.0,0.18,0.97,-0.04,0.09,-0.54,0.58
2024-12-06 12:26:40.999,-2.25,513.0,0.18,0.97,-0.04,0.15,-0.42,0.58
2024-12-06 12:26:41.7,0.67,456.0,0.18,0.97,-0.04,0.15,-0.29,0.64
2024-12-06 12:26:41.12,2.25,460.0,0.18,0.97,-0.04,0.09,-0.23,0.7
2024-12-06 12:26:41.19,-2.47,460.0,0.18,0.98,-0.04,0.09,-0.29,0.64
2024-12-06 12:26:41.35,1.57,453.0,0.18,0.98,-0.04,0.09,-0.29,0.64
2024-12-06 12:26:41.42,-3.38,472.0,0.18,0.97,-0.04,0.03,-0.29,0.7
2024-12-06 12:26:41.45,2.7,472.0,0.18,0.97,-0.04,-0.03,-0.17,0.7
2024-12-06 12:26:41.52,0.22,458.0,0.18,0.97,-0.04,-0.03,-0.11,0.7
2024-12-06 12:26:41.58,0.22,470.0,0.18,0.97,-0.04,-0.03,-0.05,0.82
2024-12-06 12:26:41.67,-4.5,453.0,0.18,0.97,-0.04,-0.03,-0.05,0.82
2024-12-06 12:26:41.77,1.35,466.0,0.18,0.97,-0.04,-0.03,0.19,0.82
2024-12-06 12:26:41.86,2.25,458.0,0.18,0.97,-0.04,0.03,0.38,0.94
2024-12-06 12:26:41.102,0.45,452.0,0.18,0.97,-0.04,0.15,0.68,1.06
2024-12-06 12:26:41.109,-2.25,464.0,0.18,0.97,-0.04,0.15,0.68,1.0
2024-12-06 12:26:41.115,2.7,469.0,0.18,0.97,-0.04,0.21,0.74,1.0
2024-12-06 12:26:41.120,-0.67,466.0,0.18,0.97,-0.03,0.21,0.74,0.94
2024-12-06 12:26:41.130,-3.82,464.0,0.18,0.97,-0.03,0.21,0.5,0.88
2024-12-06 12:26:41.138,-3.82,461.0,0.19,0.98,-0.03,0.21,0.26,0.82
2024-12-06 12:26:41.146,1.12,467.0,0.19,0.98,-0.03,0.21,-0.05,0.7
2024-12-06 12:26:41.154,2.02,461.0,0.18,0.98,-0.03,0.21,-0.05,0.7
2024-12-06 12:26:41.159,0.9,474.0,0.18,0.98,-0.03,0.21,-0.35,0.64
2024-12-06 12:26:41.169,-2.7,463.0,0.18,0.98,-0.03,0.21,-0.48,0.58
2024-12-06 12:26:41.174,-0.22,480.0,0.18,0.98,-0.04,0.27,-0.42,0.45
2024-12-06 12:26:41.186,-3.15,460.0,0.18,0.97,-0.04,0.39,-0.35,0.51
2024-12-06 12:26:41.192,0.0,458.0,0.18,0.97,-0.04,0.45,-0.29,0.51
2024-12-06 12:26:41.226,1.12,460.0,0.18,0.97,-0.04,0.45,-0.29,0.51
2024-12-06 12:26:41.233,-2.02,455.0,0.18,0.97,-0.04,0.45,-0.23,0.51
2024-12-06 12:26:41.237,-0.45,471.0,0.18,0.97,-0.04,0.45,-0.23,0.51
2024-12-06 12:26:41.244,1.12,463.0,0.18,0.97,-0.04,0.33,-0.35,0.51
2024-12-06 12:26:41.253,0.67,453.0,0.18,0.97,-0.04,0.27,-0.54,0.64
2024-12-06 12:26:41.262,2.25,463.0,0.18,0.97,-0.04,0.15,-0.6,0.76
2024-12-06 12:26:41.270,-2.92,475.0,0.18,0.97,-0.04,0.09,-0.54,0.82
2024-12-06 12:26:41.277,2.02,473.0,0.18,0.97,-0.04,0.03,-0.54,0.82
2024-12-06 12:26:41.287,-0.22,465.0,0.18,0.97,-0.04,0.03,-0.54,0.82
2024-12-06 12:26:41.293,-0.67,459.0,0.18,0.97,-0.04,0.03,-0.66,0.88
2024-12-06 12:26:41.306,-2.02,462.0,0.18,0.97,-0.04,0.03,-0.72,0.82
2024-12-06 12:26:41.313,1.57,452.0,0.18,0.97,-0.04,0.09,-0.66,0.76
2024-12-06 12:26:41.315,-0.22,460.0,0.18,0.97,-0.04,0.15,-0.6,0.7
2024-12-06 12:26:41.323,-6.07,451.0,0.18,0.97,-0.04,0.15,-0.6,0.7
2024-12-06 12:26:41.334,2.25,458.0,0.18,0.97,-0.04,0.15,-0.54,0.58
2024-12-06 12:26:41.357,-0.22,466.0,0.18,0.97,-0.04,0.21,-0.48,0.58
2024-12-06 12:26:41.381,1.35,459.0,0.18,0.97,-0.04,0.03,-0.42,0.82
2024-12-06 12:26:41.385,-1.8,461.0,0.18,0.97,-0.04,-0.28,-0.23,0.94
2024-12-06 12:26:41.388,-0.22,464.0,0.18,0.97,-0.04,-0.34,-0.17,1.0
2024-12-06 12:26:41.399,-1.35,463.0,0.18,0.97,-0.04,-0.34,-0.17,1.0
2024-12-06 12:26:41.435,-2.02,455.0,0.18,0.97,-0.04,-0.1,0.56,0.45
2024-12-06 12:26:41.442,-0.22,461.0,0.18,0.97,-0.04,0.03,0.62,0.33
2024-12-06 12:26:41.449,0.9,464.0,0.18,0.97,-0.04,0.09,0.56,0.27
2024-12-06 12:26:41.459,-2.7,463.0,0.18,0.97,-0.04,0.15,0.5,0.21
2024-12-06 12:26:41.468,2.7,477.0,0.18,0.97,-0.04,0.15,0.38,0.09
2024-12-06 12:26:41.483,-0.22,465.0,0.18,0.98,-0.04,0.15,-0.05,0.09
2024-12-06 12:26:41.490,-0.22,461.0,0.18,0.98,-0.04,0.03,-0.42,0.03
2024-12-06 12:26:41.496,-2.7,473.0,0.18,0.98,-0.04,-0.03,-0.78,-0.04
2024-12-06 12:26:41.504,-1.12,464.0,0.18,0.98,-0.04,-0.22,-1.03,-0.04
2024-12-06 12:26:41.512,-2.47,465.0,0.18,0.98,-0.04,-0.28,-1.03,-0.1
2024-12-06 12:26:41.520,1.8,471.0,0.18,0.98,-0.04,-0.22,-0.78,-0.16
2024-12-06 12:26:41.528,0.45,461.0,0.18,0.97,-0.04,-0.22,-0.78,-0.16
2024-12-06 12:26:41.537,0.22,462.0,0.18,0.97,-0.04,-0.22,-0.48,-0.16
2024-12-06 12:26:41.546,-4.28,466.0,0.18,0.97,-0.04,-0.16,-0.11,-0.1
2024-12-06 12:26:41.555,-1.35,473.0,0.18,0.97,-0.04,-0.03,0.26,-0.04
2024-12-06 12:26:41.559,-2.7,474.0,0.18,0.97,-0.04,0.09,0.68,-0.1
2024-12-06 12:26:41.567,0.0,470.0,0.18,0.97,-0.04,0.09,0.87,-0.16
2024-12-06 12:26:41.588,-2.02,478.0,0.18,0.97,-0.04,0.15,0.87,-0.16
2024-12-06 12:26:41.591,-5.85,463.0,0.18,0.97,-0.04,0.15,0.68,-0.28
2024-12-06 12:26:41.597,1.8,472.0,0.18,0.97,-0.04,0.15,0.32,-0.28
2024-12-06 12:26:41.704,1.57,461.0,0.18,0.97,-0.04,0.09,0.01,-0.22
2024-12-06 12:26:41.717,-2.25,456.0,0.18,0.97,-0.03,0.03,0.44,0.58
2024-12-06 12:26:41.731,2.25,463.0,0.18,0.97,-0.04,0.03,0.44,0.64
2024-12-06 12:26:41.741,-0.22,471.0,0.18,0.97,-0.04,-0.03,0.44,0.58
2024-12-06 12:26:41.747,0.22,469.0,0.18,0.97,-0.04,-0.16,0.38,0.58
2024-12-06 12:26:41.753,-2.7,460.0,0.18,0.97,-0.04,-0.22,0.26,0.58
2024-12-06 12:26:41.756,-2.02,470.0,0.18,0.97,-0.04,-0.28,0.07,0.58
2024-12-06 12:26:41.765,-0.22,463.0,0.18,0.97,-0.04,-0.28,0.07,0.58
2024-12-06 12:26:41.778,1.35,453.0,0.18,0.97,-0.04,-0.34,0.13,0.64
2024-12-06 12:26:41.782,-0.45,473.0,0.18,0.97,-0.04,-0.34,0.01,0.64
2024-12-06 12:26:41.793,-0.9,465.0,0.18,0.97,-0.04,-0.28,-0.11,0.7
2024-12-06 12:26:41.796,-2.92,455.0,0.18,0.97,-0.04,-0.28,-0.17,0.64
2024-12-06 12:26:41.803,-0.22,473.0,0.18,0.97,-0.04,-0.28,-0.17,0.51
2024-12-06 12:26:41.810,0.9,475.0,0.18,0.97,-0.04,-0.28,-0.17,0.51
2024-12-06 12:26:41.821,-6.07,457.0,0.18,0.97,-0.04,-0.28,-0.29,0.33
2024-12-06 12:26:41.825,-1.8,488.0,0.18,0.97,-0.04,-0.28,-0.48,0.27
2024-12-06 12:26:41.839,2.25,456.0,0.18,0.97,-0.04,-0.22,-0.66,0.09
2024-12-06 12:26:41.842,-2.25,464.0,0.18,0.98,-0.04,-0.22,-0.84,-0.1
2024-12-06 12:26:41.873,-5.4,471.0,0.18,0.98,-0.04,-0.16,-0.78,-0.28
2024-12-06 12:26:41.883,1.35,457.0,0.18,0.98,-0.04,-0.16,-0.54,-0.28
2024-12-06 12:26:41.888,0.22,462.0,0.18,0.98,-0.04,-0.16,-0.54,-0.28
2024-12-06 12:26:41.894,0.9,510.0,0.18,0.97,-0.04,-0.16,-0.23,-0.28
2024-12-06 12:26:41.907,-0.9,463.0,0.18,0.97,-0.04,-0.16,0.07,-0.28
2024-12-06 12:26:41.911,2.7,471.0,0.18,0.97,-0.04,-0.16,0.26,-0.22
2024-12-06 12:26:41.931,0.9,459.0,0.18,0.97,-0.04,-0.28,0.5,-0.16
2024-12-06 12:26:41.935,-1.8,467.0,0.18,0.97,-0.04,-0.28,0.5,-0.16
2024-12-06 12:26:41.940,0.9,455.0,0.18,0.97,-0.04,-0.34,0.32,-0.1
2024-12-06 12:26:41.948,-0.9,459.0,0.19,0.97,-0.03,-0.34,0.01,0.09
2024-12-06 12:26:41.958,0.9,480.0,0.19,0.97,-0.03,-0.34,-0.35,0.15
2024-12-06 12:26:41.963,0.22,459.0,0.18,0.97,-0.03,-0.46,-0.48,0.15
2024-12-06 12:26:41.971,0.45,461.0,0.18,0.97,-0.04,-0.46,-0.48,0.15
2024-12-06 12:26:41.980,2.25,467.0,0.18,0.97,-0.04,-0.46,-0.54,0.09
2024-12-06 12:26:41.987,0.22,471.0,0.18,0.97,-0.04,-0.52,-0.72,-0.04
2024-12-06 12:26:41.995,2.25,472.0,0.18,0.97,-0.04,-0.52,-0.9,0.03
2024-12-06 12:26:42.3,-3.38,458.0,0.18,0.97,-0.04,-0.46,-0.9,0.03
2024-12-06 12:26:42.15,-6.07,461.0,0.18,0.98,-0.03,-0.4,-0.84,-0.04
2024-12-06 12:26:42.19,-1.12,462.0,0.18,0.98,-0.03,-0.4,-0.84,-0.04
2024-12-06 12:26:42.28,1.12,483.0,0.18,0.98,-0.04,-0.34,-0.78,0.03
2024-12-06 12:26:42.36,-4.72,460.0,0.18,0.98,-0.04,-0.28,-0.6,-0.04
2024-12-06 12:26:42.44,0.45,460.0,0.18,0.98,-0.04,-0.22,-0.54,-0.1
2024-12-06 12:26:42.51,-1.12,456.0,0.18,0.98,-0.04,-0.16,-0.6,-0.1
2024-12-06 12:26:42.58,-0.9,457.0,0.18,0.97,-0.04,-0.16,-0.6,-0.1
2024-12-06 12:26:42.65,-2.7,474.0,0.18,0.97,-0.04,-0.03,-0.54,-0.1
2024-12-06 12:26:42.94,2.47,460.0,0.17,0.97,-0.04,-0.1,-0.29,-0.28
2024-12-06 12:26:42.96,1.57,463.0,0.17,0.97,-0.04,-0.1,-0.23,-0.28
2024-12-06 12:26:42.105,-1.57,463.0,0.17,0.97,-0.04,-0.1,-0.23,-0.28
2024-12-06 12:26:42.111,-0.22,459.0,0.18,0.97,-0.04,-0.16,-0.11,-0.16
2024-12-06 12:26:42.120,2.02,454.0,0.18,0.97,-0.04,-0.16,0.01,-0.04
2024-12-06 12:26:42.128,0.22,476.0,0.18,0.97,-0.04,-0.22,0.19,0.09
2024-12-06 12:26:42.134,1.8,482.0,0.18,0.97,-0.04,-0.22,0.5,0.21
2024-12-06 12:26:42.143,-0.45,455.0,0.18,0.97,-0.04,-0.22,0.68,0.27
2024-12-06 12:26:42.151,-1.12,467.0,0.18,0.97,-0.04,-0.22,0.68,0.27
2024-12-06 12:26:43.160,-3.6,468.0,0.18,0.97,-0.04,-0.03,0.5,0.45
2024-12-06 12:26:43.188,-1.8,464.0,0.19,0.97,-0.04,-0.1,0.68,0.7
2024-12-06 12:26:43.213,2.25,457.0,0.18,0.97,-0.04,-0.1,0.8,1.31
2024-12-06 12:26:43.286,-2.02,477.0,0.2,0.98,-0.03,-0.1,-0.35,0.64
2024-12-06 12:26:43.295,-3.6,482.0,0.18,0.98,-0.04,-0.16,-0.17,0.21
2024-12-06 12:26:43.338,-2.92,469.0,0.18,0.97,-0.04,0.03,0.07,0.39
2024-12-06 12:26:43.351,-1.8,454.0,0.18,0.97,-0.04,-0.16,-0.11,0.09
2024-12-06 12:26:43.379,-2.02,461.0,0.18,0.97,-0.04,-0.4,-0.29,-0.22
2024-12-06 12:26:43.405,0.0,470.0,0.15,0.95,-0.03,-0.83,-4.26,-3.64
2024-12-06 12:26:43.433,1.8,466.0,0.2,0.97,-0.02,-1.13,-6.15,-5.77
2024-12-06 12:26:43.476,3.82,478.0,0.14,0.95,-0.04,-0.77,-7.37,-9.43
2024-12-06 12:26:43.490,5.17,458.0,0.19,0.97,-0.06,-0.52,-8.41,-10.35
2024-12-06 12:26:43.516,7.42,472.0,0.15,0.99,-0.05,1.86,-3.59,-8.21
2024-12-06 12:26:43.561,3.82,471.0,0.15,0.99,-0.02,0.33,-1.45,-6.69
2024-12-06 12:26:43.571,6.07,474.0,0.13,0.98,-0.05,-0.83,0.5,-5.65
2024-12-06 12:26:43.600,5.4,464.0,0.14,0.97,-0.05,-1.38,4.28,-4.49
2024-12-06 12:26:43.627,4.72,464.0,0.15,0.99,-0.06,-0.52,6.66,-1.93
2024-12-06 12:26:43.656,13.72,474.0,0.14,0.99,-0.05,-0.95,7.27,-1.38
2024-12-06 12:26:43.683,11.92,498.0,0.16,0.99,-0.05,-0.16,9.72,1.31
2024-12-06 12:26:43.796,11.92,467.0,0.15,0.99,-0.05,0.82,11.24,2.77
2024-12-06 12:26:43.805,16.2,483.0,0.17,0.97,-0.03,2.35,8.92,6.31
2024-12-06 12:26:43.820,18.9,488.0,0.18,0.97,-0.03,2.04,8.43,6.37
2024-12-06 12:26:43.846,20.48,486.0,0.17,0.98,-0.03,2.1,7.88,6.62
2024-12-06 12:26:43.875,22.95,486.0,0.18,0.97,-0.03,1.74,6.91,5.82
2024-12-06 12:26:43.916,21.6,477.0,0.17,0.96,-0.04,1.92,6.54,4.97
2024-12-06 12:26:43.932,20.48,470.0,0.17,0.96,-0.04,1.8,6.3,3.57
2024-12-06 12:26:43.957,24.52,474.0,0.18,0.97,-0.04,1.67,5.63,2.77
2024-12-06 12:26:43.987,25.88,488.0,0.17,0.97,-0.04,1.49,4.16,1.86
2024-12-06 12:26:44.12,25.88,475.0,0.18,0.98,-0.04,0.82,3.06,1.8
2024-12-06 12:26:44.43,27.22,477.0,0.16,0.97,-0.04,0.64,3.19,0.58
2024-12-06 12:26:44.71,23.4,478.0,0.18,0.97,-0.03,0.39,3.06,0.33
2024-12-06 12:26:44.94,28.35,491.0,0.18,0.97,-0.04,0.64,3.49,0.39
2024-12-06 12:26:44.128,23.62,480.0,0.19,0.98,-0.04,0.45,3.12,0.21
2024-12-06 12:26:44.153,27.0,483.0,0.18,0.98,-0.04,0.03,1.6,0.76
2024-12-06 12:26:44.177,27.45,496.0,0.17,0.97,-0.04,-0.4,0.56,-0.58
2024-12-06 12:26:44.205,34.2,492.0,0.19,0.98,-0.04,-0.95,1.17,0.94
2024-12-06 12:26:44.232,33.75,482.0,0.18,0.98,-0.04,-0.77,2.57,0.94
2024-12-06 12:26:44.261,34.88,515.0,0.21,0.99,-0.04,-1.19,3.19,3.57
2024-12-06 12:26:44.293,34.88,480.0,0.18,0.97,-0.05,-0.64,3.37,4.36
2024-12-06 12:26:44.318,36.22,478.0,0.2,0.97,-0.03,-0.52,2.64,3.75
2024-12-06 12:26:44.352,40.27,492.0,0.2,0.97,-0.03,0.03,1.96,3.87
2024-12-06 12:26:44.372,37.8,481.0,0.18,0.96,-0.03,0.21,1.9,2.16
2024-12-06 12:26:44.398,38.02,482.0,0.19,0.97,-0.03,0.45,2.51,2.47
2024-12-06 12:26:44.426,39.83,496.0,0.18,0.97,-0.04,0.45,2.82,1.86
2024-12-06 12:26:44.454,43.2,488.0,0.2,0.98,-0.04,0.03,2.33,2.41
2024-12-06 12:26:44.482,40.72,486.0,0.19,0.97,-0.04,-0.22,1.84,2.83
2024-12-06 12:26:44.511,42.08,494.0,0.2,0.97,-0.04,-0.58,1.17,3.14
2024-12-06 12:26:44.539,40.95,488.0,0.19,0.97,-0.03,-0.52,1.05,2.96
2024-12-06 12:26:44.578,45.0,489.0,0.2,0.97,-0.03,-0.52,0.93,2.71
2024-12-06 12:26:44.594,45.45,483.0,0.21,0.98,-0.03,-0.46,1.05,3.08
2024-12-06 12:26:44.621,49.95,485.0,0.21,0.97,-0.03,-0.34,0.8,3.57
2024-12-06 12:26:44.651,49.05,487.0,0.21,0.97,-0.04,-0.4,0.38,4.54
2024-12-06 12:26:44.675,50.17,486.0,0.21,0.97,-0.04,-0.4,-0.6,4.42
2024-12-06 12:26:44.703,51.52,510.0,0.22,0.97,-0.03,-0.4,-1.27,4.79
2024-12-06 12:26:44.730,49.72,487.0,0.21,0.97,-0.03,-0.1,-1.27,4.54
2024-12-06 12:26:44.863,53.77,498.0,0.21,0.96,-0.03,-0.16,-1.15,4.12
2024-12-06 12:26:44.868,54.22,499.0,0.23,0.97,-0.03,-0.46,-2.55,4.05
2024-12-06 12:26:44.873,57.6,499.0,0.23,0.98,-0.04,-0.71,-3.04,4.85
2024-12-06 12:26:44.899,58.5,485.0,0.22,0.97,-0.04,-0.95,-3.41,5.34
2024-12-06 12:26:44.924,57.15,501.0,0.23,0.96,-0.04,-0.95,-3.53,5.64
2024-12-06 12:26:44.950,62.1,510.0,0.23,0.96,-0.03,-0.95,-3.28,5.4
2024-12-06 12:26:44.978,64.8,512.0,0.23,0.96,-0.03,-0.89,-3.22,5.27
2024-12-06 12:26:45.33,62.1,492.0,0.24,0.96,-0.03,-0.64,-3.53,5.09
2024-12-06 12:26:45.38,64.35,498.0,0.25,0.98,-0.03,-0.52,-4.2,5.27
2024-12-06 12:26:45.61,65.7,492.0,0.24,0.97,-0.03,-0.46,-4.44,5.58
2024-12-06 12:26:45.90,65.03,494.0,0.24,0.96,-0.03,-0.58,-4.02,5.7
2024-12-06 12:26:45.116,66.15,509.0,0.23,0.95,-0.04,-0.64,-3.47,5.46
2024-12-06 12:26:45.143,64.57,498.0,0.25,0.95,-0.04,-0.83,-4.38,4.91
2024-12-06 12:26:45.175,67.5,496.0,0.25,0.95,-0.04,-0.95,-4.75,4.42
2024-12-06 12:26:45.199,69.97,497.0,0.24,0.95,-0.03,-0.64,-5.05,3.69
2024-12-06 12:26:45.228,66.38,509.0,0.26,0.97,-0.03,-0.83,-4.93,4.12
2024-12-06 12:26:45.260,68.85,500.0,0.25,0.96,-0.04,-0.71,-3.83,4.48
2024-12-06 12:26:45.283,70.65,500.0,0.26,0.96,-0.04,-0.52,-3.83,5.52
2024-12-06 12:26:45.311,74.25,495.0,0.25,0.94,-0.05,-0.46,-3.41,6.01
2024-12-06 12:26:45.337,75.82,512.0,0.26,0.94,-0.04,-0.64,-3.65,5.46
2024-12-06 12:26:46.41,86.4,508.0,0.28,0.95,-0.04,-0.46,1.35,-1.44
2024-12-06 12:26:46.44,88.65,518.0,0.28,0.95,-0.04,-0.64,1.11,-1.07
2024-12-06 12:26:46.52,87.75,538.0,0.28,0.95,-0.04,-0.64,0.99,-0.71
2024-12-06 12:26:46.61,83.47,511.0,0.29,0.95,-0.04,-0.71,0.8,-0.4
2024-12-06 12:26:46.71,84.82,511.0,0.29,0.95,-0.04,-0.71,0.8,-0.4
2024-12-06 12:26:46.75,87.52,513.0,0.29,0.95,-0.04,-0.71,0.68,-0.16
2024-12-06 12:26:46.83,85.72,513.0,0.29,0.95,-0.04,-0.71,0.44,-0.04
2024-12-06 12:26:46.90,85.72,504.0,0.29,0.95,-0.04,-0.71,0.38,0.15
2024-12-06 12:26:46.102,84.38,517.0,0.29,0.95,-0.04,-0.64,0.26,0.15
2024-12-06 12:26:46.114,87.3,526.0,0.29,0.95,-0.03,-0.52,-0.05,0.15
2024-12-06 12:26:46.120,78.75,505.0,0.29,0.95,-0.03,-0.52,-0.05,0.15
2024-12-06 12:26:46.124,85.72,532.0,0.29,0.95,-0.03,-0.4,-0.35,0.27
2024-12-06 12:26:46.132,87.07,510.0,0.29,0.95,-0.03,-0.34,-0.6,0.21
2024-12-06 12:26:46.176,83.92,510.0,0.28,0.95,-0.03,-0.28,-1.03,-0.16
2024-12-06 12:26:46.183,86.62,507.0,0.28,0.95,-0.04,-0.28,-1.03,-0.16
2024-12-06 12:26:46.192,85.5,515.0,0.28,0.94,-0.04,-0.46,-1.03,-0.16
2024-12-06 12:26:46.200,85.5,520.0,0.28,0.94,-0.04,-0.52,-1.15,-0.16
2024-12-06 12:26:46.208,87.97,508.0,0.28,0.94,-0.04,-0.64,-1.27,-0.22
2024-12-06 12:26:46.215,85.95,513.0,0.28,0.94,-0.04,-0.71,-1.39,-0.28
2024-12-06 12:26:46.221,83.03,530.0,0.28,0.94,-0.04,-0.77,-1.51,-0.34
2024-12-06 12:26:46.233,86.62,500.0,0.28,0.94,-0.03,-0.77,-1.51,-0.34
2024-12-06 12:26:46.239,89.1,510.0,0.28,0.94,-0.03,-0.77,-1.64,-0.4
2024-12-06 12:26:46.248,86.17,513.0,0.28,0.94,-0.03,-0.77,-1.58,-0.4
2024-12-06 12:26:46.253,85.95,507.0,0.28,0.94,-0.03,-0.83,-1.51,-0.52
2024-12-06 12:26:46.260,85.28,510.0,0.28,0.95,-0.03,-0.89,-1.33,-0.65
2024-12-06 12:26:46.268,84.6,505.0,0.28,0.95,-0.03,-0.95,-1.21,-0.77
2024-12-06 12:26:46.302,81.67,516.0,0.28,0.95,-0.03,-0.95,-1.09,-0.95
2024-12-06 12:26:46.305,81.45,499.0,0.28,0.95,-0.03,-1.01,-1.15,-1.01
2024-12-06 12:26:46.319,88.65,509.0,0.28,0.95,-0.03,-1.01,-1.15,-1.07
2024-12-06 12:26:46.325,85.05,500.0,0.28,0.95,-0.03,-1.13,-1.27,-1.07
2024-12-06 12:26:46.330,87.52,524.0,0.28,0.95,-0.04,-1.19,-1.45,-1.07
2024-12-06 12:26:46.357,82.12,504.0,0.28,0.96,-0.04,-1.32,-2.0,-0.83
2024-12-06 12:26:46.360,85.5,518.0,0.28,0.96,-0.04,-1.32,-2.0,-0.83
2024-12-06 12:26:46.370,86.85,500.0,0.28,0.95,-0.04,-1.32,-2.19,-0.65
2024-12-06 12:26:46.383,84.82,524.0,0.28,0.95,-0.04,-1.26,-2.31,-0.34
2024-12-06 12:26:46.393,84.82,506.0,0.28,0.95,-0.04,-1.26,-2.31,-0.16
2024-12-06 12:26:46.398,85.5,513.0,0.28,0.95,-0.04,-1.19,-2.25,0.09
2024-12-06 12:26:46.434,85.72,506.0,0.28,0.95,-0.04,-0.77,-2.06,0.45
2024-12-06 12:26:46.438,89.1,507.0,0.28,0.95,-0.03,-0.71,-1.88,0.51
2024-12-06 12:26:46.443,87.97,511.0,0.28,0.95,-0.03,-0.64,-1.7,0.51
2024-12-06 12:26:46.451,83.7,503.0,0.28,0.95,-0.03,-0.58,-1.58,0.51
2024-12-06 12:26:46.461,83.92,517.0,0.28,0.95,-0.03,-0.52,-1.39,0.39
2024-12-06 12:26:46.475,86.62,511.0,0.28,0.95,-0.03,-0.4,-1.27,0.39
2024-12-06 12:26:46.479,87.3,495.0,0.28,0.95,-0.03,-0.4,-1.15,0.33
2024-12-06 12:26:46.483,85.05,516.0,0.28,0.95,-0.03,-0.4,-1.15,0.33
2024-12-06 12:26:46.491,86.62,515.0,0.27,0.95,-0.03,-0.34,-0.9,0.15
2024-12-06 12:26:46.502,85.95,510.0,0.27,0.95,-0.03,-0.4,-0.66,0.03
2024-12-06 12:26:46.507,86.62,510.0,0.27,0.95,-0.03,-0.4,-0.6,-0.16
2024-12-06 12:26:46.514,86.85,499.0,0.27,0.95,-0.03,-0.34,-0.6,-0.22
2024-12-06 12:26:46.530,83.25,502.0,0.27,0.95,-0.03,-0.4,-0.72,-0.34
2024-12-06 12:26:46.532,86.85,514.0,0.27,0.95,-0.03,-0.4,-0.72,-0.34
2024-12-06 12:26:46.541,81.9,523.0,0.27,0.95,-0.04,-0.46,-0.9,-0.4
2024-12-06 12:26:46.546,86.4,503.0,0.27,0.95,-0.04,-0.58,-1.09,-0.46
2024-12-06 12:26:46.553,85.05,508.0,0.28,0.95,-0.04,-0.64,-1.33,-0.58
2024-12-06 12:26:46.575,83.47,511.0,0.28,0.95,-0.04,-0.77,-1.64,-0.65
2024-12-06 12:26:46.579,82.12,514.0,0.28,0.95,-0.04,-0.77,-1.94,-0.65
2024-12-06 12:26:46.583,85.95,506.0,0.28,0.95,-0.03,-0.71,-2.19,-0.65
2024-12-06 12:26:46.618,81.45,505.0,0.27,0.95,-0.03,-0.64,-2.06,-0.65
2024-12-06 12:26:46.622,82.35,511.0,0.27,0.95,-0.03,-0.64,-2.0,-0.46
2024-12-06 12:26:46.631,87.07,500.0,0.27,0.95,-0.03,-0.64,-1.88,-0.4
2024-12-06 12:26:46.637,89.32,519.0,0.27,0.95,-0.03,-0.71,-1.64,-0.34
2024-12-06 12:26:46.647,81.9,548.0,0.27,0.95,-0.03,-0.77,-1.39,-0.34
2024-12-06 12:26:46.653,88.2,507.0,0.27,0.95,-0.03,-0.77,-1.39,-0.34
2024-12-06 12:26:46.660,85.95,513.0,0.27,0.95,-0.03,-0.83,-1.27,-0.34
2024-12-06 12:26:46.671,83.03,512.0,0.27,0.95,-0.03,-0.89,-1.03,-0.34
2024-12-06 12:26:46.684,87.52,505.0,0.27,0.95,-0.03,-0.83,-0.9,-0.4
2024-12-06 12:26:46.689,87.07,517.0,0.27,0.95,-0.03,-0.71,-0.84,-0.4
