Timestamp,PosIsDeg,ForceIs,AccX,AccY,AccZ,GyroX,GyroY,GyroZ
2024-12-06 12:23:49.780,-3.38,467.0,0.25,0.96,-0.03,-0.28,-0.54,-0.04
2024-12-06 12:23:49.789,-2.47,452.0,0.25,0.96,-0.03,-0.03,0.44,0.09
2024-12-06 12:23:49.801,-4.95,452.0,0.24,0.95,-0.03,-0.03,-0.42,-1.07
2024-12-06 12:23:49.830,3.15,454.0,0.22,0.94,-0.03,0.94,-7.19,-5.71
2024-12-06 12:23:49.864,3.15,460.0,0.18,0.91,-0.01,0.94,-8.05,-15.78
2024-12-06 12:23:49.889,1.57,455.0,0.26,0.98,-0.04,1.55,-2.37,-11.57
2024-12-06 12:23:49.914,3.6,453.0,0.25,1.0,-0.06,2.04,3.43,-6.08
2024-12-06 12:23:49.938,6.52,455.0,0.23,0.97,-0.03,0.82,5.02,-4.25
2024-12-06 12:23:49.985,7.2,458.0,0.22,0.96,-0.03,-1.19,4.65,-2.78
2024-12-06 12:23:49.995,7.88,468.0,0.2,0.95,-0.02,-1.38,2.21,-4.61
2024-12-06 12:23:50.18,10.8,456.0,0.21,0.97,-0.05,-1.01,1.42,-6.32
2024-12-06 12:23:50.51,13.72,463.0,0.22,0.98,-0.04,-0.34,2.88,-5.22
2024-12-06 12:23:50.88,9.22,452.0,0.22,0.99,-0.06,-0.52,6.48,-1.74
2024-12-06 12:23:50.108,11.47,458.0,0.23,0.99,-0.04,-0.34,9.04,1.19
2024-12-06 12:23:50.131,16.42,460.0,0.26,0.99,-0.03,0.45,11.36,4.54
2024-12-06 12:23:50.178,15.07,456.0,0.27,0.98,-0.03,1.19,13.01,8.81
2024-12-06 12:23:50.184,19.8,463.0,0.27,0.97,-0.03,2.53,12.34,10.4
2024-12-06 12:23:50.220,18.45,456.0,0.27,0.96,-0.01,3.51,10.75,11.13
2024-12-06 12:23:50.241,17.77,452.0,0.27,0.96,-0.01,4.18,9.41,10.77
2024-12-06 12:23:50.270,19.12,459.0,0.26,0.96,-0.02,4.6,7.7,9.91
2024-12-06 12:23:50.295,22.5,472.0,0.23,0.95,-0.02,3.87,6.66,8.63
2024-12-06 12:23:50.323,24.07,473.0,0.23,0.95,-0.02,3.14,6.79,6.62
2024-12-06 12:23:50.351,21.15,487.0,0.23,0.95,-0.03,2.77,8.62,5.7
2024-12-06 12:23:50.378,22.95,461.0,0.23,0.95,-0.03,2.28,9.84,3.75
2024-12-06 12:23:50.406,24.07,477.0,0.24,0.95,-0.03,1.92,9.84,1.92
2024-12-06 12:23:50.442,29.02,474.0,0.25,0.95,-0.02,1.49,8.01,-0.34
2024-12-06 12:23:50.460,29.47,470.0,0.25,0.95,-0.03,1.67,6.18,-1.99
2024-12-06 12:23:50.491,31.27,473.0,0.25,0.96,-0.03,1.86,5.38,-3.21
2024-12-06 12:23:50.516,32.4,463.0,0.25,0.96,-0.03,1.61,4.71,-3.39
2024-12-06 12:23:50.543,27.45,481.0,0.24,0.95,-0.04,1.43,3.92,-2.96
2024-12-06 12:23:50.573,32.17,484.0,0.25,0.95,-0.03,0.94,3.55,-2.66
2024-12-06 12:23:50.607,31.05,480.0,0.25,0.96,-0.03,1.25,4.04,-1.68
2024-12-06 12:23:50.626,33.52,476.0,0.25,0.96,-0.02,0.88,4.41,-1.62
2024-12-06 12:23:50.724,32.17,472.0,0.26,0.96,-0.02,0.7,3.61,0.15
2024-12-06 12:23:50.736,37.58,478.0,0.24,0.96,-0.03,0.45,2.82,0.33
2024-12-06 12:23:50.769,38.02,500.0,0.25,0.96,-0.03,-0.1,1.6,0.45
2024-12-06 12:23:50.791,40.95,474.0,0.26,0.96,-0.02,-0.58,0.07,1.67
2024-12-06 12:23:50.819,44.1,473.0,0.26,0.96,-0.02,-1.01,-0.72,2.41
2024-12-06 12:23:50.847,42.08,471.0,0.25,0.96,-0.02,-0.89,-0.42,3.2
2024-12-06 12:23:50.886,43.2,475.0,0.26,0.95,-0.02,-0.89,0.13,3.08
2024-12-06 12:23:50.901,46.57,505.0,0.26,0.95,-0.03,-0.64,-0.17,2.71
2024-12-06 12:23:50.929,44.77,475.0,0.25,0.94,-0.03,-0.46,-0.66,1.55
2024-12-06 12:23:50.958,46.8,483.0,0.26,0.96,-0.03,-0.22,-1.39,1.55
2024-12-06 12:23:50.985,48.6,482.0,0.25,0.96,-0.03,-0.22,-1.64,1.06
2024-12-06 12:23:51.17,49.72,478.0,0.25,0.97,-0.03,-0.71,-1.7,1.61
2024-12-06 12:23:51.39,45.9,484.0,0.23,0.95,-0.03,-0.77,-0.54,1.19
2024-12-06 12:23:51.77,51.3,495.0,0.26,0.95,-0.03,-0.77,0.38,1.31
2024-12-06 12:23:51.144,47.7,473.0,0.26,0.95,-0.03,-0.64,0.32,1.55
2024-12-06 12:23:51.152,54.22,490.0,0.26,0.95,-0.03,-0.77,-0.35,0.94
2024-12-06 12:23:51.157,53.55,508.0,0.26,0.96,-0.02,-0.77,-1.51,0.88
2024-12-06 12:23:51.176,54.9,471.0,0.25,0.95,-0.02,-0.89,-1.94,-0.28
2024-12-06 12:23:51.225,57.38,493.0,0.26,0.96,-0.02,-1.01,-2.37,-0.46
2024-12-06 12:23:51.232,58.27,481.0,0.26,0.96,-0.03,-1.19,-2.55,-0.22
2024-12-06 12:23:51.260,56.02,484.0,0.26,0.95,-0.02,-1.5,-3.41,-0.1
2024-12-06 12:23:51.301,57.82,486.0,0.26,0.95,-0.02,-1.87,-4.2,0.58
2024-12-06 12:23:51.337,60.3,486.0,0.26,0.95,-0.02,-2.66,-5.24,0.03
2024-12-06 12:23:51.342,63.22,498.0,0.27,0.97,-0.01,-3.33,-6.15,0.21
2024-12-06 12:23:51.375,60.3,495.0,0.26,0.97,-0.01,-4.12,-7.62,0.7
2024-12-06 12:23:51.400,60.97,489.0,0.28,0.95,-0.01,-4.18,-8.9,0.76
2024-12-06 12:23:51.431,61.88,482.0,0.27,0.94,-0.02,-3.7,-9.21,1.49
2024-12-06 12:23:51.453,63.67,512.0,0.27,0.94,-0.02,-3.45,-8.9,1.12
2024-12-06 12:23:51.480,64.57,494.0,0.25,0.94,-0.03,-3.09,-8.11,0.64
2024-12-06 12:23:51.508,64.12,495.0,0.24,0.94,-0.02,-2.48,-6.34,-1.38
2024-12-06 12:23:51.560,67.5,492.0,0.24,0.96,-0.03,-1.93,-5.54,-3.21
2024-12-06 12:23:51.563,66.15,500.0,0.24,0.97,-0.03,-1.19,-6.09,-5.77
2024-12-06 12:23:51.591,67.05,497.0,0.25,0.97,-0.02,-1.01,-6.52,-6.75
2024-12-06 12:23:51.619,70.42,500.0,0.25,0.96,-0.01,-0.77,-4.93,-5.89
2024-12-06 12:23:51.646,71.78,506.0,0.25,0.94,-0.01,-0.64,-2.25,-4.61
2024-12-06 12:23:51.679,73.12,507.0,0.26,0.95,-0.01,-0.83,-0.84,-2.96
2024-12-06 12:23:51.782,73.12,520.0,0.24,0.97,-0.02,-1.19,-2.49,-0.58
2024-12-06 12:23:51.795,74.03,521.0,0.24,0.97,-0.02,-1.19,-2.55,-0.58
2024-12-06 12:23:51.812,67.28,514.0,0.25,0.97,-0.01,-0.71,-2.37,-0.52
2024-12-06 12:23:51.844,79.42,516.0,0.24,0.96,-0.02,-0.64,-2.74,-0.28
2024-12-06 12:23:51.870,79.88,517.0,0.25,0.95,-0.02,-0.46,-3.04,-0.46
2024-12-06 12:23:51.899,80.1,535.0,0.24,0.97,-0.02,-0.83,-4.32,0.33
2024-12-06 12:23:51.936,77.4,537.0,0.24,0.96,-0.02,-1.19,-4.08,0.39
2024-12-06 12:23:51.982,82.8,543.0,0.25,0.97,-0.02,-1.93,-5.3,1.67
2024-12-06 12:23:52.12,81.0,529.0,0.24,0.95,-0.02,-2.66,-6.52,3.38
2024-12-06 12:23:52.33,83.25,527.0,0.25,0.97,-0.01,-2.6,-6.4,4.66
2024-12-06 12:23:52.44,83.7,534.0,0.25,0.98,-0.01,-2.6,-6.4,4.66
2024-12-06 12:23:52.59,85.5,538.0,0.24,0.97,-0.01,-2.48,-6.28,4.91
2024-12-06 12:23:52.68,84.38,546.0,0.24,0.97,-0.02,-2.41,-5.79,4.6
2024-12-06 12:23:52.71,85.72,554.0,0.24,0.97,-0.02,-2.29,-5.36,4.24
2024-12-06 12:23:52.81,87.97,539.0,0.24,0.96,-0.02,-2.29,-5.36,4.24
2024-12-06 12:23:52.96,85.28,559.0,0.25,0.96,-0.01,-2.29,-5.54,3.99
2024-12-06 12:23:52.99,85.72,527.0,0.25,0.97,-0.01,-2.35,-6.15,4.18
2024-12-06 12:23:52.104,81.0,540.0,0.24,0.98,-0.02,-2.41,-6.76,4.36
2024-12-06 12:23:52.147,86.17,561.0,0.24,0.99,-0.02,-2.9,-8.35,5.7
2024-12-06 12:23:52.150,86.62,534.0,0.24,0.99,-0.02,-3.39,-9.02,6.68
2024-12-06 12:23:52.169,85.72,546.0,0.24,0.99,-0.03,-3.45,-8.84,7.35
2024-12-06 12:23:52.192,83.25,566.0,0.23,0.95,-0.03,-3.88,-8.53,8.2
2024-12-06 12:23:52.195,87.75,539.0,0.23,0.94,-0.03,-4.86,-8.59,9.24
2024-12-06 12:23:52.202,87.07,551.0,0.23,0.94,-0.02,-4.86,-8.59,9.24
2024-12-06 12:23:52.232,88.2,556.0,0.25,0.95,-0.01,-6.63,-9.75,10.34
2024-12-06 12:23:52.239,87.97,539.0,0.25,0.95,-0.0,-6.63,-9.75,10.34
2024-12-06 12:23:52.250,84.6,554.0,0.26,0.95,-0.0,-6.93,-9.82,10.34
2024-12-06 12:23:52.254,82.57,554.0,0.26,0.96,0.0,-7.11,-9.82,10.46
2024-12-06 12:23:52.262,85.95,541.0,0.27,0.96,0.0,-7.05,-9.63,10.46
2024-12-06 12:23:52.270,81.9,557.0,0.27,0.96,-0.0,-6.81,-9.27,10.58
2024-12-06 12:23:52.307,87.3,552.0,0.27,0.96,-0.0,-6.5,-8.84,10.58
2024-12-06 12:23:52.311,87.3,543.0,0.29,0.94,-0.01,-5.04,-7.37,10.04
2024-12-06 12:23:52.317,83.92,566.0,0.29,0.94,-0.01,-4.55,-6.95,9.67
2024-12-06 12:23:52.323,84.15,562.0,0.3,0.94,-0.01,-4.55,-6.95,9.67
2024-12-06 12:23:52.352,86.62,544.0,0.3,0.94,-0.01,-3.94,-6.64,9.18
2024-12-06 12:23:52.363,88.65,547.0,0.3,0.94,-0.01,-2.11,-4.75,7.17
2024-12-06 12:23:52.368,86.17,559.0,0.3,0.94,-0.0,-2.11,-4.75,7.17
2024-12-06 12:23:52.370,88.2,542.0,0.3,0.93,-0.0,-1.44,-3.71,6.37
2024-12-06 12:23:52.377,82.12,539.0,0.29,0.93,0.0,-0.77,-2.55,5.52
2024-12-06 12:23:52.395,83.03,545.0,0.29,0.93,0.0,-0.1,-1.09,4.48
2024-12-06 12:23:52.399,87.07,542.0,0.29,0.93,0.01,0.39,0.5,3.38
2024-12-06 12:23:52.401,88.42,552.0,0.29,0.92,0.01,0.94,1.96,2.1
2024-12-06 12:23:52.408,83.03,540.0,0.28,0.92,0.01,0.94,1.96,2.1
2024-12-06 12:23:52.418,87.52,534.0,0.28,0.92,0.01,1.37,3.12,0.76
2024-12-06 12:23:52.472,87.52,532.0,0.28,0.92,-0.0,2.04,5.14,-2.96
2024-12-06 12:23:52.483,87.52,544.0,0.27,0.93,-0.0,2.47,6.24,-5.83
2024-12-06 12:23:52.487,83.47,541.0,0.27,0.94,0.0,2.47,6.24,-5.83
2024-12-06 12:23:52.494,88.65,535.0,0.28,0.94,0.0,2.47,6.3,-6.14
2024-12-06 12:23:52.500,83.47,538.0,0.28,0.95,0.0,2.28,6.3,-6.2
2024-12-06 12:23:52.506,86.17,546.0,0.28,0.95,0.0,2.04,6.11,-6.14
2024-12-06 12:23:52.515,83.7,508.0,0.28,0.96,0.0,1.74,5.75,-5.96
2024-12-06 12:23:52.534,86.4,535.0,0.28,0.96,-0.0,1.49,5.08,-5.59
2024-12-06 12:23:52.537,88.65,529.0,0.29,0.96,-0.0,1.19,4.28,-5.16
2024-12-06 12:23:52.548,82.57,531.0,0.29,0.96,-0.01,0.82,3.31,-4.61
2024-12-06 12:23:52.552,87.07,537.0,0.29,0.96,-0.01,0.51,2.27,-4.0
2024-12-06 12:23:52.561,86.62,535.0,0.29,0.96,-0.01,0.51,2.27,-3.39
2024-12-06 12:23:52.569,85.72,530.0,0.29,0.96,-0.01,0.27,1.42,-3.39
2024-12-06 12:23:52.575,86.4,546.0,0.29,0.96,-0.01,-0.03,0.74,-2.78
2024-12-06 12:23:52.584,89.1,528.0,0.29,0.96,-0.01,-0.22,0.38,-2.17
2024-12-06 12:23:52.591,86.4,541.0,0.28,0.97,-0.01,-0.28,0.07,-1.62
2024-12-06 12:23:52.599,87.07,519.0,0.28,0.97,-0.01,-0.28,-0.11,-1.13
2024-12-06 12:23:52.610,87.97,525.0,0.28,0.96,-0.01,-0.28,-0.11,-0.65
2024-12-06 12:23:52.617,84.82,537.0,0.28,0.96,-0.01,-0.16,-0.05,-0.65
2024-12-06 12:23:52.623,83.7,536.0,0.28,0.96,-0.01,-0.1,0.01,-0.34
2024-12-06 12:23:52.631,86.62,535.0,0.28,0.96,-0.01,0.03,0.07,-0.1
2024-12-06 12:23:52.643,86.62,519.0,0.28,0.96,-0.01,0.09,0.07,0.09
2024-12-06 12:23:52.646,89.32,537.0,0.28,0.96,-0.01,0.15,0.01,0.15
2024-12-06 12:23:52.661,87.07,520.0,0.28,0.96,-0.01,0.15,0.01,0.15
2024-12-06 12:23:52.704,86.85,514.0,0.28,0.95,-0.01,0.64,-0.42,-0.04
2024-12-06 12:23:52.706,85.72,514.0,0.28,0.95,-0.01,0.82,-0.29,-0.16
2024-12-06 12:23:52.710,89.55,513.0,0.27,0.95,-0.01,0.94,0.01,-0.34
2024-12-06 12:23:52.719,85.5,515.0,0.27,0.95,-0.01,1.06,0.19,-0.4
2024-12-06 12:23:52.725,87.52,531.0,0.27,0.95,-0.01,1.19,0.38,-0.52
2024-12-06 12:23:52.820,85.95,526.0,0.27,0.95,-0.0,1.25,0.62,-0.58
2024-12-06 12:23:52.828,89.77,532.0,0.27,0.95,-0.0,0.27,-0.72,-1.26
2024-12-06 12:23:52.936,87.3,517.0,0.27,0.95,-0.0,-0.1,-0.84,-0.95
2024-12-06 12:23:52.946,87.3,514.0,0.27,0.96,-0.01,0.64,-0.97,-0.16
2024-12-06 12:23:52.949,85.28,517.0,0.27,0.96,-0.01,0.76,-0.54,-0.34
2024-12-06 12:23:52.957,84.38,517.0,0.27,0.96,-0.01,0.76,-0.54,-0.34
2024-12-06 12:23:52.964,89.1,534.0,0.27,0.96,-0.01,0.94,-0.05,-0.58
2024-12-06 12:23:52.971,83.03,520.0,0.27,0.96,-0.01,1.06,0.32,-0.71
2024-12-06 12:23:52.980,83.25,525.0,0.27,0.96,-0.01,1.31,0.62,-0.83
2024-12-06 12:23:52.987,86.62,516.0,0.27,0.96,-0.01,1.37,0.8,-0.95
2024-12-06 12:23:53.3,82.12,513.0,0.27,0.96,-0.01,1.37,0.8,-0.95
2024-12-06 12:23:53.9,89.55,517.0,0.27,0.96,-0.01,1.49,0.87,-1.13
2024-12-06 12:23:53.14,87.07,515.0,0.27,0.96,-0.02,1.61,0.87,-1.32
2024-12-06 12:23:53.18,87.97,520.0,0.27,0.96,-0.02,1.61,0.68,-1.44
2024-12-06 12:23:53.25,84.38,521.0,0.27,0.96,-0.02,1.55,0.38,-1.56
2024-12-06 12:23:53.33,86.4,531.0,0.26,0.96,-0.02,1.55,0.01,-1.56
2024-12-06 12:23:53.46,86.4,535.0,0.26,0.96,-0.01,1.55,0.01,-1.56
2024-12-06 12:23:53.70,83.92,525.0,0.26,0.96,-0.01,1.55,-0.29,-1.5
2024-12-06 12:23:53.81,85.28,509.0,0.26,0.96,-0.01,1.31,-0.29,-0.71
2024-12-06 12:23:53.86,84.15,532.0,0.26,0.96,-0.01,1.25,-0.23,-0.28
2024-12-06 12:23:53.91,83.92,517.0,0.26,0.96,-0.01,1.25,-0.23,-0.28
2024-12-06 12:23:53.100,85.05,526.0,0.26,0.96,-0.01,1.13,-0.17,0.09
2024-12-06 12:23:53.113,87.3,524.0,0.26,0.95,-0.01,1.0,-0.05,0.51
2024-12-06 12:23:53.147,85.95,517.0,0.27,0.95,-0.01,0.51,0.62,1.25
2024-12-06 12:23:53.151,85.95,523.0,0.27,0.95,-0.01,0.64,0.62,1.31
2024-12-06 12:23:53.156,86.17,525.0,0.27,0.95,-0.01,0.7,0.74,1.25
2024-12-06 12:23:53.171,84.6,520.0,0.27,0.95,-0.01,0.7,0.74,1.25
2024-12-06 12:23:53.173,87.52,534.0,0.27,0.95,-0.01,0.88,0.87,1.12
2024-12-06 12:23:53.178,85.5,516.0,0.27,0.96,-0.01,1.0,0.93,1.0
2024-12-06 12:23:53.188,86.85,523.0,0.27,0.96,-0.01,1.06,0.99,0.82
2024-12-06 12:23:53.196,83.92,520.0,0.27,0.96,-0.01,1.13,1.05,0.7
2024-12-06 12:23:53.204,85.72,521.0,0.27,0.96,-0.01,1.13,1.11,0.58
2024-12-06 12:23:53.213,83.47,519.0,0.27,0.96,-0.01,1.19,1.11,0.58
2024-12-06 12:23:53.222,87.52,513.0,0.27,0.95,-0.02,1.19,1.05,0.51
2024-12-06 12:23:53.231,86.17,532.0,0.27,0.95,-0.02,1.25,0.99,0.39
2024-12-06 12:23:53.235,81.67,527.0,0.27,0.95,-0.02,1.31,0.8,0.33
2024-12-06 12:23:53.244,86.17,532.0,0.27,0.95,-0.02,1.37,0.56,0.21
2024-12-06 12:23:53.250,83.47,521.0,0.27,0.95,-0.02,1.37,0.56,0.21
2024-12-06 12:23:53.257,81.9,506.0,0.27,0.95,-0.02,1.37,0.44,0.09
2024-12-06 12:23:53.270,85.95,512.0,0.27,0.95,-0.01,1.31,0.26,-0.1
2024-12-06 12:23:53.280,83.92,515.0,0.27,0.95,-0.01,1.13,0.07,-0.28
2024-12-06 12:23:53.313,86.4,517.0,0.27,0.95,-0.01,1.0,-0.05,-0.46
2024-12-06 12:23:53.322,83.7,544.0,0.26,0.95,-0.01,0.58,0.38,-0.58
2024-12-06 12:23:53.331,82.12,519.0,0.26,0.95,-0.01,0.58,0.38,-0.58
2024-12-06 12:23:53.333,88.65,510.0,0.27,0.95,-0.01,0.45,0.44,-0.52
2024-12-06 12:23:53.342,83.7,514.0,0.27,0.95,-0.01,0.45,0.5,-0.46
2024-12-06 12:23:53.374,87.07,526.0,0.27,0.95,-0.03,0.39,-0.05,-0.04
2024-12-06 12:23:53.381,89.55,539.0,0.27,0.95,-0.03,0.33,-0.48,0.09
2024-12-06 12:23:53.389,87.3,518.0,0.27,0.95,-0.02,0.27,-0.84,0.21
2024-12-06 12:23:53.394,84.38,508.0,0.27,0.95,-0.02,0.27,-1.21,0.33
2024-12-06 12:23:53.402,88.2,527.0,0.27,0.95,-0.02,0.21,-1.39,0.45
2024-12-06 12:23:53.427,90.45,520.0,0.27,0.95,-0.02,0.21,-1.39,0.45
2024-12-06 12:23:53.438,86.17,529.0,0.27,0.95,-0.02,0.21,-0.9,0.88
2024-12-06 12:23:53.446,84.6,525.0,0.27,0.95,-0.02,0.21,-0.78,1.0
2024-12-06 12:23:53.448,87.75,527.0,0.27,0.95,-0.02,0.21,-0.78,1.0
2024-12-06 12:23:53.455,87.07,533.0,0.27,0.96,-0.02,0.15,-0.72,1.0
2024-12-06 12:23:53.462,85.95,519.0,0.27,0.96,-0.02,0.21,-0.66,1.0
2024-12-06 12:23:53.472,82.35,518.0,0.27,0.95,-0.02,0.21,-0.6,0.94
2024-12-06 12:23:53.480,86.62,523.0,0.27,0.95,-0.02,0.21,-0.6,0.88
2024-12-06 12:23:53.488,85.72,530.0,0.27,0.95,-0.02,0.21,-0.54,0.76
2024-12-06 12:23:53.501,84.82,517.0,0.26,0.95,-0.02,0.21,-0.54,0.76
2024-12-06 12:23:53.505,85.95,526.0,0.26,0.95,-0.02,0.21,-0.48,0.7
2024-12-06 12:23:53.509,86.62,526.0,0.26,0.95,-0.02,0.27,-0.54,0.64
2024-12-06 12:23:53.525,85.72,515.0,0.26,0.95,-0.02,0.33,-0.6,0.58
2024-12-06 12:23:53.541,83.92,524.0,0.26,0.95,-0.02,0.27,-0.54,0.51
2024-12-06 12:23:53.546,85.72,516.0,0.26,0.95,-0.02,0.15,-0.48,0.39
2024-12-06 12:23:53.549,85.95,517.0,0.26,0.95,-0.02,0.15,-0.42,0.39
2024-12-06 12:23:53.556,87.52,518.0,0.27,0.95,-0.02,0.03,-0.29,0.39
2024-12-06 12:23:53.590,86.17,506.0,0.27,0.95,-0.02,0.15,-0.05,0.58
2024-12-06 12:23:53.596,85.05,536.0,0.27,0.95,-0.02,0.15,-0.11,0.7
2024-12-06 12:23:53.600,83.25,528.0,0.27,0.95,-0.02,0.15,-0.11,0.7
2024-12-06 12:23:53.608,86.62,495.0,0.27,0.95,-0.02,0.09,-0.11,0.7
2024-12-06 12:23:53.617,84.6,515.0,0.27,0.95,-0.02,0.09,-0.11,0.7
2024-12-06 12:23:53.624,84.38,525.0,0.27,0.95,-0.02,0.03,-0.29,0.64
2024-12-06 12:23:53.632,83.92,529.0,0.27,0.95,-0.02,-0.03,-0.42,0.58
2024-12-06 12:23:53.643,85.72,523.0,0.26,0.95,-0.02,-0.03,-0.54,0.45
2024-12-06 12:23:53.655,83.47,522.0,0.26,0.95,-0.02,-0.1,-0.48,0.33
2024-12-06 12:23:53.657,85.05,523.0,0.26,0.96,-0.02,-0.1,-0.35,0.27
2024-12-06 12:23:53.663,86.17,514.0,0.26,0.96,-0.02,-0.1,-0.35,0.27
2024-12-06 12:23:53.679,86.62,515.0,0.26,0.96,-0.02,-0.1,-0.11,0.15
2024-12-06 12:23:53.683,86.17,516.0,0.27,0.96,-0.02,-0.03,0.07,0.15
2024-12-06 12:23:53.688,86.17,514.0,0.27,0.95,-0.02,0.03,0.13,0.15
2024-12-06 12:23:53.694,86.4,517.0,0.27,0.95,-0.02,0.09,0.19,0.15
2024-12-06 12:23:53.702,85.72,526.0,0.27,0.95,-0.02,0.09,0.19,0.21
2024-12-06 12:23:53.710,88.2,511.0,0.27,0.95,-0.02,0.09,0.13,0.21
2024-12-06 12:23:53.719,81.45,504.0,0.27,0.95,-0.02,0.03,-0.05,0.27
2024-12-06 12:23:53.726,86.85,521.0,0.27,0.95,-0.02,-0.1,-0.23,0.21
2024-12-06 12:23:53.741,82.8,517.0,0.27,0.95,-0.02,-0.1,-0.42,0.15
2024-12-06 12:23:53.746,86.4,522.0,0.27,0.95,-0.02,-0.1,-0.66,0.21
2024-12-06 12:23:53.752,84.82,544.0,0.27,0.95,-0.02,-0.1,-0.66,0.21
2024-12-06 12:23:53.756,88.2,526.0,0.27,0.95,-0.02,0.03,-0.78,0.21
2024-12-06 12:23:53.764,87.3,516.0,0.27,0.95,-0.02,0.03,-0.78,0.21
2024-12-06 12:23:53.782,86.62,522.0,0.27,0.95,-0.02,-0.03,-0.6,0.27
2024-12-06 12:23:53.884,89.1,529.0,0.27,0.95,-0.02,-0.16,-0.48,-0.22
2024-12-06 12:23:53.893,84.82,529.0,0.27,0.95,-0.02,-0.16,-0.23,-0.28
2024-12-06 12:23:53.900,83.03,535.0,0.27,0.95,-0.02,-0.16,-0.23,-0.28
2024-12-06 12:23:53.911,83.03,562.0,0.27,0.95,-0.02,-0.1,-0.05,-0.34
2024-12-06 12:23:53.916,83.7,511.0,0.27,0.95,-0.02,-0.1,0.19,-0.28
2024-12-06 12:23:53.926,87.75,504.0,0.27,0.95,-0.02,-0.03,0.44,-0.28
2024-12-06 12:23:53.932,85.05,515.0,0.27,0.95,-0.02,0.09,0.62,-0.22
2024-12-06 12:23:53.940,88.65,526.0,0.27,0.95,-0.02,0.09,0.68,-0.22
2024-12-06 12:23:53.947,83.03,526.0,0.27,0.95,-0.02,0.09,0.68,-0.1
2024-12-06 12:23:53.960,87.3,511.0,0.27,0.95,-0.02,0.03,0.56,-0.1
2024-12-06 12:23:53.965,85.72,508.0,0.27,0.95,-0.02,-0.16,0.38,-0.1
2024-12-06 12:23:53.974,87.07,514.0,0.27,0.95,-0.02,-0.28,0.13,-0.16
2024-12-06 12:23:53.979,86.17,517.0,0.27,0.95,-0.02,-0.4,-0.11,-0.16
2024-12-06 12:23:53.993,80.1,544.0,0.27,0.95,-0.02,-0.46,-0.42,-0.16
2024-12-06 12:23:53.995,86.4,507.0,0.27,0.96,-0.02,-0.46,-0.42,-0.16
2024-12-06 12:23:54.2,89.32,505.0,0.27,0.96,-0.02,-0.52,-0.48,-0.16
2024-12-06 12:23:54.10,86.17,506.0,0.27,0.96,-0.02,-0.52,-0.42,-0.16
2024-12-06 12:23:54.44,87.97,502.0,0.27,0.96,-0.02,-0.28,-0.11,0.09
2024-12-06 12:23:54.51,86.62,514.0,0.27,0.96,-0.02,-0.22,-0.11,0.15
2024-12-06 12:23:54.64,88.2,509.0,0.27,0.95,-0.02,-0.22,-0.35,0.33
2024-12-06 12:23:54.70,89.77,523.0,0.27,0.95,-0.02,-0.22,-0.54,0.45
2024-12-06 12:23:54.90,82.8,510.0,0.27,0.95,-0.02,-0.22,-0.54,0.45
2024-12-06 12:23:54.117,81.22,525.0,0.27,0.95,-0.02,-0.22,-0.9,0.58
2024-12-06 12:23:54.119,88.42,557.0,0.27,0.95,-0.02,-0.03,-0.97,0.58
2024-12-06 12:23:54.124,84.15,514.0,0.26,0.95,-0.02,-0.03,-0.78,0.58
2024-12-06 12:23:54.136,89.55,509.0,0.26,0.95,-0.01,-0.03,-0.48,0.58
2024-12-06 12:23:54.142,89.55,526.0,0.26,0.95,-0.02,-0.1,-0.29,0.64
2024-12-06 12:23:54.147,85.95,515.0,0.26,0.95,-0.02,-0.1,-0.17,0.64
2024-12-06 12:23:54.179,89.1,510.0,0.26,0.95,-0.02,-0.1,-0.17,0.64
2024-12-06 12:23:54.189,87.3,518.0,0.26,0.95,-0.02,-0.34,-0.11,0.39
2024-12-06 12:23:54.195,87.07,515.0,0.26,0.95,-0.02,-0.4,-0.17,0.27
2024-12-06 12:23:54.198,86.62,530.0,0.27,0.95,-0.02,-0.4,-0.17,0.27
2024-12-06 12:23:54.207,84.38,530.0,0.27,0.95,-0.02,-0.4,-0.23,0.15
2024-12-06 12:23:54.212,87.07,501.0,0.27,0.95,-0.02,-0.34,-0.35,0.09
2024-12-06 12:23:54.215,88.2,521.0,0.27,0.95,-0.02,-0.34,-0.48,0.09
2024-12-06 12:23:54.228,83.25,509.0,0.27,0.95,-0.02,-0.34,-0.6,0.09
2024-12-06 12:23:54.231,86.17,507.0,0.27,0.95,-0.02,-0.34,-0.6,0.09
2024-12-06 12:23:54.269,88.2,519.0,0.27,0.95,-0.02,-0.34,-0.6,0.09
2024-12-06 12:23:54.272,86.4,515.0,0.27,0.95,-0.01,-0.28,-0.6,0.33
2024-12-06 12:23:54.277,87.3,515.0,0.27,0.95,-0.02,-0.28,-0.6,0.33
2024-12-06 12:23:54.285,85.72,528.0,0.27,0.95,-0.02,-0.28,-0.6,0.39
2024-12-06 12:23:54.300,87.52,515.0,0.27,0.95,-0.02,-0.28,-0.72,0.39
2024-12-06 12:23:54.303,83.92,518.0,0.27,0.95,-0.02,-0.34,-0.78,0.45
2024-12-06 12:23:54.308,87.52,526.0,0.27,0.95,-0.02,-0.4,-0.9,0.45
2024-12-06 12:23:54.316,84.15,510.0,0.27,0.95,-0.02,-0.52,-0.97,0.45
2024-12-06 12:23:54.325,87.52,524.0,0.27,0.95,-0.02,-0.52,-0.97,0.45
2024-12-06 12:23:54.334,83.92,511.0,0.27,0.95,-0.02,-0.58,-1.09,0.39
2024-12-06 12:23:54.352,87.07,508.0,0.26,0.96,-0.02,-0.64,-1.21,0.27
2024-12-06 12:23:54.365,82.8,518.0,0.26,0.96,-0.02,-0.64,-1.21,0.21
2024-12-06 12:23:54.368,81.0,513.0,0.26,0.96,-0.02,-0.64,-1.09,0.21
2024-12-06 12:23:54.372,86.85,533.0,0.26,0.96,-0.02,-0.64,-1.09,0.21
2024-12-06 12:23:54.408,83.92,511.0,0.27,0.95,-0.02,-0.58,-0.78,0.15
2024-12-06 12:23:54.419,84.82,508.0,0.27,0.95,-0.02,-0.58,-0.78,0.15
2024-12-06 12:23:54.421,88.65,532.0,0.27,0.95,-0.02,-0.64,-0.78,0.21
2024-12-06 12:23:54.424,84.6,525.0,0.27,0.95,-0.02,-0.64,-0.78,0.21
2024-12-06 12:23:54.431,84.82,516.0,0.27,0.95,-0.03,-0.64,-0.97,0.15
2024-12-06 12:23:54.440,90.22,512.0,0.27,0.95,-0.03,-0.71,-1.09,0.15
2024-12-06 12:23:54.447,84.38,511.0,0.27,0.95,-0.02,-0.71,-1.09,0.15
2024-12-06 12:23:54.455,83.7,517.0,0.27,0.95,-0.02,-0.58,-1.09,0.09
2024-12-06 12:23:54.464,85.5,510.0,0.27,0.95,-0.02,-0.46,-1.15,0.03
2024-12-06 12:23:54.471,85.95,517.0,0.26,0.95,-0.02,-0.4,-1.09,-0.04
2024-12-06 12:23:54.479,88.42,525.0,0.26,0.95,-0.02,-0.34,-0.78,-0.16
2024-12-06 12:23:54.516,85.95,526.0,0.26,0.95,-0.02,-0.4,-0.6,-0.16
2024-12-06 12:23:54.520,88.2,503.0,0.26,0.96,-0.02,-0.52,-0.29,0.03
2024-12-06 12:23:54.524,86.85,521.0,0.26,0.96,-0.02,-0.58,-0.17,0.09
2024-12-06 12:23:54.532,86.85,514.0,0.26,0.96,-0.02,-0.58,-0.17,0.09
2024-12-06 12:23:54.550,82.8,523.0,0.26,0.95,-0.02,-0.71,-0.05,0.15
2024-12-06 12:23:54.554,88.65,516.0,0.26,0.95,-0.02,-0.77,-0.11,0.21
2024-12-06 12:23:54.557,88.65,512.0,0.26,0.95,-0.02,-0.77,-0.23,0.27
2024-12-06 12:23:54.563,87.52,513.0,0.26,0.95,-0.02,-0.71,-0.35,0.27
2024-12-06 12:23:54.574,82.57,526.0,0.26,0.95,-0.02,-0.71,-0.48,0.27
2024-12-06 12:23:54.602,85.28,517.0,0.26,0.95,-0.02,-0.71,-0.48,0.27
2024-12-06 12:23:54.614,87.07,507.0,0.27,0.96,-0.02,-0.64,-0.48,0.21
2024-12-06 12:23:54.616,88.65,525.0,0.27,0.95,-0.02,-0.58,-0.42,0.27
2024-12-06 12:23:54.631,86.4,524.0,0.27,0.95,-0.02,-0.46,-0.35,0.21
2024-12-06 12:23:54.635,87.07,507.0,0.27,0.95,-0.02,-0.34,-0.23,0.21
2024-12-06 12:23:54.639,85.05,517.0,0.27,0.95,-0.02,-0.22,-0.17,0.27
2024-12-06 12:23:54.648,84.15,527.0,0.27,0.95,-0.02,-0.16,-0.23,0.27
2024-12-06 12:23:54.656,88.88,528.0,0.27,0.95,-0.02,-0.16,-0.23,0.21
2024-12-06 12:23:54.664,82.57,495.0,0.27,0.95,-0.02,-0.16,-0.29,0.21
2024-12-06 12:23:54.673,82.35,512.0,0.27,0.95,-0.02,-0.22,-0.35,0.15
2024-12-06 12:23:54.685,87.07,503.0,0.27,0.95,-0.02,-0.22,-0.54,0.15
2024-12-06 12:23:54.691,86.62,523.0,0.27,0.95,-0.02,-0.28,-0.72,0.09
2024-12-06 12:23:54.723,83.25,513.0,0.27,0.95,-0.02,-0.34,-0.84,0.03
2024-12-06 12:23:54.726,83.47,508.0,0.26,0.96,-0.01,-0.4,-0.72,0.09
2024-12-06 12:23:54.731,85.95,531.0,0.26,0.96,-0.01,-0.4,-0.6,0.15
2024-12-06 12:23:54.744,86.85,511.0,0.26,0.96,-0.01,-0.4,-0.6,0.15
2024-12-06 12:23:54.747,82.8,484.0,0.26,0.96,-0.01,-0.46,-0.48,0.27
2024-12-06 12:23:54.757,88.65,522.0,0.26,0.95,-0.02,-0.52,-0.42,0.33
2024-12-06 12:23:54.763,85.95,529.0,0.27,0.95,-0.02,-0.64,-0.35,0.45
2024-12-06 12:23:54.773,86.85,512.0,0.27,0.95,-0.02,-0.64,-0.48,0.58
2024-12-06 12:23:54.783,84.82,501.0,0.27,0.95,-0.02,-0.64,-0.66,0.7
2024-12-06 12:23:54.788,85.95,519.0,0.27,0.95,-0.02,-0.64,-0.66,0.7
2024-12-06 12:23:54.956,85.95,523.0,0.26,0.96,-0.02,-0.22,-0.35,0.39
2024-12-06 12:23:54.961,84.82,508.0,0.26,0.96,-0.02,-0.22,-0.35,0.39
2024-12-06 12:23:54.969,86.4,507.0,0.26,0.95,-0.01,-0.22,-0.35,0.39
2024-12-06 12:23:54.974,87.75,508.0,0.26,0.95,-0.01,-0.22,-0.17,0.39
2024-12-06 12:23:54.988,86.62,508.0,0.27,0.95,-0.01,-0.22,0.01,0.45
2024-12-06 12:23:55.1,86.4,524.0,0.27,0.95,-0.02,-0.1,0.13,0.45
2024-12-06 12:23:55.8,85.72,511.0,0.27,0.95,-0.02,-0.1,0.07,0.45
2024-12-06 12:23:55.14,86.62,512.0,0.27,0.95,-0.02,-0.1,0.07,0.45
2024-12-06 12:23:55.21,83.47,505.0,0.27,0.95,-0.02,-0.16,0.13,0.33
2024-12-06 12:23:55.31,85.05,510.0,0.27,0.96,-0.02,-0.22,0.13,0.27
2024-12-06 12:23:55.40,87.07,519.0,0.27,0.96,-0.02,-0.22,0.07,0.21
2024-12-06 12:23:55.49,86.85,513.0,0.27,0.96,-0.02,-0.16,-0.11,0.15
2024-12-06 12:23:55.55,89.55,512.0,0.27,0.96,-0.02,-0.1,-0.17,0.03
2024-12-06 12:23:55.61,84.15,521.0,0.27,0.96,-0.01,-0.1,-0.17,0.03
2024-12-06 12:23:55.89,86.85,516.0,0.27,0.96,-0.01,0.03,0.13,-0.16
2024-12-06 12:23:55.94,84.15,511.0,0.26,0.96,-0.01,0.03,0.19,-0.22
2024-12-06 12:23:55.98,83.7,519.0,0.26,0.96,-0.02,0.03,0.19,-0.22
2024-12-06 12:23:55.106,85.95,505.0,0.26,0.95,-0.02,0.03,0.32,-0.22
2024-12-06 12:23:55.115,86.17,508.0,0.27,0.95,-0.02,-0.1,0.44,-0.1
2024-12-06 12:23:55.123,86.17,504.0,0.27,0.95,-0.02,-0.16,0.44,-0.04
2024-12-06 12:23:55.135,84.6,513.0,0.27,0.95,-0.02,-0.22,0.5,0.09
2024-12-06 12:23:55.138,83.03,512.0,0.27,0.95,-0.02,-0.22,0.5,0.15
2024-12-06 12:23:55.169,85.95,532.0,0.27,0.95,-0.02,-0.22,0.5,0.15
2024-12-06 12:23:55.173,84.38,519.0,0.27,0.95,-0.01,-0.03,0.19,0.15
2024-12-06 12:23:55.176,86.62,510.0,0.27,0.95,-0.01,0.09,0.07,0.09
2024-12-06 12:23:55.237,86.17,519.0,0.27,0.95,-0.01,0.09,0.07,0.09
2024-12-06 12:23:55.241,81.0,506.0,0.26,0.96,-0.01,-0.16,-0.05,-0.16
2024-12-06 12:23:55.245,85.5,508.0,0.26,0.96,-0.01,-0.22,0.01,-0.1
2024-12-06 12:23:55.256,76.72,512.0,0.26,0.96,-0.02,-0.28,0.13,-0.04
2024-12-06 12:23:55.262,82.57,532.0,0.26,0.95,-0.02,-0.28,0.13,-0.04
2024-12-06 12:23:55.267,83.47,509.0,0.27,0.95,-0.02,-0.22,0.07,0.03
2024-12-06 12:23:55.275,88.42,513.0,0.27,0.95,-0.02,-0.22,-0.05,0.09
2024-12-06 12:23:55.281,85.5,513.0,0.27,0.95,-0.02,-0.22,-0.23,0.15
2024-12-06 12:23:55.289,82.35,527.0,0.27,0.95,-0.02,-0.16,-0.23,0.21
2024-12-06 12:23:55.309,86.17,514.0,0.27,0.96,-0.02,-0.22,-0.23,0.21
2024-12-06 12:23:55.317,88.65,510.0,0.27,0.96,-0.01,-0.16,-0.17,0.27
2024-12-06 12:23:55.324,86.62,536.0,0.27,0.96,-0.01,-0.16,-0.05,0.33
2024-12-06 12:23:55.330,82.8,518.0,0.27,0.96,-0.01,-0.03,0.07,0.39
2024-12-06 12:23:55.337,85.5,498.0,0.27,0.96,-0.01,0.09,0.13,0.39
2024-12-06 12:23:55.354,87.52,516.0,0.27,0.95,-0.02,0.21,0.13,0.45
2024-12-06 12:23:55.358,87.97,509.0,0.27,0.95,-0.02,0.33,0.01,0.39
2024-12-06 12:23:55.370,86.62,504.0,0.27,0.95,-0.02,0.33,-0.17,0.33
2024-12-06 12:23:55.383,87.07,513.0,0.27,0.95,-0.02,0.33,-0.35,0.27
2024-12-06 12:23:55.386,85.05,504.0,0.27,0.96,-0.02,0.33,-0.35,0.27
2024-12-06 12:23:55.397,89.55,502.0,0.27,0.96,-0.02,0.33,-0.66,0.27
2024-12-06 12:23:55.402,88.65,525.0,0.27,0.95,-0.02,0.27,-0.9,0.21
2024-12-06 12:23:55.406,86.62,515.0,0.27,0.95,-0.02,0.27,-1.03,0.21
2024-12-06 12:23:55.412,86.17,510.0,0.27,0.95,-0.02,0.27,-1.09,0.21
2024-12-06 12:23:55.455,83.25,516.0,0.26,0.96,-0.01,0.27,-1.09,0.21
2024-12-06 12:23:55.459,87.07,522.0,0.26,0.95,-0.01,0.15,-0.23,0.51
2024-12-06 12:23:55.467,88.88,522.0,0.26,0.95,-0.02,0.15,-0.05,0.51
2024-12-06 12:23:55.480,83.92,512.0,0.27,0.95,-0.02,0.09,0.01,0.51
2024-12-06 12:23:55.483,83.03,528.0,0.27,0.95,-0.02,0.03,0.01,0.58
2024-12-06 12:23:55.488,88.65,527.0,0.27,0.95,-0.02,0.03,-0.05,0.64
2024-12-06 12:23:55.496,84.82,523.0,0.27,0.95,-0.02,0.03,-0.23,0.64
2024-12-06 12:23:55.504,85.95,506.0,0.27,0.95,-0.02,0.03,-0.23,0.64
2024-12-06 12:23:55.626,85.72,523.0,0.26,0.95,-0.02,0.39,-0.05,0.33
2024-12-06 12:23:55.633,84.38,504.0,0.26,0.95,-0.02,0.45,-0.05,0.33
2024-12-06 12:23:55.641,88.65,506.0,0.26,0.95,-0.02,0.45,-0.05,0.33
2024-12-06 12:23:55.647,83.03,505.0,0.26,0.95,-0.02,0.45,0.01,0.39
2024-12-06 12:23:55.654,87.07,509.0,0.26,0.95,-0.02,0.45,0.01,0.39
2024-12-06 12:23:55.666,79.65,501.0,0.26,0.95,-0.02,0.45,0.13,0.39
2024-12-06 12:23:55.681,88.2,502.0,0.26,0.95,-0.02,0.45,0.19,0.39
2024-12-06 12:23:55.706,89.55,521.0,0.26,0.95,-0.02,0.45,0.32,0.45
2024-12-06 12:23:55.714,87.07,539.0,0.27,0.95,-0.02,0.58,0.56,0.51
2024-12-06 12:23:55.721,88.65,507.0,0.27,0.95,-0.02,0.7,0.5,0.51
2024-12-06 12:23:55.726,87.52,510.0,0.27,0.95,-0.02,0.64,0.44,0.45
2024-12-06 12:23:55.733,86.4,511.0,0.27,0.95,-0.02,0.64,0.44,0.45
2024-12-06 12:23:55.741,85.95,508.0,0.27,0.95,-0.02,0.58,0.38,0.39
2024-12-06 12:23:55.747,83.25,505.0,0.27,0.95,-0.02,0.45,0.13,0.39
2024-12-06 12:23:55.756,85.72,502.0,0.27,0.95,-0.02,0.45,-0.17,0.33
2024-12-06 12:23:55.785,84.82,519.0,0.27,0.96,-0.02,0.39,-0.29,0.27
2024-12-06 12:23:55.787,81.0,519.0,0.26,0.96,-0.02,0.39,-0.29,0.09
2024-12-06 12:23:55.792,90.22,515.0,0.26,0.96,-0.02,0.39,-0.23,0.15
2024-12-06 12:23:55.803,85.28,509.0,0.26,0.96,-0.02,0.33,-0.11,0.15
2024-12-06 12:23:55.809,83.47,506.0,0.26,0.96,-0.02,0.27,0.01,0.21
2024-12-06 12:23:55.817,87.52,514.0,0.27,0.95,-0.02,0.27,0.01,0.27
2024-12-06 12:23:55.849,84.15,524.0,0.27,0.95,-0.02,-0.1,-0.23,0.58
2024-12-06 12:23:55.853,87.97,506.0,0.27,0.95,-0.03,-0.1,-0.23,0.58
2024-12-06 12:23:55.861,84.15,510.0,0.27,0.95,-0.03,-0.1,-0.48,0.64
2024-12-06 12:23:55.872,84.38,513.0,0.27,0.95,-0.03,-0.1,-0.6,0.7
2024-12-06 12:23:55.880,81.9,513.0,0.27,0.95,-0.02,0.03,-0.78,0.7
2024-12-06 12:23:55.985,86.85,505.0,0.26,0.95,-0.02,-0.16,0.07,0.58
2024-12-06 12:23:55.987,87.07,518.0,0.26,0.95,-0.02,-0.16,-0.05,0.58
2024-12-06 12:23:55.992,85.95,525.0,0.26,0.96,-0.02,-0.22,-0.11,0.64
2024-12-06 12:23:55.997,85.95,508.0,0.26,0.96,-0.02,-0.28,-0.23,0.76
2024-12-06 12:23:56.14,87.3,517.0,0.26,0.96,-0.02,-0.28,-0.29,0.88
2024-12-06 12:23:56.17,86.4,509.0,0.26,0.95,-0.02,-0.34,-0.29,0.88
2024-12-06 12:23:56.22,85.5,520.0,0.26,0.95,-0.02,-0.46,-0.29,0.94
2024-12-06 12:23:56.31,88.88,508.0,0.26,0.95,-0.02,-0.52,-0.23,1.06
2024-12-06 12:23:56.41,83.7,514.0,0.26,0.95,-0.02,-0.46,-0.11,1.12
2024-12-06 12:23:56.48,87.3,506.0,0.26,0.95,-0.02,-0.4,0.07,1.19
2024-12-06 12:23:56.52,85.5,501.0,0.26,0.95,-0.02,-0.4,0.07,1.19
2024-12-06 12:23:56.61,83.25,505.0,0.27,0.95,-0.02,-0.34,0.19,1.19
2024-12-06 12:23:56.71,83.47,504.0,0.27,0.95,-0.02,-0.22,0.26,1.19
2024-12-06 12:23:56.76,85.72,514.0,0.27,0.95,-0.02,-0.22,0.26,1.12
2024-12-06 12:23:56.84,87.3,511.0,0.27,0.95,-0.02,-0.22,0.19,1.06
2024-12-06 12:23:56.94,86.17,517.0,0.27,0.95,-0.02,-0.28,0.13,0.94
2024-12-06 12:23:56.101,85.95,501.0,0.27,0.95,-0.02,-0.34,0.01,0.82
2024-12-06 12:23:56.108,88.2,501.0,0.27,0.95,-0.02,-0.34,0.01,0.82
2024-12-06 12:23:56.117,72.22,505.0,0.27,0.95,-0.02,-0.34,-0.17,0.7
2024-12-06 12:23:56.123,86.17,498.0,0.26,0.95,-0.02,-0.34,-0.11,0.51
2024-12-06 12:23:56.158,87.52,516.0,0.26,0.96,-0.02,-0.34,0.38,0.21
2024-12-06 12:23:56.162,83.7,523.0,0.26,0.96,-0.02,-0.34,0.62,0.15
2024-12-06 12:23:56.169,86.62,508.0,0.27,0.95,-0.02,-0.34,0.74,0.15
2024-12-06 12:23:56.176,86.85,530.0,0.27,0.95,-0.02,-0.28,0.68,0.15
2024-12-06 12:23:56.190,86.85,505.0,0.27,0.95,-0.02,-0.28,0.56,0.21
2024-12-06 12:23:56.195,86.85,495.0,0.27,0.95,-0.02,-0.28,0.56,0.21
2024-12-06 12:23:56.205,89.77,502.0,0.27,0.95,-0.03,-0.34,0.38,0.27
2024-12-06 12:23:56.209,86.62,499.0,0.27,0.95,-0.02,-0.34,0.19,0.27
2024-12-06 12:23:56.215,87.97,496.0,0.27,0.95,-0.02,-0.34,0.07,0.21
2024-12-06 12:23:56.223,85.72,509.0,0.27,0.95,-0.02,-0.28,-0.05,0.21
2024-12-06 12:23:56.231,83.03,504.0,0.27,0.95,-0.02,-0.28,-0.05,0.21
2024-12-06 12:23:56.241,83.92,518.0,0.27,0.95,-0.02,-0.16,-0.11,0.21
2024-12-06 12:23:56.247,86.17,499.0,0.27,0.95,-0.02,-0.1,0.07,0.21
2024-12-06 12:23:56.255,86.62,512.0,0.27,0.95,-0.01,-0.16,0.44,0.15
2024-12-06 12:23:56.264,86.85,495.0,0.27,0.95,-0.01,-0.16,0.68,0.09
2024-12-06 12:23:56.298,83.03,502.0,0.27,0.95,-0.02,-0.1,0.68,-0.04
2024-12-06 12:23:56.304,86.62,507.0,0.27,0.95,-0.02,-0.16,0.62,-0.1
2024-12-06 12:23:56.307,88.65,518.0,0.27,0.95,-0.02,-0.16,0.5,-0.16
2024-12-06 12:23:56.318,81.45,514.0,0.26,0.95,-0.02,-0.16,0.5,-0.16
2024-12-06 12:23:56.323,85.95,495.0,0.26,0.95,-0.02,-0.16,0.44,-0.28
2024-12-06 12:23:56.340,81.0,496.0,0.27,0.95,-0.02,-0.16,0.32,-0.28
2024-12-06 12:23:56.351,86.17,525.0,0.27,0.95,-0.02,-0.1,0.26,-0.28
2024-12-06 12:23:56.355,85.72,505.0,0.27,0.95,-0.02,-0.03,0.19,-0.28
2024-12-06 12:23:56.358,83.47,516.0,0.27,0.95,-0.02,-0.03,0.19,-0.22
2024-12-06 12:23:56.361,86.4,495.0,0.27,0.95,-0.02,-0.1,0.26,-0.22
2024-12-06 12:23:56.371,88.65,500.0,0.27,0.95,-0.02,-0.16,0.38,-0.22
2024-12-06 12:23:56.376,86.85,508.0,0.27,0.95,-0.02,-0.16,0.44,-0.16
2024-12-06 12:23:56.385,86.62,499.0,0.27,0.95,-0.02,-0.16,0.5,-0.1
2024-12-06 12:23:56.393,81.67,502.0,0.27,0.95,-0.02,-0.1,0.5,0.03
2024-12-06 12:23:56.415,87.75,504.0,0.27,0.95,-0.02,-0.1,0.5,0.03
2024-12-06 12:23:56.423,84.82,511.0,0.27,0.95,-0.02,0.03,0.5,0.15
2024-12-06 12:23:56.428,86.4,504.0,0.27,0.95,-0.02,0.09,0.5,0.15
2024-12-06 12:23:56.431,80.1,502.0,0.27,0.95,-0.02,0.09,0.38,0.21
2024-12-06 12:23:56.441,88.65,504.0,0.27,0.95,-0.02,0.09,0.38,0.21
2024-12-06 12:23:56.448,88.65,501.0,0.27,0.95,-0.02,-0.03,0.32,0.27
2024-12-06 12:23:56.454,86.17,496.0,0.27,0.95,-0.02,-0.1,0.19,0.27
2024-12-06 12:23:56.470,85.95,542.0,0.27,0.95,-0.02,-0.16,-0.23,0.15
2024-12-06 12:23:56.479,80.55,512.0,0.27,0.96,-0.02,-0.16,-0.35,0.03
2024-12-06 12:23:56.487,88.65,515.0,0.27,0.96,-0.01,-0.16,-0.35,0.03
2024-12-06 12:23:56.494,82.12,509.0,0.27,0.96,-0.01,-0.22,-0.42,-0.04
2024-12-06 12:23:56.505,85.05,499.0,0.27,0.96,-0.01,-0.22,-0.42,-0.1
2024-12-06 12:23:56.508,88.2,520.0,0.27,0.96,-0.01,-0.28,-0.42,-0.16
2024-12-06 12:23:56.516,86.17,501.0,0.27,0.96,-0.01,-0.28,-0.42,-0.16
2024-12-06 12:23:56.524,86.62,495.0,0.27,0.96,-0.01,-0.22,-0.42,-0.16
2024-12-06 12:23:56.538,82.35,506.0,0.27,0.95,-0.02,-0.22,-0.42,-0.16
2024-12-06 12:23:56.569,83.47,511.0,0.27,0.95,-0.02,-0.52,-0.9,0.03
2024-12-06 12:23:56.573,87.97,516.0,0.27,0.95,-0.02,-0.52,-0.9,0.03
2024-12-06 12:23:56.578,84.15,507.0,0.27,0.95,-0.02,-0.52,-1.09,0.09
2024-12-06 12:23:56.586,85.5,512.0,0.27,0.95,-0.02,-0.46,-1.21,0.09
2024-12-06 12:23:56.594,87.97,513.0,0.27,0.95,-0.02,-0.4,-1.21,0.09
2024-12-06 12:23:56.601,85.5,496.0,0.27,0.95,-0.02,-0.4,-1.03,0.03
2024-12-06 12:23:56.611,87.07,522.0,0.27,0.95,-0.02,-0.4,-1.03,0.03
2024-12-06 12:23:56.627,86.85,517.0,0.27,0.95,-0.02,-0.34,-0.66,0.15
2024-12-06 12:23:56.631,84.38,506.0,0.26,0.95,-0.02,-0.28,-0.54,0.15
2024-12-06 12:23:56.639,81.9,498.0,0.26,0.95,-0.02,-0.34,-0.48,0.15
2024-12-06 12:23:57.676,83.03,514.0,0.27,0.95,-0.02,-0.34,-0.54,0.21
2024-12-06 12:23:57.693,83.7,508.0,0.26,0.96,-0.02,-0.1,-0.29,0.09
2024-12-06 12:23:57.707,79.88,493.0,0.26,1.01,-0.02,-0.71,-1.7,0.76
2024-12-06 12:23:57.763,80.78,499.0,0.21,1.15,-0.03,-4.0,-5.73,9.43
2024-12-06 12:23:57.772,79.42,503.0,0.23,1.02,-0.08,-5.59,-4.51,16.99
2024-12-06 12:23:57.810,70.2,491.0,0.23,0.86,-0.04,-5.41,-8.11,24.5
2024-12-06 12:23:57.846,67.5,541.0,0.28,0.8,-0.01,-6.57,-3.77,23.4
2024-12-06 12:23:57.880,63.0,481.0,0.31,0.86,0.04,-5.34,3.86,19.37
2024-12-06 12:23:57.895,67.05,488.0,0.35,0.9,0.05,-2.9,10.51,10.46
2024-12-06 12:23:57.901,65.47,481.0,0.39,0.92,0.04,1.06,11.06,0.51
2024-12-06 12:23:57.921,67.95,469.0,0.38,0.93,0.0,3.81,6.79,-6.99
2024-12-06 12:23:57.949,66.82,478.0,0.34,0.92,-0.03,6.74,4.28,-9.86
2024-12-06 12:23:58.74,64.8,475.0,0.29,0.92,-0.02,8.94,5.93,-12.18
2024-12-06 12:23:58.79,67.28,467.0,0.28,0.94,-0.0,7.72,12.83,-13.77
2024-12-06 12:23:58.114,61.2,480.0,0.25,0.94,-0.01,6.92,11.67,-13.89
2024-12-06 12:23:58.119,59.85,468.0,0.27,0.96,-0.02,5.82,10.51,-15.23
2024-12-06 12:23:58.142,58.05,477.0,0.26,0.98,-0.03,5.76,8.62,-13.83
2024-12-06 12:23:58.173,58.27,490.0,0.25,0.98,-0.03,4.24,6.42,-13.22
2024-12-06 12:23:58.241,55.57,483.0,0.25,0.97,-0.03,1.49,-0.72,-10.23
2024-12-06 12:23:58.253,55.57,468.0,0.23,0.96,-0.03,0.88,-1.45,-9.13
2024-12-06 12:23:58.286,55.35,465.0,0.23,0.97,-0.03,1.06,0.01,-7.85
2024-12-06 12:23:58.309,48.6,454.0,0.23,0.99,-0.03,1.31,3.67,-5.47
2024-12-06 12:23:58.344,50.17,456.0,0.23,0.98,-0.03,1.37,5.14,-4.43
2024-12-06 12:23:58.389,46.35,458.0,0.25,0.97,-0.04,1.61,4.34,-3.15
2024-12-06 12:23:58.415,49.05,481.0,0.23,0.96,-0.04,1.98,3.06,-1.93
2024-12-06 12:23:58.418,42.08,453.0,0.23,0.97,-0.03,2.35,1.66,-1.99
2024-12-06 12:23:58.444,46.12,479.0,0.22,0.97,-0.03,2.53,0.68,-1.68
2024-12-06 12:23:58.485,47.02,471.0,0.21,0.96,-0.02,2.59,0.32,-2.35
2024-12-06 12:23:58.509,40.95,470.0,0.22,0.96,-0.02,2.16,0.5,-2.48
2024-12-06 12:23:58.528,43.88,475.0,0.21,0.96,-0.04,2.47,1.78,-2.29
2024-12-06 12:23:58.556,42.3,459.0,0.21,0.96,-0.03,2.22,3.0,-2.54
2024-12-06 12:23:58.581,38.02,469.0,0.21,0.96,-0.03,1.55,3.31,-2.72
2024-12-06 12:23:58.617,39.15,458.0,0.2,0.96,-0.03,0.94,2.57,-3.09
2024-12-06 12:23:58.636,33.97,469.0,0.2,0.97,-0.04,0.64,0.99,-4.06
2024-12-06 12:23:58.666,37.12,451.0,0.21,0.97,-0.04,0.58,0.5,-3.21
2024-12-06 12:23:58.691,37.12,453.0,0.18,0.96,-0.04,0.39,2.33,-4.19
2024-12-06 12:23:58.719,37.12,457.0,0.19,0.96,-0.04,0.33,3.92,-4.0
2024-12-06 12:23:58.747,33.52,455.0,0.2,0.97,-0.05,0.33,4.47,-3.58
2024-12-06 12:23:58.792,34.65,458.0,0.2,0.98,-0.05,0.03,2.76,-2.9
2024-12-06 12:23:58.806,32.4,478.0,0.2,0.98,-0.05,0.33,1.48,-2.6
2024-12-06 12:23:58.831,31.95,454.0,0.2,0.98,-0.04,0.27,2.03,-1.32
2024-12-06 12:23:59.215,17.1,447.0,0.19,0.98,-0.04,-2.84,-2.25,0.09
2024-12-06 12:23:59.248,18.23,450.0,0.19,0.98,-0.04,-3.09,-2.98,0.27
2024-12-06 12:23:59.268,16.88,477.0,0.19,0.98,-0.03,-3.15,-4.02,0.27
2024-12-06 12:23:59.295,11.02,477.0,0.19,0.97,-0.02,-3.21,-4.75,0.03
2024-12-06 12:23:59.330,11.7,459.0,0.18,0.97,-0.02,-3.03,-5.91,-1.13
2024-12-06 12:23:59.350,11.47,450.0,0.18,0.97,-0.03,-2.72,-5.91,-1.81
2024-12-06 12:23:59.379,6.52,453.0,0.2,0.98,-0.02,-2.35,-4.26,-1.19
2024-12-06 12:23:59.406,7.42,464.0,0.18,0.98,-0.03,-1.99,-2.8,-0.16
2024-12-06 12:23:59.434,11.47,454.0,0.19,0.97,-0.03,-1.62,-2.25,0.09
2024-12-06 12:23:59.472,10.57,459.0,0.19,0.98,-0.03,-1.44,-1.58,1.0
2024-12-06 12:23:59.491,9.22,453.0,0.18,0.98,-0.03,-1.56,-1.58,1.37
2024-12-06 12:23:59.523,5.4,468.0,0.18,0.98,-0.03,-1.62,-3.22,1.25
2024-12-06 12:23:59.546,4.72,453.0,0.18,0.98,-0.02,-1.99,-3.89,0.88
2024-12-06 12:23:59.578,-0.22,453.0,0.17,0.97,-0.05,-1.5,-4.2,0.58
2024-12-06 12:23:59.598,5.85,450.0,0.18,0.98,-0.02,-0.1,-0.35,0.58
2024-12-06 12:23:59.629,0.9,460.0,0.17,0.98,-0.03,0.76,3.12,1.12
2024-12-06 12:23:59.633,3.38,470.0,0.16,0.98,-0.03,0.76,3.98,0.76
2024-12-06 12:23:59.642,1.35,464.0,0.16,0.98,-0.02,0.76,4.47,0.33
2024-12-06 12:23:59.651,1.35,461.0,0.16,0.98,-0.02,0.94,4.65,-0.04
2024-12-06 12:23:59.658,-0.67,455.0,0.17,0.98,-0.02,0.39,5.44,0.33
2024-12-06 12:23:59.708,-1.57,465.0,0.18,0.98,-0.02,0.03,4.41,1.43
2024-12-06 12:23:59.710,-2.02,491.0,0.17,0.96,-0.03,-0.16,3.0,0.88
2024-12-06 12:23:59.718,0.45,447.0,0.17,0.96,-0.02,0.03,2.94,0.7
2024-12-06 12:23:59.728,-2.02,447.0,0.17,0.96,-0.03,0.33,2.51,0.45
2024-12-06 12:23:59.733,-0.45,449.0,0.17,0.95,-0.03,0.45,3.0,0.15
2024-12-06 12:23:59.749,-0.22,454.0,0.16,0.95,-0.03,0.45,3.0,0.15
2024-12-06 12:23:59.755,0.0,470.0,0.16,0.95,-0.03,0.88,3.0,-0.65
2024-12-06 12:23:59.757,-0.22,463.0,0.16,0.96,-0.03,0.94,3.55,-1.38
2024-12-06 12:23:59.768,4.5,473.0,0.18,0.97,-0.02,1.06,4.1,-1.74
2024-12-06 12:23:59.781,0.22,461.0,0.19,0.97,-0.02,1.25,4.34,-1.56
2024-12-06 12:23:59.784,-1.8,452.0,0.19,0.97,-0.02,1.43,4.77,-1.19
2024-12-06 12:23:59.789,0.67,458.0,0.19,0.98,-0.02,1.43,4.77,-1.19
2024-12-06 12:23:59.800,0.9,469.0,0.19,0.98,-0.03,1.49,5.08,-0.89
2024-12-06 12:23:59.810,-3.6,445.0,0.19,0.98,-0.02,1.37,5.26,-0.71
2024-12-06 12:23:59.813,2.02,453.0,0.19,0.98,-0.02,1.19,5.14,-0.71
2024-12-06 12:23:59.825,-0.45,454.0,0.19,0.98,-0.02,0.94,4.53,-0.58
2024-12-06 12:23:59.834,2.7,444.0,0.19,0.98,-0.01,0.82,4.04,-0.58
2024-12-06 12:23:59.837,-2.02,453.0,0.19,0.98,-0.02,0.82,4.04,-0.58
2024-12-06 12:23:59.845,0.9,460.0,0.18,0.97,-0.02,0.7,3.73,-0.71
2024-12-06 12:23:59.851,-0.22,453.0,0.18,0.97,-0.02,0.58,3.37,-0.89
2024-12-06 12:23:59.860,-3.82,479.0,0.18,0.97,-0.02,0.45,2.88,-1.07
2024-12-06 12:23:59.866,-1.8,467.0,0.18,0.97,-0.02,0.21,2.33,-1.32
2024-12-06 12:23:59.874,-2.47,455.0,0.18,0.96,-0.01,0.21,2.33,-1.5
2024-12-06 12:23:59.889,0.22,453.0,0.18,0.96,-0.01,0.03,1.78,-1.5
2024-12-06 12:23:59.924,-3.6,463.0,0.19,0.97,-0.01,-0.28,0.26,-1.87
2024-12-06 12:23:59.928,-1.57,461.0,0.19,0.97,-0.01,-0.28,0.26,-1.87
2024-12-06 12:23:59.931,1.57,485.0,0.18,0.97,-0.01,-0.28,0.01,-1.87
2024-12-06 12:23:59.935,-0.45,474.0,0.18,0.97,-0.02,-0.28,-0.11,-1.87
2024-12-06 12:23:59.943,-0.45,456.0,0.18,0.97,-0.02,-0.34,-0.11,-1.87
2024-12-06 12:23:59.957,1.12,456.0,0.18,0.97,-0.02,-0.4,0.01,-1.74
2024-12-06 12:23:59.960,-1.57,450.0,0.18,0.97,-0.02,-0.4,0.01,-1.74
2024-12-06 12:23:59.966,-1.12,446.0,0.18,0.97,-0.02,-0.4,0.01,-1.5
2024-12-06 12:23:59.981,2.47,454.0,0.18,0.98,-0.02,-0.4,0.07,-1.19
2024-12-06 12:23:59.984,-3.82,462.0,0.18,0.98,-0.02,-0.4,0.26,-0.89
2024-12-06 12:23:59.997,3.38,454.0,0.18,0.98,-0.02,-0.4,0.32,-0.58
2024-12-06 12:24:00.1,-1.35,454.0,0.18,0.97,-0.02,-0.4,0.38,-0.4
2024-12-06 12:24:00.6,-2.7,470.0,0.18,0.98,-0.02,-0.4,0.38,-0.4
2024-12-06 12:24:00.14,0.67,454.0,0.19,0.98,-0.02,-0.46,0.32,-0.22
2024-12-06 12:24:00.20,-0.67,460.0,0.19,0.98,-0.02,-0.4,0.19,0.03
2024-12-06 12:24:00.29,0.45,478.0,0.19,0.98,-0.02,-0.28,0.01,0.21
2024-12-06 12:24:00.37,2.02,455.0,0.19,0.98,-0.02,-0.16,-0.11,0.33
2024-12-06 12:24:00.51,-2.02,476.0,0.19,0.98,-0.02,-0.16,-0.11,0.33
2024-12-06 12:24:00.58,-2.7,456.0,0.19,0.98,-0.02,-0.03,-0.17,0.39
2024-12-06 12:24:00.62,1.57,447.0,0.19,0.98,-0.02,0.09,-0.17,0.51
2024-12-06 12:24:00.66,0.45,462.0,0.18,0.98,-0.02,0.27,-0.17,0.51
2024-12-06 12:24:00.76,0.67,452.0,0.18,0.98,-0.02,0.45,-0.17,0.51
2024-12-06 12:24:00.173,-4.28,459.0,0.17,0.97,-0.02,0.51,-0.35,1.37
2024-12-06 12:24:00.178,1.8,467.0,0.17,0.97,-0.02,0.58,-0.05,1.43
2024-12-06 12:24:00.186,0.45,453.0,0.17,0.97,-0.02,0.51,0.38,1.43
2024-12-06 12:24:00.200,-0.45,453.0,0.17,0.97,-0.02,0.51,0.38,1.43
2024-12-06 12:24:00.203,1.12,458.0,0.17,0.98,-0.02,0.51,0.99,1.43
2024-12-06 12:24:00.209,0.9,480.0,0.17,0.98,-0.02,0.33,1.54,1.37
2024-12-06 12:24:00.217,-3.15,459.0,0.17,0.98,-0.02,0.27,1.9,1.25
2024-12-06 12:24:00.225,-3.15,459.0,0.17,0.98,-0.02,0.27,2.03,1.25
2024-12-06 12:24:00.233,0.0,484.0,0.17,0.98,-0.02,0.21,2.03,1.19
2024-12-06 12:24:00.244,1.8,463.0,0.17,0.97,-0.02,0.21,2.03,1.19
2024-12-06 12:24:00.252,-3.38,473.0,0.17,0.97,-0.02,0.03,1.9,1.19
2024-12-06 12:24:00.259,-0.22,468.0,0.17,0.97,-0.02,-0.1,1.72,1.12
2024-12-06 12:24:00.263,2.25,455.0,0.17,0.97,-0.02,-0.22,1.54,1.06
2024-12-06 12:24:00.271,0.67,469.0,0.18,0.97,-0.02,-0.34,1.42,1.0
2024-12-06 12:24:00.284,-0.22,456.0,0.18,0.97,-0.02,-0.34,1.42,1.0
2024-12-06 12:24:00.286,2.92,476.0,0.18,0.97,-0.02,-0.4,1.29,0.94
2024-12-06 12:24:00.294,-1.57,458.0,0.18,0.97,-0.02,-0.4,1.23,0.94
2024-12-06 12:24:00.303,-0.9,455.0,0.18,0.97,-0.02,-0.4,1.17,1.0
2024-12-06 12:24:00.368,0.0,449.0,0.18,0.97,-0.02,-0.34,1.11,0.94
2024-12-06 12:24:00.371,1.57,449.0,0.19,0.98,-0.02,0.09,0.01,0.15
2024-12-06 12:24:00.377,-2.47,454.0,0.19,0.98,-0.02,0.15,-0.35,0.15
2024-12-06 12:24:00.385,0.22,456.0,0.19,0.98,-0.02,0.15,-0.72,0.15
2024-12-06 12:24:00.402,-0.45,451.0,0.19,0.98,-0.02,0.15,-0.97,0.15
2024-12-06 12:24:00.410,1.8,461.0,0.18,0.98,-0.02,0.15,-0.97,0.15
2024-12-06 12:24:00.419,0.45,464.0,0.18,0.98,-0.02,0.15,-1.09,0.15
2024-12-06 12:24:00.422,-1.8,527.0,0.18,0.98,-0.02,0.15,-0.97,0.21
2024-12-06 12:24:00.424,-2.25,465.0,0.18,0.98,-0.02,0.21,-0.78,0.33
2024-12-06 12:24:00.431,-3.6,456.0,0.18,0.98,-0.02,0.15,-0.48,0.45
2024-12-06 12:24:00.447,-1.8,488.0,0.18,0.98,-0.02,0.15,-0.48,0.45
2024-12-06 12:24:00.450,-2.7,455.0,0.18,0.97,-0.02,0.21,-0.11,0.58
2024-12-06 12:24:00.455,0.0,474.0,0.18,0.97,-0.02,0.21,0.19,0.7
2024-12-06 12:24:00.463,-0.22,455.0,0.18,0.97,-0.02,0.15,0.44,0.7
2024-12-06 12:24:00.470,0.9,504.0,0.18,0.97,-0.02,0.09,0.62,0.76
2024-12-06 12:24:00.478,0.0,476.0,0.18,0.97,-0.02,0.09,0.62,0.76
2024-12-06 12:24:00.495,0.45,462.0,0.18,0.97,-0.02,0.09,0.68,0.76
2024-12-06 12:24:00.498,0.22,465.0,0.18,0.97,-0.02,0.03,0.62,0.82
2024-12-06 12:24:00.509,0.0,463.0,0.18,0.97,-0.02,0.03,0.5,0.82
2024-12-06 12:24:00.513,-0.45,467.0,0.18,0.97,-0.02,-0.03,0.44,0.82
2024-12-06 12:24:00.516,0.22,472.0,0.18,0.97,-0.02,-0.03,0.44,0.82
2024-12-06 12:24:00.523,-1.57,459.0,0.18,0.97,-0.02,-0.1,0.44,0.82
2024-12-06 12:24:00.532,-0.45,465.0,0.18,0.97,-0.02,-0.16,0.26,0.88
2024-12-06 12:24:00.541,-2.02,463.0,0.18,0.97,-0.02,-0.16,0.07,0.88
2024-12-06 12:24:00.553,0.45,467.0,0.18,0.98,-0.02,-0.16,0.07,0.82
2024-12-06 12:24:00.559,1.12,455.0,0.18,0.98,-0.02,-0.22,0.13,0.7
2024-12-06 12:24:00.563,-2.25,469.0,0.18,0.98,-0.02,-0.22,0.13,0.7
2024-12-06 12:24:00.594,1.8,455.0,0.18,0.97,-0.02,-0.28,0.01,0.58
2024-12-06 12:24:00.605,-3.15,458.0,0.18,0.97,-0.02,-0.28,0.01,0.58
2024-12-06 12:24:00.619,1.12,452.0,0.18,0.97,-0.01,-0.28,-0.11,0.64
2024-12-06 12:24:00.625,2.02,482.0,0.18,0.97,-0.02,-0.34,-0.17,0.7
2024-12-06 12:24:00.631,-1.35,472.0,0.18,0.97,-0.02,-0.4,-0.11,0.64
2024-12-06 12:24:00.634,1.12,455.0,0.18,0.97,-0.02,-0.4,-0.11,0.51
2024-12-06 12:24:00.644,-3.38,455.0,0.18,0.97,-0.02,-0.4,-0.11,0.45
2024-12-06 12:24:00.648,0.67,457.0,0.18,0.97,-0.02,-0.4,-0.11,0.45
2024-12-06 12:24:00.654,-1.8,457.0,0.18,0.97,-0.02,-0.34,-0.05,0.39
2024-12-06 12:24:00.665,1.8,457.0,0.18,0.97,-0.02,-0.28,0.01,0.39
2024-12-06 12:24:00.674,-2.02,448.0,0.18,0.98,-0.02,-0.22,-0.05,0.45
2024-12-06 12:24:00.677,-2.92,449.0,0.18,0.98,-0.02,-0.16,-0.05,0.45
2024-12-06 12:24:00.693,-0.67,455.0,0.18,0.98,-0.02,-0.16,-0.05,0.45
2024-12-06 12:24:00.698,-1.35,464.0,0.18,0.97,-0.02,-0.22,0.07,0.45
2024-12-06 12:24:00.701,-1.35,450.0,0.18,0.97,-0.02,-0.28,0.13,0.45
2024-12-06 12:24:00.708,-0.45,476.0,0.18,0.97,-0.02,-0.28,0.01,0.45
2024-12-06 12:24:00.720,0.0,462.0,0.18,0.97,-0.02,-0.28,-0.17,0.51
2024-12-06 12:24:00.723,-1.8,455.0,0.18,0.97,-0.02,-0.28,-0.29,0.51
2024-12-06 12:24:00.735,1.8,459.0,0.18,0.98,-0.02,-0.28,-0.29,0.51
2024-12-06 12:24:00.739,-2.7,471.0,0.19,0.98,-0.02,-0.34,-0.48,0.51
2024-12-06 12:24:00.749,-1.12,468.0,0.19,0.98,-0.01,-0.28,-0.78,0.58
2024-12-06 12:24:00.755,0.67,455.0,0.18,0.98,-0.01,-0.34,-0.9,0.58
2024-12-06 12:24:00.763,1.12,459.0,0.18,0.98,-0.01,-0.34,-0.9,0.58
2024-12-06 12:24:00.770,-1.35,470.0,0.18,0.97,-0.02,-0.28,-0.72,0.45
2024-12-06 12:24:00.787,2.02,460.0,0.18,0.97,-0.02,-0.28,-0.72,0.45
2024-12-06 12:24:00.820,0.0,470.0,0.18,0.97,-0.03,0.03,0.44,0.03
2024-12-06 12:24:00.827,-1.35,458.0,0.18,0.97,-0.03,0.09,0.5,0.09
2024-12-06 12:24:00.834,0.22,468.0,0.18,0.97,-0.03,0.09,0.44,0.09
2024-12-06 12:24:00.840,2.7,466.0,0.18,0.97,-0.03,0.03,0.26,0.03
2024-12-06 12:24:00.850,1.35,451.0,0.18,0.97,-0.03,0.03,-0.11,0.03
2024-12-06 12:24:00.854,-5.4,463.0,0.18,0.97,-0.02,-0.03,-0.11,0.03
2024-12-06 12:24:00.862,-2.47,461.0,0.18,0.97,-0.02,-0.1,-0.48,0.03
2024-12-06 12:24:00.870,-2.92,472.0,0.18,0.97,-0.02,-0.16,-0.6,0.03
2024-12-06 12:24:00.878,0.45,461.0,0.18,0.97,-0.02,-0.16,-0.48,0.03
2024-12-06 12:24:00.908,0.22,459.0,0.18,0.98,-0.02,-0.1,-0.42,0.15
2024-12-06 12:24:00.911,-2.47,454.0,0.18,0.98,-0.02,-0.03,-0.11,0.09
2024-12-06 12:24:00.915,2.47,456.0,0.18,0.98,-0.02,0.03,0.26,-0.1
2024-12-06 12:24:00.923,-0.22,459.0,0.18,0.98,-0.02,0.09,0.44,-0.16
2024-12-06 12:24:00.940,-3.15,460.0,0.18,0.98,-0.02,0.09,0.44,-0.16
2024-12-06 12:24:00.943,-0.67,448.0,0.18,0.97,-0.02,0.15,0.62,-0.16
2024-12-06 12:24:00.947,-0.22,448.0,0.18,0.97,-0.02,0.15,0.62,-0.1
2024-12-06 12:24:00.953,0.45,476.0,0.18,0.97,-0.02,0.15,0.44,-0.1
2024-12-06 12:24:00.962,-1.8,459.0,0.18,0.97,-0.02,0.09,0.19,-0.04
2024-12-06 12:24:00.972,1.35,461.0,0.18,0.97,-0.02,-0.03,0.07,0.03
2024-12-06 12:24:00.978,0.9,460.0,0.18,0.97,-0.02,-0.03,0.07,0.03
2024-12-06 12:24:00.986,-4.95,464.0,0.18,0.98,-0.02,-0.16,-0.05,0.09
2024-12-06 12:24:00.993,-3.82,456.0,0.18,0.98,-0.02,-0.22,-0.11,0.09
2024-12-06 12:24:01.1,-0.67,451.0,0.18,0.98,-0.02,-0.16,-0.05,0.21
2024-12-06 12:24:01.10,0.0,447.0,0.18,0.98,-0.02,-0.03,0.07,0.27
2024-12-06 12:24:01.45,2.25,456.0,0.18,0.98,-0.02,0.03,0.32,0.33
2024-12-06 12:24:01.50,-4.95,451.0,0.18,0.97,-0.02,0.39,1.05,0.27
2024-12-06 12:24:01.54,-3.38,465.0,0.18,0.97,-0.03,0.45,1.17,0.27
2024-12-06 12:24:01.64,-2.25,459.0,0.19,0.97,-0.03,0.45,1.17,0.27
2024-12-06 12:24:01.74,0.67,455.0,0.19,0.97,-0.03,0.45,1.05,0.27
2024-12-06 12:24:01.78,-1.57,473.0,0.19,0.97,-0.03,0.39,0.68,0.33
2024-12-06 12:24:01.85,-2.7,452.0,0.19,0.97,-0.02,0.39,0.32,0.39
2024-12-06 12:24:01.93,-0.45,470.0,0.19,0.97,-0.02,0.33,-0.23,0.39
2024-12-06 12:24:01.103,-0.45,451.0,0.19,0.98,-0.02,0.33,-0.23,0.33
2024-12-06 12:24:01.110,-1.57,455.0,0.19,0.98,-0.02,0.27,-0.66,0.33
2024-12-06 12:24:01.117,0.22,456.0,0.19,0.98,-0.02,0.15,-0.84,0.33
2024-12-06 12:24:01.220,-2.02,476.0,0.18,0.97,-0.02,0.27,-0.84,0.27
2024-12-06 12:24:01.228,1.12,461.0,0.19,0.97,-0.02,0.15,-1.21,0.33
2024-12-06 12:24:01.236,2.02,455.0,0.18,0.97,-0.02,0.03,-1.39,0.39
2024-12-06 12:24:01.245,1.12,517.0,0.18,0.97,-0.02,-0.1,-1.7,0.51
2024-12-06 12:24:01.277,-0.45,505.0,0.18,0.97,-0.02,-0.16,-1.76,0.58
2024-12-06 12:24:01.282,-2.25,455.0,0.18,0.97,-0.02,-0.22,-1.64,0.58
2024-12-06 12:24:01.290,-1.57,469.0,0.18,0.97,-0.02,-0.22,-1.64,0.58
2024-12-06 12:24:01.304,0.45,467.0,0.18,0.97,-0.02,-0.22,-1.39,0.58
2024-12-06 12:24:01.308,-1.35,456.0,0.18,0.97,-0.02,-0.22,-1.27,0.64
2024-12-06 12:24:01.311,0.22,464.0,0.18,0.97,-0.02,-0.28,-1.21,0.7
2024-12-06 12:24:01.319,0.22,457.0,0.18,0.97,-0.02,-0.34,-1.09,0.7
2024-12-06 12:24:01.333,-1.57,476.0,0.18,0.97,-0.02,-0.34,-1.09,0.7
2024-12-06 12:24:01.339,4.05,463.0,0.18,0.97,-0.02,-0.46,-1.03,0.64
2024-12-06 12:24:01.342,-1.57,459.0,0.18,0.97,-0.02,-0.58,-0.97,0.58
2024-12-06 12:24:01.351,-0.22,459.0,0.18,0.97,-0.02,-0.58,-0.9,0.58
2024-12-06 12:24:01.358,-3.38,458.0,0.18,0.97,-0.02,-0.58,-0.84,0.64
2024-12-06 12:24:01.382,-0.67,457.0,0.18,0.97,-0.03,-0.52,-0.72,0.64
2024-12-06 12:24:01.385,3.38,459.0,0.18,0.97,-0.03,-0.46,-0.6,0.64
2024-12-06 12:24:01.394,2.92,456.0,0.18,0.97,-0.03,-0.34,-0.35,0.58
2024-12-06 12:24:01.405,0.22,456.0,0.18,0.97,-0.03,-0.28,-0.23,0.58
2024-12-06 12:24:01.408,-4.28,455.0,0.18,0.97,-0.03,-0.28,-0.05,0.58
2024-12-06 12:24:01.415,-0.9,452.0,0.18,0.97,-0.03,-0.28,-0.05,0.58
2024-12-06 12:24:01.423,0.45,460.0,0.18,0.97,-0.03,-0.28,0.07,0.45
2024-12-06 12:24:01.429,0.45,448.0,0.18,0.97,-0.02,-0.22,0.01,0.39
2024-12-06 12:24:01.437,-0.45,460.0,0.18,0.97,-0.02,-0.22,-0.23,0.27
2024-12-06 12:24:01.443,1.57,469.0,0.18,0.97,-0.02,-0.22,-0.42,0.09
2024-12-06 12:24:01.450,-3.15,458.0,0.18,0.97,-0.02,-0.28,-0.66,-0.04
2024-12-06 12:24:01.462,0.0,455.0,0.18,0.98,-0.02,-0.28,-0.66,-0.04
2024-12-06 12:24:01.502,-9.0,447.0,0.18,0.98,-0.02,-0.28,-0.66,-0.04
2024-12-06 12:24:01.517,4.05,457.0,0.18,0.97,-0.02,-0.28,-0.29,-0.04
2024-12-06 12:24:01.522,0.45,468.0,0.18,0.97,-0.02,-0.16,0.44,0.09
2024-12-06 12:24:01.525,1.12,456.0,0.18,0.97,-0.02,-0.16,0.8,0.09
2024-12-06 12:24:01.534,-0.45,451.0,0.18,0.97,-0.03,-0.16,0.8,0.09
2024-12-06 12:24:01.541,1.57,448.0,0.18,0.97,-0.03,-0.22,0.99,0.15
2024-12-06 12:24:01.556,-5.62,459.0,0.18,0.97,-0.03,-0.22,0.99,0.27
2024-12-06 12:24:01.558,-4.05,451.0,0.18,0.97,-0.02,-0.28,0.74,0.45
2024-12-06 12:24:01.567,0.22,474.0,0.18,0.97,-0.02,-0.28,0.56,0.58
2024-12-06 12:24:01.575,0.45,462.0,0.18,0.97,-0.02,-0.28,0.56,0.58
2024-12-06 12:24:01.582,-1.35,464.0,0.18,0.97,-0.02,-0.28,0.32,0.58
2024-12-06 12:24:01.595,-2.92,453.0,0.18,0.97,-0.02,-0.34,0.26,0.58
2024-12-06 12:24:01.598,-1.8,445.0,0.18,0.97,-0.02,-0.34,0.32,0.51
2024-12-06 12:24:01.605,-2.02,463.0,0.18,0.97,-0.02,-0.34,0.32,0.45
2024-12-06 12:24:01.612,2.25,457.0,0.19,0.98,-0.02,-0.22,0.26,0.33
2024-12-06 12:24:01.619,0.0,456.0,0.18,0.98,-0.02,-0.22,0.26,0.33
2024-12-06 12:24:01.631,-2.7,452.0,0.18,0.98,-0.02,-0.16,0.32,0.21
2024-12-06 12:24:01.640,0.0,447.0,0.18,0.98,-0.02,-0.1,0.38,0.09
2024-12-06 12:24:01.643,-2.47,460.0,0.18,0.98,-0.02,-0.03,0.26,-0.04
2024-12-06 12:24:01.650,0.0,458.0,0.18,0.98,-0.02,-0.1,0.13,-0.1
2024-12-06 12:24:01.660,4.28,452.0,0.18,0.97,-0.02,-0.1,-0.05,-0.04
2024-12-06 12:24:01.672,-0.67,454.0,0.18,0.97,-0.02,-0.1,-0.05,-0.04
2024-12-06 12:24:01.677,-0.22,453.0,0.18,0.97,-0.02,-0.16,-0.23,0.03
2024-12-06 12:24:01.682,1.35,456.0,0.18,0.97,-0.02,-0.22,-0.29,0.09
2024-12-06 12:24:01.691,2.25,463.0,0.18,0.97,-0.02,-0.28,-0.23,0.15
2024-12-06 12:24:01.702,2.7,463.0,0.18,0.97,-0.02,-0.34,-0.23,0.15
2024-12-06 12:24:01.706,0.22,458.0,0.18,0.97,-0.02,-0.34,-0.23,0.15
2024-12-06 12:24:01.715,-2.47,462.0,0.18,0.97,-0.02,-0.34,-0.11,0.15
2024-12-06 12:24:01.747,-2.7,467.0,0.18,0.97,-0.02,-0.16,0.5,0.21
2024-12-06 12:24:01.752,0.45,461.0,0.18,0.97,-0.02,-0.1,0.68,0.21
2024-12-06 12:24:01.757,2.25,462.0,0.18,0.97,-0.02,0.03,0.8,0.27
2024-12-06 12:24:01.776,2.02,491.0,0.18,0.97,-0.02,0.03,0.8,0.27
2024-12-06 12:24:01.780,0.22,453.0,0.18,0.97,-0.02,0.03,0.74,0.27
2024-12-06 12:24:01.788,-2.47,460.0,0.19,0.97,-0.02,0.03,0.74,0.33
2024-12-06 12:24:01.797,-5.17,459.0,0.19,0.97,-0.02,-0.03,0.56,0.33
2024-12-06 12:24:01.803,2.47,454.0,0.19,0.97,-0.02,-0.1,0.26,0.27
2024-12-06 12:24:01.806,-2.47,452.0,0.19,0.97,-0.02,-0.16,-0.05,0.21
2024-12-06 12:24:01.812,2.25,469.0,0.19,0.97,-0.02,-0.16,-0.48,0.21
2024-12-06 12:24:01.820,-1.8,465.0,0.19,0.97,-0.02,-0.16,-0.84,0.09
2024-12-06 12:24:01.828,2.25,453.0,0.19,0.98,-0.02,-0.16,-0.84,0.09
2024-12-06 12:24:01.834,-3.6,457.0,0.18,0.98,-0.02,-0.16,-1.03,-0.1
2024-12-06 12:24:01.847,0.45,458.0,0.18,0.98,-0.02,-0.1,-1.15,-0.22
2024-12-06 12:24:01.859,-4.5,461.0,0.18,0.98,-0.02,-0.1,-1.09,-0.22
2024-12-06 12:24:01.863,1.8,456.0,0.18,0.98,-0.02,-0.1,-0.9,-0.22
2024-12-06 12:24:01.866,0.9,473.0,0.18,0.98,-0.02,-0.1,-0.9,-0.22
2024-12-06 12:24:01.903,-1.8,449.0,0.18,0.97,-0.02,-0.03,-0.17,0.03
2024-12-06 12:24:01.907,-2.02,458.0,0.18,0.97,-0.03,-0.1,-0.05,0.09
2024-12-06 12:24:01.910,0.67,455.0,0.18,0.97,-0.03,-0.1,0.01,0.15
2024-12-06 12:24:01.920,2.7,474.0,0.18,0.97,-0.02,-0.16,-0.05,0.09
2024-12-06 12:24:01.951,-0.67,468.0,0.18,0.97,-0.02,-0.22,-0.78,0.09
2024-12-06 12:24:01.954,-6.07,466.0,0.18,0.97,-0.02,-0.22,-0.84,0.03
2024-12-06 12:24:01.964,-2.02,477.0,0.18,0.98,-0.02,-0.28,-0.97,0.03
2024-12-06 12:24:01.973,2.92,474.0,0.18,0.98,-0.02,-0.28,-1.27,0.09
2024-12-06 12:24:01.978,-1.57,461.0,0.18,0.98,-0.02,-0.28,-1.27,0.09
2024-12-06 12:24:01.989,0.67,458.0,0.18,0.98,-0.02,-0.28,-1.39,0.03
2024-12-06 12:24:01.993,0.22,476.0,0.18,0.98,-0.02,-0.28,-1.39,-0.04
2024-12-06 12:24:02.1,2.47,468.0,0.18,0.98,-0.02,-0.34,-1.27,-0.1
2024-12-06 12:24:02.9,1.35,472.0,0.18,0.98,-0.02,-0.34,-1.27,-0.1
2024-12-06 12:24:02.22,-1.8,463.0,0.18,0.98,-0.02,-0.28,-1.27,-0.1
2024-12-06 12:24:02.25,-2.47,467.0,0.18,0.97,-0.02,-0.28,-1.27,-0.1
2024-12-06 12:24:02.32,1.57,510.0,0.18,0.97,-0.02,-0.28,-1.21,-0.1
2024-12-06 12:24:02.40,-3.82,462.0,0.18,0.97,-0.02,-0.28,-1.09,-0.04
2024-12-06 12:24:02.51,0.22,472.0,0.18,0.97,-0.02,-0.22,-1.03,-0.1
2024-12-06 12:24:02.59,-0.45,458.0,0.18,0.97,-0.02,-0.28,-0.9,-0.04
2024-12-06 12:24:02.63,0.67,466.0,0.18,0.97,-0.02,-0.28,-0.9,-0.1
2024-12-06 12:24:02.71,-4.05,449.0,0.18,0.97,-0.02,-0.28,-0.72,-0.1
2024-12-06 12:24:02.79,2.7,469.0,0.18,0.97,-0.02,-0.28,-0.6,-0.04
2024-12-06 12:24:02.87,1.35,478.0,0.18,0.97,-0.02,-0.22,-0.6,-0.1
2024-12-06 12:24:02.95,-0.22,468.0,0.18,0.97,-0.02,-0.16,-0.54,-0.1
2024-12-06 12:24:02.104,0.45,452.0,0.18,0.97,-0.02,-0.16,-0.48,-0.1
2024-12-06 12:24:02.113,1.12,453.0,0.18,0.97,-0.02,-0.16,-0.48,-0.16
2024-12-06 12:24:02.119,-3.82,455.0,0.18,0.97,-0.03,-0.03,-0.48,-0.16
2024-12-06 12:24:02.129,0.9,468.0,0.18,0.97,-0.03,-0.03,-0.42,-0.16
2024-12-06 12:24:02.141,1.12,459.0,0.18,0.97,-0.02,-0.03,-0.48,-0.16
2024-12-06 12:24:02.280,2.02,482.0,0.18,0.97,-0.02,-0.22,-0.29,0.27
2024-12-06 12:24:02.283,-4.28,447.0,0.18,0.97,-0.02,-0.22,-0.42,0.21
2024-12-06 12:24:02.285,-4.28,473.0,0.18,0.97,-0.02,-0.28,-0.66,0.09
2024-12-06 12:24:02.292,-3.38,506.0,0.18,0.97,-0.02,-0.28,-0.97,-0.04
2024-12-06 12:24:02.305,-3.15,461.0,0.18,0.97,-0.02,-0.28,-0.97,-0.04
2024-12-06 12:24:02.310,-2.25,461.0,0.18,0.97,-0.02,-0.22,-1.33,-0.1
2024-12-06 12:24:02.321,2.25,454.0,0.18,0.97,-0.02,-0.22,-1.39,-0.16
2024-12-06 12:24:02.324,2.7,478.0,0.18,0.98,-0.02,-0.22,-1.45,-0.22
2024-12-06 12:24:02.331,0.45,462.0,0.18,0.98,-0.02,-0.16,-1.64,-0.22
2024-12-06 12:24:02.343,-0.22,467.0,0.18,0.98,-0.02,-0.1,-1.76,-0.28
2024-12-06 12:24:02.348,0.0,469.0,0.17,0.98,-0.02,-0.1,-1.76,-0.28
2024-12-06 12:24:02.356,-0.67,461.0,0.17,0.98,-0.02,-0.1,-1.64,-0.28
2024-12-06 12:24:02.362,-1.57,454.0,0.17,0.98,-0.02,-0.1,-1.51,-0.34
2024-12-06 12:24:02.396,-2.7,478.0,0.17,0.98,-0.02,-0.16,-1.33,-0.28
2024-12-06 12:24:02.401,-2.02,436.0,0.17,0.97,-0.02,-0.03,-0.97,-0.1
2024-12-06 12:24:02.411,0.0,477.0,0.17,0.97,-0.03,-0.03,-0.72,-0.16
2024-12-06 12:24:02.418,0.67,450.0,0.17,0.97,-0.03,-0.03,-0.54,-0.16
2024-12-06 12:24:02.424,-2.92,463.0,0.17,0.98,-0.03,-0.1,-0.35,-0.1
2024-12-06 12:24:02.431,2.92,472.0,0.17,0.98,-0.03,-0.1,-0.35,-0.1
2024-12-06 12:24:02.438,-2.47,474.0,0.17,0.98,-0.02,-0.03,-0.17,-0.04
2024-12-06 12:24:02.446,1.12,462.0,0.17,0.98,-0.02,-0.03,-0.11,0.15
2024-12-06 12:24:02.457,-2.92,453.0,0.17,0.98,-0.02,-0.03,0.01,0.33
2024-12-06 12:24:02.463,-0.67,455.0,0.17,0.98,-0.02,0.03,0.13,0.39
2024-12-06 12:24:02.469,1.35,453.0,0.17,0.98,-0.02,0.03,0.26,0.39
2024-12-06 12:24:02.480,1.35,460.0,0.17,0.97,-0.03,0.03,0.26,0.39
2024-12-06 12:24:02.490,1.57,457.0,0.17,0.97,-0.03,0.09,0.32,0.33
2024-12-06 12:24:02.493,-5.85,460.0,0.17,0.97,-0.03,0.09,0.44,0.33
2024-12-06 12:24:02.504,2.7,458.0,0.18,0.97,-0.02,0.03,0.44,0.27
2024-12-06 12:24:02.508,-2.25,454.0,0.18,0.97,-0.02,0.03,0.13,0.33
2024-12-06 12:24:02.517,-0.67,461.0,0.18,0.98,-0.02,0.03,0.13,0.33
2024-12-06 12:24:02.525,-8.55,471.0,0.18,0.98,-0.02,0.09,-0.23,0.33
2024-12-06 12:24:02.534,0.22,433.0,0.18,0.98,-0.02,0.09,-0.48,0.27
2024-12-06 12:24:02.550,2.92,468.0,0.17,0.98,-0.02,0.09,-0.72,0.15
2024-12-06 12:24:02.552,-2.02,468.0,0.17,0.98,-0.02,0.09,-0.9,0.09
2024-12-06 12:24:02.557,0.45,463.0,0.17,0.98,-0.02,0.09,-0.9,0.03
2024-12-06 12:24:03.562,-3.15,456.0,0.18,0.97,-0.03,0.09,0.8,0.88
2024-12-06 12:24:03.596,2.47,477.0,0.18,0.97,-0.03,0.03,0.93,0.88
2024-12-06 12:24:03.642,-2.7,452.0,0.19,0.98,-0.02,0.15,0.01,1.12
2024-12-06 12:24:03.647,1.35,474.0,0.18,0.97,-0.01,-0.03,-0.97,0.33
2024-12-06 12:24:03.673,0.67,452.0,0.18,0.97,-0.02,0.03,-0.66,-0.1
2024-12-06 12:24:03.700,1.8,454.0,0.18,0.97,-0.03,0.09,-0.35,-0.52
2024-12-06 12:24:03.729,-2.47,454.0,0.18,0.97,-0.02,-0.03,-0.6,-0.58
2024-12-06 12:24:03.762,1.57,460.0,0.18,0.97,-0.02,-0.34,-0.6,-0.22
2024-12-06 12:24:03.786,0.45,461.0,0.17,0.97,-0.02,-0.4,-1.27,-0.77
2024-12-06 12:24:03.814,1.57,463.0,0.16,0.97,-0.01,-0.83,-2.55,-3.45
2024-12-06 12:24:03.843,2.47,458.0,0.1,0.93,-0.04,1.13,-3.1,-10.11
2024-12-06 12:24:03.866,4.95,474.0,0.18,0.96,-0.0,0.82,-4.75,-11.75
2024-12-06 12:24:03.893,2.47,457.0,0.18,1.0,-0.04,1.67,-0.48,-8.76
2024-12-06 12:24:03.941,7.42,472.0,0.16,1.0,-0.04,1.43,0.99,-5.41
2024-12-06 12:24:03.948,4.72,456.0,0.14,0.98,-0.02,0.76,2.39,-5.71
2024-12-06 12:24:03.990,7.88,456.0,0.14,0.98,-0.04,-0.46,3.12,-4.06
2024-12-06 12:24:04.3,4.05,452.0,0.12,0.99,-0.03,-0.64,3.92,-4.19
2024-12-06 12:24:04.31,10.12,474.0,0.14,0.99,-0.02,-1.07,6.24,-2.9
2024-12-06 12:24:04.59,9.68,446.0,0.15,0.99,-0.03,-1.07,9.96,-0.95
2024-12-06 12:24:04.100,12.38,460.0,0.17,0.99,-0.04,-0.03,11.61,0.82
2024-12-06 12:24:04.114,12.15,466.0,0.19,1.0,-0.03,0.94,11.49,4.73
2024-12-06 12:24:04.144,13.05,473.0,0.18,0.99,-0.04,2.04,9.53,5.76
2024-12-06 12:24:04.171,14.4,465.0,0.19,0.98,-0.02,2.53,7.34,6.98
2024-12-06 12:24:04.213,13.5,456.0,0.18,0.97,-0.02,3.02,5.75,6.37
2024-12-06 12:24:04.229,19.57,473.0,0.18,0.98,-0.01,2.9,4.96,6.25
2024-12-06 12:24:04.252,16.65,484.0,0.17,0.97,-0.01,2.47,4.04,5.52
2024-12-06 12:24:04.358,22.05,480.0,0.17,0.97,-0.01,1.8,3.55,4.73
2024-12-06 12:24:04.363,18.0,470.0,0.17,0.97,-0.02,1.06,5.08,2.89
2024-12-06 12:24:04.368,25.42,490.0,0.17,0.97,-0.03,0.7,5.08,2.53
2024-12-06 12:24:04.392,28.8,482.0,0.17,0.97,-0.03,0.39,4.1,1.0
2024-12-06 12:24:04.442,25.42,472.0,0.18,0.98,-0.03,-0.03,3.19,1.25
2024-12-06 12:24:04.454,25.42,472.0,0.18,0.98,-0.03,0.39,2.76,0.45
2024-12-06 12:24:04.473,29.92,474.0,0.19,0.98,-0.06,0.82,2.57,1.61
2024-12-06 12:24:04.501,26.55,473.0,0.18,0.98,-0.04,1.19,2.64,2.22
2024-12-06 12:24:04.531,27.22,484.0,0.17,0.97,-0.03,1.0,3.19,1.92
2024-12-06 12:24:04.557,30.6,466.0,0.17,0.97,-0.03,0.94,4.41,2.53
2024-12-06 12:24:04.583,26.77,474.0,0.16,0.97,-0.03,1.06,5.44,1.61
2024-12-06 12:24:04.623,27.22,483.0,0.18,0.98,-0.02,0.7,6.73,2.1
2024-12-06 12:24:04.670,33.3,483.0,0.17,0.97,-0.03,0.94,7.4,1.73
2024-12-06 12:24:04.672,35.77,478.0,0.2,0.98,-0.03,0.58,5.93,2.28
2024-12-06 12:24:04.693,33.08,487.0,0.19,0.98,-0.03,0.64,4.1,2.65
2024-12-06 12:24:04.720,35.1,473.0,0.19,0.98,-0.02,0.58,2.82,2.47
2024-12-06 12:24:04.751,40.72,475.0,0.18,0.97,-0.02,0.51,2.51,2.59
2024-12-06 12:24:04.795,39.15,479.0,0.19,0.97,-0.02,0.45,3.12,2.41
2024-12-06 12:24:04.813,41.17,482.0,0.19,0.96,-0.02,0.51,3.55,2.41
2024-12-06 12:24:04.833,40.72,487.0,0.19,0.96,-0.02,0.45,2.76,1.86
2024-12-06 12:24:04.858,43.42,466.0,0.2,0.97,-0.03,0.21,1.9,2.47
2024-12-06 12:24:04.890,42.52,472.0,0.19,0.97,-0.03,-0.03,1.35,2.35
2024-12-06 12:24:04.917,40.05,467.0,0.2,0.98,-0.03,-0.1,1.29,3.02
2024-12-06 12:24:04.941,45.22,470.0,0.19,0.97,-0.04,0.33,1.84,3.08
2024-12-06 12:24:04.968,45.0,476.0,0.2,0.97,-0.03,0.27,2.21,2.77
2024-12-06 12:24:04.997,44.32,473.0,0.21,0.97,-0.03,0.39,2.09,3.57
2024-12-06 12:24:05.26,49.72,490.0,0.21,0.97,-0.03,0.39,1.54,3.5
2024-12-06 12:24:05.52,50.17,473.0,0.21,0.97,-0.03,0.58,0.56,3.99
2024-12-06 12:24:05.80,49.05,480.0,0.21,0.96,-0.02,0.51,0.07,3.44
2024-12-06 12:24:05.113,48.38,478.0,0.21,0.97,-0.02,0.33,-0.05,3.75
2024-12-06 12:24:05.134,52.88,493.0,0.21,0.96,-0.02,-0.03,0.38,3.5
2024-12-06 12:24:05.163,54.67,472.0,0.22,0.96,-0.03,-0.34,0.01,3.26
2024-12-06 12:24:05.189,54.22,480.0,0.21,0.96,-0.02,-0.16,-0.78,2.53
2024-12-06 12:24:05.217,53.55,491.0,0.22,0.96,-0.02,-0.22,-1.58,2.1
2024-12-06 12:24:05.248,56.92,479.0,0.22,0.98,-0.03,-0.4,-1.94,2.71
2024-12-06 12:24:05.273,58.5,495.0,0.21,0.97,-0.03,-0.71,-1.94,2.83
2024-12-06 12:24:05.303,55.35,494.0,0.22,0.97,-0.03,-1.01,-2.19,3.26
2024-12-06 12:24:05.404,62.1,481.0,0.22,0.96,-0.03,-1.19,-2.25,3.57
2024-12-06 12:24:05.410,60.75,494.0,0.22,0.96,-0.03,-1.13,-3.71,3.14
2024-12-06 12:24:05.413,63.22,484.0,0.22,0.96,-0.02,-0.83,-4.44,2.16
2024-12-06 12:24:05.440,59.85,490.0,0.22,0.98,-0.02,-0.89,-4.51,2.28
2024-12-06 12:24:05.465,62.1,469.0,0.21,0.98,-0.03,-1.01,-3.41,2.59
2024-12-06 12:24:05.492,62.77,477.0,0.25,0.97,-0.03,-0.95,-2.43,2.83
2024-12-06 12:24:05.519,65.7,468.0,0.22,0.96,-0.04,-0.77,-2.31,3.08
2024-12-06 12:24:05.548,63.45,476.0,0.23,0.95,-0.03,-0.52,-2.86,2.59
2024-12-06 12:24:05.578,65.25,490.0,0.24,0.96,-0.02,-0.46,-3.59,3.08
2024-12-06 12:24:05.602,70.42,501.0,0.23,0.96,-0.02,-0.46,-3.1,2.83
2024-12-06 12:24:05.630,71.1,497.0,0.23,0.96,-0.01,-0.46,-2.55,2.22
2024-12-06 12:24:05.657,70.88,491.0,0.23,0.97,-0.03,-0.71,-2.8,2.47
2024-12-06 12:24:05.689,67.5,508.0,0.23,0.96,-0.03,-1.07,-3.22,2.28
2024-12-06 12:24:05.715,73.12,493.0,0.23,0.97,-0.04,-1.44,-4.51,3.02
2024-12-06 12:24:05.742,68.17,509.0,0.23,0.95,-0.04,-1.38,-4.44,2.65
2024-12-06 12:24:05.768,76.72,508.0,0.25,0.95,-0.03,-1.44,-5.12,2.71
2024-12-06 12:24:05.800,76.5,501.0,0.24,0.96,-0.02,-1.5,-5.12,2.65
2024-12-06 12:24:05.823,75.6,502.0,0.23,0.95,-0.02,-1.07,-4.02,2.41
2024-12-06 12:24:05.850,78.3,508.0,0.24,0.95,-0.01,-0.64,-3.16,1.92
2024-12-06 12:24:05.878,78.97,501.0,0.25,0.96,-0.03,-0.64,-3.53,1.67
2024-12-06 12:24:05.906,79.65,503.0,0.24,0.97,-0.03,-0.52,-4.63,1.55
2024-12-06 12:24:05.935,82.12,517.0,0.23,0.95,-0.03,-0.64,-3.77,1.55
2024-12-06 12:24:05.975,81.45,526.0,0.24,0.94,-0.02,-0.46,-1.94,1.73
2024-12-06 12:24:05.988,83.47,508.0,0.24,0.95,-0.02,-0.1,0.01,1.06
2024-12-06 12:24:06.23,82.8,533.0,0.26,0.97,-0.03,0.09,0.5,0.51
2024-12-06 12:24:06.43,84.38,514.0,0.24,0.97,-0.02,0.45,-0.72,0.03
2024-12-06 12:24:06.62,87.07,540.0,0.24,0.96,-0.03,0.39,-0.48,-0.4
2024-12-06 12:24:06.68,85.05,517.0,0.25,0.96,-0.03,0.33,-0.29,-0.58
2024-12-06 12:24:06.74,86.85,525.0,0.25,0.96,-0.03,0.33,-1.39,-0.4
2024-12-06 12:24:06.76,86.17,522.0,0.25,0.97,-0.03,0.33,-1.39,-0.4
2024-12-06 12:24:06.82,85.28,539.0,0.25,0.97,-0.03,0.27,-1.39,-0.34
2024-12-06 12:24:06.89,81.67,525.0,0.25,0.97,-0.03,0.09,-1.82,-0.1
2024-12-06 12:24:06.97,87.75,515.0,0.25,0.98,-0.03,-0.16,-2.49,0.27
2024-12-06 12:24:06.113,87.75,523.0,0.25,0.98,-0.03,-0.46,-3.1,0.64
2024-12-06 12:24:06.118,88.88,543.0,0.24,0.98,-0.03,-0.71,-3.28,1.06
2024-12-06 12:24:06.121,84.38,538.0,0.24,0.99,-0.03,-0.71,-3.28,1.06
2024-12-06 12:24:06.130,87.3,527.0,0.25,1.01,-0.03,-1.38,-4.57,2.04
2024-12-06 12:24:06.144,85.28,526.0,0.23,0.99,-0.04,-1.62,-4.44,2.77
2024-12-06 12:24:06.148,88.42,517.0,0.23,0.98,-0.05,-1.56,-3.89,3.2
2024-12-06 12:24:06.152,82.57,546.0,0.23,0.98,-0.05,-1.8,-3.22,3.63
2024-12-06 12:24:06.159,82.57,538.0,0.23,0.96,-0.04,-1.87,-2.61,4.05
2024-12-06 12:24:06.170,83.7,528.0,0.23,0.94,-0.04,-1.87,-2.61,4.05
2024-12-06 12:24:06.175,82.57,525.0,0.24,0.93,-0.03,-1.68,-2.25,4.36
2024-12-06 12:24:06.184,87.97,532.0,0.24,0.93,-0.03,-1.62,-1.88,4.66
2024-12-06 12:24:06.191,81.0,532.0,0.24,0.93,-0.03,-1.74,-1.33,4.66
2024-12-06 12:24:06.199,85.5,554.0,0.24,0.93,-0.03,-1.8,-1.27,4.54
2024-12-06 12:24:06.212,85.95,520.0,0.24,0.94,-0.03,-1.8,-1.21,4.3
2024-12-06 12:24:06.244,86.4,532.0,0.25,0.94,-0.03,-1.8,-1.21,4.3
2024-12-06 12:24:06.253,86.17,527.0,0.25,0.95,-0.02,-1.26,-0.97,2.16
2024-12-06 12:24:06.255,86.4,548.0,0.25,0.95,-0.02,-1.26,-0.97,2.16
2024-12-06 12:24:06.260,87.97,532.0,0.25,0.95,-0.01,-0.83,-0.66,1.55
2024-12-06 12:24:06.281,84.82,533.0,0.25,0.95,-0.01,-0.1,0.62,0.51
2024-12-06 12:24:06.286,83.03,539.0,0.25,0.95,-0.01,0.33,1.11,-0.04
2024-12-06 12:24:06.294,88.2,528.0,0.26,0.95,-0.01,0.33,1.11,-0.04
2024-12-06 12:24:06.299,87.52,527.0,0.26,0.95,-0.02,0.76,1.42,-0.46
2024-12-06 12:24:06.309,86.85,519.0,0.26,0.95,-0.02,1.13,1.66,-1.07
2024-12-06 12:24:06.314,82.57,523.0,0.26,0.95,-0.02,1.31,1.78,-1.62
2024-12-06 12:24:06.325,86.85,517.0,0.26,0.95,-0.02,1.49,1.72,-2.23
2024-12-06 12:24:06.330,82.57,519.0,0.25,0.95,-0.02,1.49,1.72,-2.78
2024-12-06 12:24:06.338,87.75,525.0,0.25,0.95,-0.03,1.55,1.66,-2.78
2024-12-06 12:24:06.346,83.7,521.0,0.25,0.95,-0.03,1.55,1.54,-3.15
2024-12-06 12:24:06.354,88.88,513.0,0.24,0.96,-0.03,1.49,1.29,-3.27
2024-12-06 12:24:06.362,85.05,532.0,0.24,0.96,-0.03,1.49,1.29,-3.33
2024-12-06 12:24:06.460,85.05,531.0,0.24,0.96,-0.03,1.25,1.42,-3.15
2024-12-06 12:24:06.466,86.4,516.0,0.25,0.96,-0.03,-0.46,0.13,0.51
2024-12-06 12:24:06.478,86.85,523.0,0.25,0.96,-0.02,-0.4,-0.05,0.58
2024-12-06 12:24:06.483,86.17,514.0,0.26,0.96,-0.02,-0.22,-0.23,0.51
2024-12-06 12:24:06.489,87.3,513.0,0.26,0.96,-0.02,-0.22,-0.23,0.51
2024-12-06 12:24:06.498,84.82,516.0,0.25,0.96,-0.02,-0.1,-0.23,0.39
2024-12-06 12:24:06.508,86.17,514.0,0.25,0.96,-0.02,-0.03,-0.17,0.21
2024-12-06 12:24:06.513,84.82,525.0,0.25,0.96,-0.02,-0.03,-0.05,0.09
2024-12-06 12:24:06.520,87.75,518.0,0.25,0.96,-0.02,0.03,0.07,0.03
2024-12-06 12:24:06.626,82.8,517.0,0.25,0.96,-0.02,-0.34,-0.97,0.45
2024-12-06 12:24:06.645,87.52,520.0,0.25,0.96,-0.02,-0.52,-0.78,0.45
2024-12-06 12:24:06.670,83.25,515.0,0.25,0.96,-0.02,-0.64,-0.72,0.45
2024-12-06 12:24:06.698,87.07,518.0,0.25,0.96,-0.03,-0.46,-0.6,-0.28
2024-12-06 12:24:06.701,83.25,514.0,0.25,0.96,-0.03,-0.4,-0.78,-0.4
2024-12-06 12:24:06.715,87.07,516.0,0.25,0.96,-0.03,-0.34,-0.9,-0.58
2024-12-06 12:24:06.717,86.85,502.0,0.25,0.96,-0.03,-0.34,-1.15,-0.58
2024-12-06 12:24:06.726,79.65,528.0,0.25,0.96,-0.03,-0.4,-1.15,-0.58
2024-12-06 12:24:06.740,86.62,512.0,0.25,0.96,-0.03,-0.34,-1.33,-0.65
2024-12-06 12:24:06.745,86.17,512.0,0.25,0.96,-0.03,-0.46,-1.39,-0.58
2024-12-06 12:24:06.748,85.28,509.0,0.25,0.96,-0.03,-0.52,-1.27,-0.52
2024-12-06 12:24:06.758,87.75,522.0,0.24,0.96,-0.02,-0.64,-1.21,-0.28
2024-12-06 12:24:06.764,87.52,512.0,0.24,0.96,-0.02,-0.64,-1.21,-0.28
2024-12-06 12:24:06.770,84.82,510.0,0.24,0.96,-0.02,-0.64,-1.03,-0.1
2024-12-06 12:24:06.778,85.95,527.0,0.24,0.96,-0.02,-0.64,-0.84,0.09
2024-12-06 12:24:06.791,85.95,522.0,0.25,0.96,-0.02,-0.64,-0.66,0.27
2024-12-06 12:24:06.793,87.3,530.0,0.25,0.96,-0.02,-0.52,-0.6,0.45
2024-12-06 12:24:06.801,85.95,525.0,0.25,0.96,-0.03,-0.52,-0.54,0.51
2024-12-06 12:24:06.809,87.52,511.0,0.25,0.96,-0.03,-0.46,-0.54,0.51
2024-12-06 12:24:06.817,84.6,512.0,0.25,0.96,-0.03,-0.52,-0.6,0.58
2024-12-06 12:24:06.834,85.72,506.0,0.25,0.96,-0.03,-0.52,-0.72,0.51
2024-12-06 12:24:06.839,86.62,517.0,0.25,0.96,-0.03,-0.46,-0.9,0.51
2024-12-06 12:24:06.843,87.07,520.0,0.25,0.96,-0.03,-0.4,-1.15,0.45
2024-12-06 12:24:06.855,86.4,526.0,0.25,0.96,-0.03,-0.4,-1.15,0.45
2024-12-06 12:24:06.864,85.5,532.0,0.25,0.96,-0.02,-0.34,-1.21,0.33
2024-12-06 12:24:06.869,88.2,569.0,0.24,0.96,-0.02,-0.34,-1.09,0.15
2024-12-06 12:24:06.872,87.07,519.0,0.24,0.96,-0.02,-0.28,-0.97,0.03
2024-12-06 12:24:06.880,87.07,524.0,0.24,0.96,-0.02,-0.16,-0.72,-0.16
2024-12-06 12:24:06.887,89.55,519.0,0.24,0.96,-0.02,-0.16,-0.48,-0.28
2024-12-06 12:24:06.894,86.17,527.0,0.24,0.96,-0.02,-0.16,-0.48,-0.28
2024-12-06 12:24:06.903,81.45,511.0,0.24,0.96,-0.02,-0.16,-0.23,-0.46
2024-12-06 12:24:06.932,85.72,516.0,0.24,0.96,-0.02,-0.22,-0.05,-0.65
2024-12-06 12:24:06.937,82.12,523.0,0.24,0.96,-0.03,-0.34,-0.17,-0.89
2024-12-06 12:24:06.941,84.15,507.0,0.24,0.96,-0.03,-0.4,-0.48,-0.95
2024-12-06 12:24:06.948,86.4,517.0,0.25,0.96,-0.03,-0.46,-0.84,-1.01
2024-12-06 12:24:06.959,82.57,515.0,0.25,0.96,-0.03,-0.46,-1.27,-1.01
2024-12-06 12:24:06.991,82.35,520.0,0.24,0.96,-0.03,-0.4,-1.94,-0.77
2024-12-06 12:24:06.998,85.95,528.0,0.24,0.96,-0.02,-0.46,-2.0,-0.58
2024-12-06 12:24:07.4,86.4,537.0,0.24,0.96,-0.02,-0.52,-1.88,-0.4
2024-12-06 12:24:07.10,82.35,511.0,0.24,0.96,-0.02,-0.58,-1.7,-0.28
2024-12-06 12:24:07.21,84.6,522.0,0.24,0.96,-0.02,-0.58,-1.7,-0.28
2024-12-06 12:24:07.27,87.3,509.0,0.24,0.96,-0.02,-0.64,-1.45,-0.16
2024-12-06 12:24:07.34,86.62,510.0,0.24,0.96,-0.02,-0.64,-1.21,-0.04
2024-12-06 12:24:07.43,85.5,515.0,0.24,0.96,-0.02,-0.71,-0.97,0.03
2024-12-06 12:24:07.48,85.05,516.0,0.24,0.96,-0.02,-0.71,-0.72,0.09
2024-12-06 12:24:07.57,84.15,510.0,0.24,0.96,-0.02,-0.64,-0.6,0.09
2024-12-06 12:24:07.66,88.65,514.0,0.24,0.96,-0.03,-0.64,-0.6,0.09
2024-12-06 12:24:07.73,82.57,499.0,0.24,0.96,-0.03,-0.52,-0.6,0.09
2024-12-06 12:24:07.79,86.85,515.0,0.24,0.96,-0.03,-0.4,-0.6,0.09
2024-12-06 12:24:07.87,85.5,510.0,0.24,0.96,-0.03,-0.34,-0.66,0.03
2024-12-06 12:24:07.97,73.57,515.0,0.24,0.96,-0.03,-0.28,-0.72,-0.04
2024-12-06 12:24:07.109,83.7,509.0,0.24,0.96,-0.03,-0.28,-0.72,-0.04
2024-12-06 12:24:07.111,87.07,519.0,0.24,0.96,-0.03,-0.22,-0.72,-0.04
2024-12-06 12:24:07.145,86.62,512.0,0.24,0.96,-0.03,-0.22,-0.72,-0.1
2024-12-06 12:24:07.151,83.47,517.0,0.24,0.96,-0.03,-0.16,-0.72,-0.1
2024-12-06 12:24:07.155,83.03,517.0,0.24,0.96,-0.03,-0.16,-0.72,-0.1
2024-12-06 12:24:07.158,83.25,520.0,0.24,0.96,-0.03,-0.16,-0.78,-0.1
2024-12-06 12:24:07.167,82.8,510.0,0.24,0.96,-0.03,-0.16,-0.78,-0.1
2024-12-06 12:24:07.175,86.85,516.0,0.24,0.96,-0.03,-0.16,-0.84,-0.1
2024-12-06 12:24:07.180,88.65,519.0,0.24,0.96,-0.03,-0.16,-1.03,-0.16
2024-12-06 12:24:07.196,85.28,511.0,0.24,0.96,-0.03,-0.16,-1.03,-0.16
2024-12-06 12:24:07.203,86.62,520.0,0.24,0.96,-0.02,-0.1,-1.15,-0.16
2024-12-06 12:24:07.206,87.52,513.0,0.24,0.96,-0.02,-0.1,-1.15,-0.22
2024-12-06 12:24:07.220,87.75,515.0,0.24,0.96,-0.02,-0.16,-1.09,-0.28
2024-12-06 12:24:07.227,85.28,520.0,0.24,0.96,-0.02,-0.22,-1.03,-0.34
2024-12-06 12:24:07.232,83.25,515.0,0.24,0.96,-0.02,-0.22,-1.03,-0.28
2024-12-06 12:24:07.246,82.12,505.0,0.24,0.96,-0.02,-0.22,-0.84,-0.28
2024-12-06 12:24:07.251,84.82,511.0,0.23,0.96,-0.02,-0.28,-0.6,-0.22
2024-12-06 12:24:07.256,86.4,515.0,0.23,0.96,-0.02,-0.28,-0.48,-0.16
2024-12-06 12:24:07.268,85.95,512.0,0.23,0.96,-0.02,-0.28,-0.48,-0.1
2024-12-06 12:24:07.282,86.62,509.0,0.24,0.96,-0.02,-0.28,-0.48,-0.1
2024-12-06 12:24:07.291,82.57,516.0,0.24,0.96,-0.03,-0.4,-0.54,-0.04
2024-12-06 12:24:07.310,83.7,520.0,0.24,0.96,-0.03,-0.46,-0.66,-0.1
2024-12-06 12:24:07.318,86.62,519.0,0.24,0.96,-0.03,-0.46,-0.66,-0.1
2024-12-06 12:24:07.321,84.38,507.0,0.24,0.96,-0.03,-0.4,-0.78,-0.1
2024-12-06 12:24:07.325,86.4,535.0,0.23,0.96,-0.02,-0.34,-0.97,-0.16
2024-12-06 12:24:07.338,85.5,527.0,0.23,0.96,-0.02,-0.28,-0.97,-0.16
2024-12-06 12:24:07.341,88.65,499.0,0.23,0.96,-0.02,-0.28,-0.84,-0.22
2024-12-06 12:24:07.371,85.28,520.0,0.23,0.96,-0.02,-0.28,-0.72,-0.1
2024-12-06 12:24:07.385,85.72,530.0,0.23,0.96,-0.02,-0.34,-0.6,-0.04
2024-12-06 12:24:07.389,85.28,517.0,0.23,0.97,-0.02,-0.34,-0.48,0.03
2024-12-06 12:24:07.393,87.75,506.0,0.23,0.97,-0.02,-0.34,-0.48,0.03
2024-12-06 12:24:07.403,86.4,529.0,0.23,0.97,-0.03,-0.4,-0.35,0.09
2024-12-06 12:24:07.523,87.52,523.0,0.24,0.96,-0.02,0.03,0.62,0.7
2024-12-06 12:24:07.525,86.85,498.0,0.24,0.96,-0.03,0.09,0.74,0.7
2024-12-06 12:24:07.529,85.28,511.0,0.24,0.96,-0.03,0.09,0.62,0.64
2024-12-06 12:24:07.540,83.03,508.0,0.24,0.96,-0.03,0.09,0.62,0.58
2024-12-06 12:24:07.546,85.5,513.0,0.24,0.96,-0.03,0.09,0.38,0.58
2024-12-06 12:24:07.558,87.52,511.0,0.24,0.96,-0.03,0.03,0.19,0.51
2024-12-06 12:24:07.564,88.42,502.0,0.24,0.96,-0.02,0.03,0.01,0.45
2024-12-06 12:24:07.571,88.42,517.0,0.24,0.96,-0.02,0.03,-0.11,0.33
2024-12-06 12:24:07.627,86.4,514.0,0.24,0.96,-0.02,0.03,-0.17,0.33
2024-12-06 12:24:07.635,85.5,511.0,0.24,0.96,-0.02,-0.34,0.26,0.45
2024-12-06 12:24:07.639,85.72,509.0,0.24,0.96,-0.03,-0.4,0.26,0.51
2024-12-06 12:24:07.648,87.07,519.0,0.24,0.96,-0.03,-0.46,0.19,0.58
2024-12-06 12:24:07.655,83.47,517.0,0.24,0.96,-0.03,-0.52,0.13,0.58
2024-12-06 12:24:07.659,81.22,528.0,0.24,0.96,-0.03,-0.52,0.13,0.58
2024-12-06 12:24:07.667,86.4,519.0,0.24,0.96,-0.03,-0.52,0.07,0.58
2024-12-06 12:24:07.676,82.12,506.0,0.24,0.96,-0.03,-0.52,-0.11,0.64
2024-12-06 12:24:07.684,88.2,513.0,0.24,0.96,-0.03,-0.4,-0.23,0.58
2024-12-06 12:24:07.691,86.17,501.0,0.24,0.96,-0.02,-0.28,-0.23,0.58
2024-12-06 12:24:07.701,86.62,518.0,0.24,0.96,-0.02,-0.22,-0.11,0.51
2024-12-06 12:24:07.713,85.95,511.0,0.24,0.96,-0.02,-0.22,-0.11,0.51
2024-12-06 12:24:07.716,85.95,523.0,0.24,0.96,-0.02,-0.16,0.01,0.51
2024-12-06 12:24:07.722,86.4,512.0,0.24,0.96,-0.02,-0.16,0.01,0.51
2024-12-06 12:24:07.731,85.5,515.0,0.24,0.96,-0.03,-0.03,0.01,0.45
2024-12-06 12:24:07.738,85.5,510.0,0.24,0.96,-0.03,-0.03,-0.05,0.39
2024-12-06 12:24:07.795,86.17,522.0,0.24,0.96,-0.03,-0.03,0.01,0.27
2024-12-06 12:24:07.805,86.62,526.0,0.24,0.96,-0.03,0.09,-0.05,0.03
2024-12-06 12:24:07.831,84.38,508.0,0.24,0.96,-0.03,0.15,0.13,0.21
2024-12-06 12:24:07.836,81.67,509.0,0.24,0.96,-0.02,0.21,0.07,0.27
2024-12-06 12:24:07.849,84.38,505.0,0.24,0.96,-0.02,0.27,0.19,0.39
2024-12-06 12:24:07.852,86.85,517.0,0.24,0.96,-0.02,0.27,0.38,0.39
2024-12-06 12:24:07.859,85.5,513.0,0.24,0.96,-0.02,0.33,0.44,0.45
2024-12-06 12:24:07.870,83.7,521.0,0.24,0.96,-0.02,0.33,0.44,0.45
2024-12-06 12:24:07.877,83.03,516.0,0.24,0.96,-0.03,0.33,0.5,0.45
2024-12-06 12:24:07.883,85.95,524.0,0.24,0.96,-0.03,0.39,0.38,0.51
2024-12-06 12:24:07.893,85.5,508.0,0.24,0.96,-0.03,0.39,0.38,0.45
2024-12-06 12:24:07.903,86.85,514.0,0.24,0.96,-0.03,0.33,0.13,0.39
2024-12-06 12:24:07.906,84.38,522.0,0.24,0.96,-0.03,0.33,-0.23,0.33
2024-12-06 12:24:07.923,85.5,518.0,0.24,0.96,-0.03,0.33,-0.23,0.33
2024-12-06 12:24:07.926,82.8,517.0,0.24,0.96,-0.03,0.27,-0.6,0.33
2024-12-06 12:24:07.932,81.67,514.0,0.24,0.96,-0.02,0.21,-0.78,0.27
2024-12-06 12:24:07.938,88.65,507.0,0.24,0.96,-0.02,0.09,-0.78,0.15
2024-12-06 12:24:07.946,85.95,514.0,0.24,0.96,-0.02,0.09,-0.84,0.15
2024-12-06 12:24:07.956,85.72,530.0,0.24,0.96,-0.02,0.09,-0.84,0.21
2024-12-06 12:24:07.967,87.52,514.0,0.24,0.96,-0.02,0.09,-0.84,0.27
2024-12-06 12:24:07.971,85.28,511.0,0.24,0.96,-0.02,0.03,-0.72,0.27
2024-12-06 12:24:07.978,80.55,512.0,0.24,0.96,-0.02,0.03,-0.6,0.33
2024-12-06 12:24:07.994,84.15,510.0,0.24,0.96,-0.02,0.03,-0.48,0.39
2024-12-06 12:24:07.998,85.95,526.0,0.24,0.96,-0.03,-0.03,-0.35,0.39
2024-12-06 12:24:08.2,85.5,513.0,0.24,0.96,-0.03,-0.1,-0.42,0.39
2024-12-06 12:24:08.16,85.95,502.0,0.24,0.95,-0.03,-0.1,-0.42,0.39
2024-12-06 12:24:08.21,81.9,517.0,0.24,0.96,-0.03,-0.03,-0.48,0.39
2024-12-06 12:24:08.56,81.0,518.0,0.24,0.96,-0.02,0.09,-0.72,0.15
2024-12-06 12:24:08.64,87.07,510.0,0.24,0.96,-0.02,0.27,-0.54,-0.1
2024-12-06 12:24:08.74,84.38,519.0,0.24,0.96,-0.02,0.27,-0.42,-0.16
2024-12-06 12:24:08.81,84.6,508.0,0.24,0.96,-0.02,0.27,-0.29,-0.16
2024-12-06 12:24:08.87,88.88,512.0,0.24,0.96,-0.03,0.27,-0.17,-0.16
2024-12-06 12:24:08.93,86.85,506.0,0.24,0.96,-0.03,0.27,-0.17,-0.16
2024-12-06 12:24:08.103,82.35,525.0,0.23,0.96,-0.03,0.21,-0.11,-0.16
2024-12-06 12:24:08.109,83.47,509.0,0.24,0.96,-0.03,0.15,-0.05,-0.1
2024-12-06 12:24:08.116,75.38,510.0,0.23,0.96,-0.03,0.15,0.01,-0.04
2024-12-06 12:24:08.127,87.52,499.0,0.23,0.96,-0.03,0.09,0.07,0.03
2024-12-06 12:24:08.137,85.72,515.0,0.24,0.96,-0.03,0.09,-0.05,0.15
2024-12-06 12:24:08.140,86.17,501.0,0.24,0.96,-0.03,0.09,-0.05,0.15
2024-12-06 12:24:08.150,83.03,511.0,0.24,0.96,-0.03,0.09,-0.05,0.21
2024-12-06 12:24:08.155,87.07,525.0,0.24,0.96,-0.03,0.09,-0.05,0.33
2024-12-06 12:24:08.165,85.05,508.0,0.24,0.96,-0.03,0.09,-0.05,0.51
2024-12-06 12:24:08.179,86.17,505.0,0.24,0.96,-0.03,0.09,0.07,0.58
2024-12-06 12:24:08.186,85.5,512.0,0.24,0.96,-0.03,0.09,0.13,0.64
2024-12-06 12:24:08.198,85.95,508.0,0.24,0.96,-0.02,0.15,0.26,0.76
2024-12-06 12:24:08.208,87.52,534.0,0.24,0.96,-0.02,0.21,0.44,0.82
2024-12-06 12:24:08.222,85.72,540.0,0.24,0.96,-0.03,0.45,0.5,1.06
2024-12-06 12:24:08.227,85.28,504.0,0.24,0.96,-0.03,0.45,0.5,1.06
2024-12-06 12:24:08.241,87.3,498.0,0.24,0.96,-0.03,0.51,0.44,1.06
2024-12-06 12:24:08.244,85.95,507.0,0.24,0.96,-0.03,0.51,0.38,1.06
2024-12-06 12:24:08.280,85.5,507.0,0.24,0.96,-0.03,0.51,0.32,1.06
2024-12-06 12:24:08.289,83.92,500.0,0.24,0.96,-0.02,0.39,-0.05,0.7
2024-12-06 12:24:08.296,86.17,510.0,0.24,0.96,-0.02,0.39,0.13,0.58
2024-12-06 12:24:08.301,83.47,507.0,0.23,0.96,-0.02,0.39,0.13,0.58
2024-12-06 12:24:08.313,86.17,506.0,0.23,0.96,-0.02,0.39,0.26,0.51
2024-12-06 12:24:08.320,86.17,514.0,0.23,0.96,-0.02,0.39,0.44,0.45
2024-12-06 12:24:08.326,87.3,522.0,0.24,0.96,-0.02,0.39,0.62,0.39
2024-12-06 12:24:08.333,82.57,509.0,0.24,0.96,-0.02,0.39,0.68,0.39
2024-12-06 12:24:08.340,88.65,510.0,0.24,0.96,-0.03,0.39,0.62,0.45
2024-12-06 12:24:08.361,84.82,499.0,0.24,0.96,-0.03,0.33,0.5,0.45
2024-12-06 12:24:08.366,87.75,535.0,0.24,0.96,-0.03,0.33,0.44,0.45
2024-12-06 12:24:08.372,84.15,519.0,0.24,0.96,-0.03,0.27,0.26,0.39
2024-12-06 12:24:08.385,86.4,516.0,0.24,0.96,-0.03,0.27,0.01,0.39
2024-12-06 12:24:08.388,87.07,504.0,0.24,0.96,-0.03,0.27,0.01,0.39
2024-12-06 12:24:08.394,82.57,519.0,0.24,0.96,-0.03,0.33,-0.17,0.45
2024-12-06 12:24:08.412,82.8,509.0,0.24,0.96,-0.03,0.33,-0.23,0.39
2024-12-06 12:24:08.416,85.28,498.0,0.24,0.96,-0.03,0.27,-0.05,0.39
2024-12-06 12:24:08.424,86.4,509.0,0.24,0.96,-0.03,0.21,0.19,0.39
2024-12-06 12:24:08.427,86.85,500.0,0.24,0.96,-0.02,0.21,0.19,0.39
2024-12-06 12:24:08.432,81.9,514.0,0.24,0.96,-0.02,0.21,0.26,0.45
2024-12-06 12:24:08.440,85.28,506.0,0.24,0.96,-0.02,0.15,0.38,0.51
2024-12-06 12:24:08.461,86.4,500.0,0.24,0.96,-0.03,0.21,0.5,0.39
2024-12-06 12:24:08.554,84.15,519.0,0.24,0.96,-0.02,-0.03,0.32,0.39
2024-12-06 12:24:08.562,85.05,502.0,0.24,0.96,-0.02,-0.03,0.38,0.39
2024-12-06 12:24:08.585,85.05,505.0,0.24,0.96,-0.03,-0.03,0.5,0.51
2024-12-06 12:24:08.590,86.17,524.0,0.24,0.96,-0.03,-0.1,0.5,0.51
2024-12-06 12:24:08.602,85.5,515.0,0.24,0.96,-0.03,-0.22,0.38,0.45
2024-12-06 12:24:08.609,87.07,502.0,0.24,0.96,-0.03,-0.22,0.26,0.33
2024-12-06 12:24:08.617,84.6,519.0,0.24,0.96,-0.03,-0.22,0.01,0.33
2024-12-06 12:24:08.622,87.3,495.0,0.24,0.96,-0.03,-0.22,0.01,0.33
2024-12-06 12:24:08.629,86.17,517.0,0.25,0.96,-0.03,-0.22,-0.23,0.27
2024-12-06 12:24:08.636,88.88,496.0,0.24,0.96,-0.03,-0.22,-0.35,0.09
2024-12-06 12:24:08.644,83.03,507.0,0.24,0.96,-0.03,-0.22,-0.42,0.03
2024-12-06 12:24:08.657,88.42,501.0,0.24,0.96,-0.03,-0.16,-0.29,-0.04
2024-12-06 12:24:08.669,85.95,539.0,0.24,0.96,-0.03,-0.16,-0.29,-0.04
2024-12-06 12:24:08.673,86.4,510.0,0.24,0.96,-0.03,-0.1,-0.17,-0.16
2024-12-06 12:24:08.682,85.72,511.0,0.24,0.96,-0.03,-0.1,-0.05,-0.16
2024-12-06 12:24:08.687,87.97,498.0,0.24,0.96,-0.03,-0.1,0.13,-0.16
2024-12-06 12:24:08.693,85.5,494.0,0.24,0.96,-0.03,-0.1,0.26,-0.1
2024-12-06 12:24:08.730,84.38,499.0,0.24,0.96,-0.03,-0.1,0.32,-0.04
2024-12-06 12:24:08.734,87.97,515.0,0.25,0.96,-0.03,-0.1,0.01,0.03
2024-12-06 12:24:08.737,85.95,495.0,0.25,0.96,-0.03,-0.1,-0.23,0.03
2024-12-06 12:24:08.744,88.2,514.0,0.25,0.96,-0.03,-0.03,-0.23,0.03
2024-12-06 12:24:08.752,88.42,516.0,0.25,0.96,-0.03,0.03,-0.42,0.09
2024-12-06 12:24:08.761,82.57,501.0,0.24,0.96,-0.03,0.03,-0.48,0.03
2024-12-06 12:24:08.767,84.38,511.0,0.24,0.96,-0.03,-0.03,-0.35,-0.04
2024-12-06 12:24:08.776,83.7,500.0,0.24,0.96,-0.03,-0.03,-0.17,0.03
2024-12-06 12:24:08.783,87.75,510.0,0.24,0.96,-0.02,-0.16,-0.11,0.09
2024-12-06 12:24:08.793,89.1,507.0,0.24,0.96,-0.02,-0.16,-0.11,0.09
2024-12-06 12:24:08.801,86.62,512.0,0.24,0.96,-0.03,-0.22,-0.05,0.15
2024-12-06 12:24:08.808,88.2,515.0,0.24,0.96,-0.03,-0.34,0.01,0.21
2024-12-06 12:24:08.814,87.07,504.0,0.24,0.96,-0.03,-0.34,0.01,0.21
2024-12-06 12:24:08.823,86.4,496.0,0.24,0.96,-0.03,-0.4,-0.05,0.21
2024-12-06 12:24:08.832,79.42,505.0,0.24,0.96,-0.03,-0.4,-0.05,0.21
2024-12-06 12:24:08.839,85.72,502.0,0.24,0.96,-0.03,-0.46,-0.17,0.21
2024-12-06 12:24:08.852,86.62,503.0,0.24,0.96,-0.03,-0.52,-0.23,0.21
2024-12-06 12:24:08.856,86.17,497.0,0.24,0.96,-0.03,-0.52,-0.48,0.21
2024-12-06 12:24:08.874,83.7,518.0,0.24,0.96,-0.03,-0.52,-0.66,0.15
2024-12-06 12:24:08.877,85.72,524.0,0.24,0.96,-0.03,-0.52,-0.78,0.15
2024-12-06 12:24:08.883,86.4,491.0,0.24,0.96,-0.03,-0.52,-0.78,0.15
2024-12-06 12:24:08.893,86.85,491.0,0.24,0.96,-0.03,-0.52,-0.78,0.15
2024-12-06 12:24:08.896,82.35,509.0,0.24,0.96,-0.03,-0.58,-0.72,0.15
2024-12-06 12:24:08.901,86.4,502.0,0.24,0.96,-0.02,-0.58,-0.6,0.21
2024-12-06 12:24:08.910,82.8,511.0,0.24,0.96,-0.02,-0.52,-0.54,0.33
2024-12-06 12:24:08.919,81.9,521.0,0.24,0.96,-0.02,-0.52,-0.42,0.39
2024-12-06 12:24:08.952,82.12,504.0,0.24,0.96,-0.03,-0.52,-0.42,0.39
2024-12-06 12:24:08.955,84.38,507.0,0.25,0.96,-0.03,-0.52,-0.72,0.51
2024-12-06 12:24:08.962,88.88,510.0,0.25,0.96,-0.03,-0.52,-0.72,0.45
2024-12-06 12:24:08.970,87.52,504.0,0.25,0.96,-0.03,-0.52,-0.84,0.45
2024-12-06 12:24:08.978,83.47,504.0,0.24,0.96,-0.03,-0.58,-1.15,0.39
2024-12-06 12:24:08.986,85.72,507.0,0.24,0.96,-0.03,-0.58,-1.27,0.33
2024-12-06 12:24:08.994,87.07,509.0,0.24,0.96,-0.02,-0.58,-1.39,0.33
2024-12-06 12:24:09.2,83.92,520.0,0.24,0.96,-0.02,-0.52,-1.33,0.27
2024-12-06 12:24:09.20,84.6,504.0,0.24,0.96,-0.02,-0.52,-1.33,0.21
2024-12-06 12:24:09.29,82.8,513.0,0.24,0.96,-0.02,-0.52,-1.15,0.21
2024-12-06 12:24:09.34,86.85,514.0,0.24,0.96,-0.02,-0.52,-0.9,0.21
2024-12-06 12:24:10.72,86.17,500.0,0.24,0.96,-0.03,0.09,-0.23,-0.04
2024-12-06 12:24:10.78,84.15,488.0,0.24,1.0,-0.01,-0.1,-1.39,0.03
2024-12-06 12:24:10.87,80.1,490.0,0.21,1.02,-0.05,-1.87,-1.64,2.65
2024-12-06 12:24:10.131,81.45,511.0,0.21,1.11,-0.04,-4.61,-5.54,11.74
2024-12-06 12:24:10.142,77.4,504.0,0.21,1.0,-0.06,-5.83,-5.36,16.87
2024-12-06 12:24:10.170,78.07,489.0,0.21,0.86,-0.06,-6.26,-4.81,18.21
2024-12-06 12:24:10.198,74.92,490.0,0.26,0.82,-0.02,-7.54,-5.73,16.08
2024-12-06 12:24:10.226,73.57,482.0,0.28,0.9,0.03,-6.69,-4.26,12.84
2024-12-06 12:24:10.253,69.3,480.0,0.3,0.95,0.05,-2.96,2.64,5.46
2024-12-06 12:24:10.285,71.1,481.0,0.31,0.96,0.03,1.92,8.31,-1.81
2024-12-06 12:24:10.320,69.75,535.0,0.29,0.94,-0.01,5.09,7.09,-7.97
2024-12-06 12:24:10.336,67.28,496.0,0.27,0.93,-0.02,6.37,3.43,-11.69
2024-12-06 12:24:10.364,65.7,479.0,0.23,0.94,-0.01,6.62,3.37,-12.67
2024-12-06 12:24:10.392,66.82,472.0,0.21,0.94,-0.0,5.76,5.63,-13.46
2024-12-06 12:24:10.424,64.8,472.0,0.22,0.94,-0.01,4.42,6.91,-14.38
2024-12-06 12:24:10.452,61.42,470.0,0.23,0.96,-0.01,2.9,5.38,-14.32
2024-12-06 12:24:10.475,62.1,493.0,0.22,0.96,-0.04,2.47,6.18,-15.17
2024-12-06 12:24:10.509,63.9,478.0,0.22,0.97,-0.04,2.53,6.3,-14.32
2024-12-06 12:24:10.676,57.38,468.0,0.2,0.97,-0.04,2.59,4.59,-14.07
2024-12-06 12:24:10.680,59.62,496.0,0.18,0.99,-0.03,0.33,1.54,-7.48
2024-12-06 12:24:10.695,53.1,462.0,0.18,0.98,-0.03,-0.28,2.64,-5.83
2024-12-06 12:24:10.731,52.42,463.0,0.2,0.98,-0.03,-0.1,3.25,-4.0
2024-12-06 12:24:10.766,48.6,495.0,0.2,0.98,-0.03,0.15,3.12,-2.29
2024-12-06 12:24:10.778,46.8,468.0,0.19,0.97,-0.03,0.7,1.9,-1.99
2024-12-06 12:24:10.805,45.9,450.0,0.19,0.97,-0.02,1.13,1.78,-2.05
2024-12-06 12:24:10.833,47.02,459.0,0.18,0.97,-0.03,1.37,2.27,-2.35
2024-12-06 12:24:10.863,49.05,449.0,0.18,0.98,-0.03,1.19,1.29,-1.93
2024-12-06 12:24:10.888,44.77,461.0,0.17,0.98,-0.03,1.06,-0.72,-2.11
2024-12-06 12:24:10.915,45.45,461.0,0.17,0.98,-0.03,0.76,-1.45,-1.93
2024-12-06 12:24:10.943,41.17,456.0,0.17,0.98,-0.03,0.76,-2.49,-1.74
2024-12-06 12:24:10.990,42.08,458.0,0.17,0.98,-0.02,0.03,-1.94,-1.07
2024-12-06 12:24:10.999,42.3,460.0,0.16,0.97,-0.03,0.15,-1.51,-0.83
2024-12-06 12:24:11.27,40.95,459.0,0.17,0.97,-0.02,-0.16,-0.84,-0.58
2024-12-06 12:24:11.54,39.6,457.0,0.16,0.97,-0.04,0.27,-0.48,-0.83
2024-12-06 12:24:11.84,35.55,467.0,0.17,0.98,-0.03,0.27,-0.54,-0.71
2024-12-06 12:24:11.110,36.9,458.0,0.16,0.97,-0.04,-0.16,-0.84,-0.65
2024-12-06 12:24:11.138,38.47,455.0,0.17,0.98,-0.03,0.27,-1.94,-1.44
2024-12-06 12:24:11.168,35.55,463.0,0.18,0.98,-0.03,0.09,-2.92,-0.58
2024-12-06 12:24:11.216,34.88,461.0,0.15,0.97,-0.01,-1.01,-3.83,-1.68
2024-12-06 12:24:11.231,22.72,477.0,0.16,0.97,-0.03,-1.62,-4.87,-2.78
2024-12-06 12:24:11.246,31.95,458.0,0.15,0.97,-0.02,-1.62,-5.54,-3.33
2024-12-06 12:24:11.277,31.95,458.0,0.15,0.97,-0.02,-2.17,-4.69,-4.06
2024-12-06 12:24:11.302,27.22,475.0,0.16,0.98,-0.02,-2.17,-2.8,-3.27
2024-12-06 12:24:11.330,31.05,453.0,0.16,1.0,-0.04,-1.5,-1.64,-1.74
2024-12-06 12:24:11.358,28.35,478.0,0.16,0.99,-0.04,-1.56,-1.88,-0.77
2024-12-06 12:24:11.385,29.7,461.0,0.15,0.98,-0.04,-1.26,-1.7,-0.1
2024-12-06 12:24:11.438,25.42,456.0,0.16,0.99,-0.04,-0.58,-1.45,0.45
2024-12-06 12:24:11.449,23.62,470.0,0.15,0.98,-0.03,-0.52,-1.27,1.19
2024-12-06 12:24:11.468,22.27,468.0,0.16,0.98,-0.03,-0.46,-0.78,0.88
2024-12-06 12:24:11.495,21.6,464.0,0.16,0.98,-0.04,0.45,-1.76,1.43
2024-12-06 12:24:11.524,19.57,452.0,0.16,0.98,-0.01,-0.64,-2.12,0.94
2024-12-06 12:24:11.552,18.45,469.0,0.14,0.98,-0.06,-0.89,-0.9,0.33
2024-12-06 12:24:11.578,16.42,454.0,0.15,0.98,-0.03,-0.28,0.62,0.21
2024-12-06 12:24:11.693,16.42,464.0,0.15,0.98,-0.02,-0.16,1.96,0.7
2024-12-06 12:24:11.701,18.45,455.0,0.16,0.99,-0.03,0.33,1.72,1.49
2024-12-06 12:24:11.715,16.2,458.0,0.15,0.98,-0.03,0.21,1.72,0.64
2024-12-06 12:24:11.746,13.95,462.0,0.16,0.98,-0.03,0.58,1.72,0.88
2024-12-06 12:24:11.770,9.22,458.0,0.15,0.98,-0.03,0.33,2.33,1.67
2024-12-06 12:24:11.798,9.0,460.0,0.15,0.97,-0.03,0.15,0.8,0.33
2024-12-06 12:24:11.827,9.9,455.0,0.16,0.97,-0.03,-0.16,0.07,-0.28
2024-12-06 12:24:11.859,10.57,459.0,0.16,0.98,-0.03,-0.22,-0.35,-0.28
2024-12-06 12:24:11.901,9.45,472.0,0.14,0.98,-0.03,-0.52,-0.72,-0.95
2024-12-06 12:24:11.908,6.75,468.0,0.15,0.97,-0.03,-0.28,-0.66,-1.07
2024-12-06 12:24:11.936,2.25,454.0,0.17,0.97,-0.04,0.33,-0.11,0.15
2024-12-06 12:24:11.964,7.2,465.0,0.17,0.97,-0.03,0.39,-0.23,1.43
2024-12-06 12:24:11.991,3.82,461.0,0.17,0.99,-0.02,-1.56,-1.82,2.71
2024-12-06 12:24:12.19,6.75,458.0,0.16,0.98,-0.03,-1.87,-3.77,3.69
2024-12-06 12:24:12.47,4.5,473.0,0.15,0.97,-0.06,-0.34,-2.49,2.89
2024-12-06 12:24:12.74,3.6,477.0,0.15,0.97,-0.03,0.51,-1.27,2.53
2024-12-06 12:24:12.102,-0.22,468.0,0.15,0.99,-0.04,0.94,0.32,2.71
2024-12-06 12:24:12.149,1.8,462.0,0.16,0.97,-0.04,-0.16,2.33,5.95
2024-12-06 12:24:12.155,-1.35,463.0,0.16,0.97,-0.04,-0.34,3.43,6.07
2024-12-06 12:24:12.163,-0.45,463.0,0.15,0.97,-0.04,-0.52,2.88,5.7
2024-12-06 12:24:12.174,0.67,466.0,0.15,0.97,-0.03,-0.52,2.88,5.7
2024-12-06 12:24:12.179,-2.92,467.0,0.14,0.96,-0.02,-0.64,2.03,5.21
2024-12-06 12:24:12.190,-4.95,463.0,0.15,0.96,-0.01,-0.71,2.15,4.42
2024-12-06 12:24:12.196,-2.02,464.0,0.16,0.96,-0.01,-0.58,1.6,3.75
2024-12-06 12:24:12.201,-0.45,465.0,0.16,0.96,-0.01,-0.34,0.68,2.96
2024-12-06 12:24:12.211,-0.45,466.0,0.14,0.96,-0.02,-0.34,0.68,2.96
2024-12-06 12:24:12.218,0.0,473.0,0.13,0.96,-0.03,-0.03,0.74,1.37
2024-12-06 12:24:12.224,2.02,470.0,0.14,0.96,-0.02,-0.1,0.8,-0.1
2024-12-06 12:24:12.234,-2.47,457.0,0.16,0.96,-0.02,0.15,0.26,-1.13
2024-12-06 12:24:12.244,0.45,474.0,0.18,0.97,-0.02,0.09,1.05,-1.38
2024-12-06 12:24:12.248,-2.92,469.0,0.18,0.97,-0.02,0.27,1.05,-0.95
2024-12-06 12:24:12.255,2.47,463.0,0.19,0.98,-0.02,0.27,1.05,-0.95
2024-12-06 12:24:12.270,0.0,495.0,0.18,0.98,-0.03,0.39,0.5,-0.4
2024-12-06 12:24:12.273,0.22,469.0,0.17,0.98,-0.03,0.39,0.38,-0.16
2024-12-06 12:24:12.281,-0.67,475.0,0.17,0.98,-0.03,0.21,-0.17,-0.28
2024-12-06 12:24:12.287,-0.22,460.0,0.17,0.98,-0.03,0.09,-1.03,-0.34
2024-12-06 12:24:12.294,-0.9,470.0,0.17,0.98,-0.03,-0.1,-1.58,-0.28
2024-12-06 12:24:12.307,1.35,461.0,0.17,0.97,-0.03,-0.1,-1.58,-0.28
2024-12-06 12:24:12.422,0.45,459.0,0.16,0.98,-0.03,0.03,0.5,0.27
2024-12-06 12:24:12.459,-2.47,477.0,0.16,0.98,-0.03,-0.1,0.38,0.45
2024-12-06 12:24:12.466,0.22,475.0,0.17,0.98,-0.03,-0.16,0.32,0.94
2024-12-06 12:24:12.469,-0.45,465.0,0.17,0.98,-0.03,-0.1,0.5,0.94
2024-12-06 12:24:12.472,0.0,464.0,0.17,0.98,-0.03,-0.1,0.5,0.94
2024-12-06 12:24:12.483,0.45,467.0,0.17,0.98,-0.03,0.03,0.74,1.0
2024-12-06 12:24:12.489,-1.12,462.0,0.17,0.97,-0.03,0.15,0.87,1.0
2024-12-06 12:24:12.496,-1.35,469.0,0.17,0.97,-0.03,0.09,0.99,0.94
2024-12-06 12:24:12.581,-2.92,458.0,0.17,0.98,-0.03,0.15,-0.66,0.51
2024-12-06 12:24:12.591,1.57,482.0,0.17,0.98,-0.03,0.15,-0.66,0.51
2024-12-06 12:24:12.596,0.9,485.0,0.16,0.97,-0.03,0.21,-0.48,0.39
2024-12-06 12:24:12.606,-5.4,469.0,0.16,0.97,-0.03,0.27,-0.17,0.45
2024-12-06 12:24:12.609,-3.6,461.0,0.16,0.97,-0.03,0.21,0.13,0.39
2024-12-06 12:24:12.624,-3.15,468.0,0.16,0.97,-0.03,0.15,0.44,0.39
2024-12-06 12:24:12.627,-9.22,500.0,0.16,0.97,-0.03,0.15,0.44,0.27
2024-12-06 12:24:12.631,0.0,466.0,0.16,0.97,-0.03,0.09,0.5,0.27
2024-12-06 12:24:12.640,0.0,487.0,0.16,0.97,-0.03,0.09,0.5,0.27
2024-12-06 12:24:12.747,-1.8,474.0,0.17,0.97,-0.03,0.03,0.38,0.27
2024-12-06 12:24:12.758,0.22,464.0,0.17,0.97,-0.03,-0.1,-0.35,0.51
2024-12-06 12:24:12.794,-2.47,470.0,0.17,0.98,-0.03,-0.1,-0.35,0.51
2024-12-06 12:24:12.797,-2.7,460.0,0.17,0.98,-0.02,-0.22,-0.48,0.58
2024-12-06 12:24:12.802,0.67,480.0,0.17,0.97,-0.02,-0.22,-0.48,0.58
2024-12-06 12:24:12.810,1.35,465.0,0.17,0.97,-0.03,-0.16,-0.42,0.58
2024-12-06 12:24:12.820,-2.7,458.0,0.17,0.97,-0.03,-0.1,-0.29,0.51
2024-12-06 12:24:12.827,-2.92,474.0,0.17,0.97,-0.03,-0.03,-0.11,0.45
2024-12-06 12:24:12.833,0.9,466.0,0.17,0.97,-0.03,0.09,-0.05,0.45
2024-12-06 12:24:12.843,-1.57,479.0,0.17,0.97,-0.03,0.09,-0.05,0.45
2024-12-06 12:24:12.848,-3.38,464.0,0.17,0.97,-0.03,0.15,0.01,0.45
2024-12-06 12:24:12.856,-1.12,497.0,0.17,0.97,-0.03,0.15,0.01,0.51
2024-12-06 12:24:12.864,0.9,480.0,0.17,0.97,-0.03,0.09,-0.05,0.51
2024-12-06 12:24:12.879,2.47,466.0,0.17,0.97,-0.03,0.03,-0.29,0.45
2024-12-06 12:24:12.887,-0.67,483.0,0.17,0.98,-0.03,-0.03,-0.6,0.45
2024-12-06 12:24:12.893,-0.45,468.0,0.17,0.98,-0.03,-0.03,-0.6,0.45
2024-12-06 12:24:12.896,-1.57,480.0,0.17,0.98,-0.03,-0.1,-0.9,0.39
2024-12-06 12:24:12.903,0.9,464.0,0.17,0.98,-0.03,-0.1,-1.15,0.27
2024-12-06 12:24:12.911,-1.35,479.0,0.16,0.98,-0.03,-0.16,-1.27,0.21
2024-12-06 12:24:12.921,-3.6,481.0,0.16,0.98,-0.03,-0.22,-1.21,0.15
2024-12-06 12:24:12.957,-1.12,469.0,0.16,0.98,-0.03,-0.16,0.07,0.15
2024-12-06 12:24:12.961,-1.57,473.0,0.16,0.98,-0.03,-0.22,0.5,0.27
2024-12-06 12:24:12.966,2.7,475.0,0.16,0.98,-0.03,-0.22,0.5,0.27
2024-12-06 12:24:12.971,0.45,474.0,0.17,0.97,-0.03,-0.22,0.87,0.45
2024-12-06 12:24:12.980,2.47,488.0,0.17,0.97,-0.03,-0.22,0.99,0.58
2024-12-06 12:24:12.986,0.67,468.0,0.17,0.97,-0.03,-0.28,0.93,0.64
2024-12-06 12:24:13.27,0.67,459.0,0.17,0.97,-0.03,-0.34,-0.54,0.21
2024-12-06 12:24:13.36,0.67,493.0,0.17,0.98,-0.03,-0.34,-0.72,0.09
2024-12-06 12:24:13.41,-3.15,469.0,0.17,0.98,-0.03,-0.34,-1.03,0.15
2024-12-06 12:24:13.51,-1.12,483.0,0.17,0.98,-0.03,-0.34,-1.27,0.21
2024-12-06 12:24:13.66,2.02,476.0,0.17,0.98,-0.03,-0.28,-1.27,0.21
2024-12-06 12:24:13.70,-2.92,461.0,0.17,0.98,-0.03,-0.16,-1.21,0.21
2024-12-06 12:24:13.77,-5.4,480.0,0.17,0.98,-0.03,-0.1,-1.09,0.21
2024-12-06 12:24:13.83,2.47,462.0,0.17,0.98,-0.03,-0.16,-0.97,0.21
2024-12-06 12:24:13.89,-1.35,484.0,0.17,0.98,-0.03,-0.16,-0.9,0.27
2024-12-06 12:24:13.97,-0.45,476.0,0.17,0.98,-0.03,-0.16,-0.84,0.27
2024-12-06 12:24:13.103,-5.4,463.0,0.17,0.98,-0.03,-0.1,-0.84,0.27
2024-12-06 12:24:13.112,1.57,477.0,0.16,0.97,-0.03,-0.1,-0.72,0.27
2024-12-06 12:24:13.161,2.02,467.0,0.16,0.97,-0.03,-0.1,-0.66,0.27
2024-12-06 12:24:13.163,0.9,472.0,0.16,0.98,-0.03,-0.16,0.13,0.39
2024-12-06 12:24:13.166,2.25,474.0,0.16,0.98,-0.03,-0.1,0.26,0.58
2024-12-06 12:24:13.171,3.82,470.0,0.17,0.98,-0.03,-0.1,0.32,0.64
2024-12-06 12:24:13.179,-2.02,487.0,0.17,0.98,-0.03,-0.1,0.32,0.64
2024-12-06 12:24:13.187,0.9,476.0,0.16,0.98,-0.03,-0.03,0.44,0.7
2024-12-06 12:24:13.195,0.9,478.0,0.17,0.97,-0.03,0.03,0.56,0.76
2024-12-06 12:24:13.203,-0.45,466.0,0.17,0.97,-0.03,0.03,0.62,0.76
2024-12-06 12:24:13.216,0.22,468.0,0.17,0.97,-0.03,-0.03,0.68,0.82
2024-12-06 12:24:13.220,-1.57,478.0,0.17,0.97,-0.03,-0.03,0.68,0.88
2024-12-06 12:24:13.226,1.57,475.0,0.17,0.97,-0.03,-0.1,0.56,0.88
2024-12-06 12:24:13.237,0.22,478.0,0.17,0.98,-0.03,-0.1,0.44,0.94
2024-12-06 12:24:13.243,-0.9,473.0,0.17,0.98,-0.03,-0.03,0.19,0.88
2024-12-06 12:24:13.273,-0.67,462.0,0.17,0.98,-0.03,0.03,-0.05,0.82
2024-12-06 12:24:13.279,-2.92,465.0,0.17,0.98,-0.03,0.09,-0.35,0.51
2024-12-06 12:24:13.281,0.45,464.0,0.17,0.98,-0.03,0.09,-0.42,0.33
2024-12-06 12:24:13.287,0.0,469.0,0.17,0.98,-0.03,0.09,-0.35,0.21
2024-12-06 12:24:13.294,0.0,459.0,0.17,0.98,-0.03,0.09,15.27,0.15
2024-12-06 12:24:13.307,-3.38,480.0,0.17,0.98,-0.03,0.09,-0.11,0.15
2024-12-06 12:24:13.312,-0.9,470.0,0.17,0.98,-0.03,0.09,0.01,0.21
2024-12-06 12:24:13.318,-2.92,470.0,0.17,0.98,-0.03,0.15,0.07,0.39
2024-12-06 12:24:13.326,-3.6,468.0,0.17,0.97,-0.03,0.09,0.07,0.51
2024-12-06 12:24:13.337,0.22,473.0,0.17,0.97,-0.03,0.03,-0.05,0.7
2024-12-06 12:24:13.341,0.45,475.0,0.17,0.97,-0.03,0.03,-0.17,0.7
2024-12-06 12:24:13.349,-0.45,475.0,0.17,0.97,-0.03,-0.1,-0.17,0.7
2024-12-06 12:24:13.359,-4.28,470.0,0.17,0.97,-0.03,-0.16,-0.35,0.7
2024-12-06 12:24:13.364,-1.8,449.0,0.17,0.97,-0.02,-0.22,-0.54,0.76
2024-12-06 12:24:13.372,-1.12,529.0,0.17,0.97,-0.02,-0.22,-0.84,0.76
2024-12-06 12:24:13.381,2.02,474.0,0.17,0.97,-0.02,-0.16,-0.9,0.76
2024-12-06 12:24:13.389,-5.85,464.0,0.17,0.97,-0.02,-0.16,-0.9,0.76
2024-12-06 12:24:13.404,-0.22,466.0,0.17,0.97,-0.03,-0.22,-0.84,0.64
2024-12-06 12:24:13.407,0.45,461.0,0.17,0.97,-0.03,-0.22,-0.84,0.64
2024-12-06 12:24:13.411,0.22,473.0,0.17,0.98,-0.03,-0.16,-0.9,0.58
2024-12-06 12:24:13.419,-3.15,477.0,0.17,0.98,-0.03,-0.16,-0.84,0.58
2024-12-06 12:24:13.427,2.47,478.0,0.17,0.98,-0.03,-0.1,-0.78,0.58
2024-12-06 12:24:13.435,-0.22,471.0,0.17,0.98,-0.03,-0.1,-0.78,0.58
2024-12-06 12:24:13.473,1.12,467.0,0.17,0.98,-0.03,-0.16,-0.78,0.64
2024-12-06 12:24:13.476,-1.8,471.0,0.17,0.97,-0.03,-0.16,-0.78,0.64
2024-12-06 12:24:13.480,0.9,477.0,0.17,0.97,-0.03,-0.16,-0.84,0.82
2024-12-06 12:24:13.490,0.9,473.0,0.16,0.98,-0.03,-0.22,-0.72,0.82
2024-12-06 12:24:13.499,-6.75,475.0,0.16,0.98,-0.03,-0.22,-0.54,0.82
2024-12-06 12:24:13.504,-2.02,497.0,0.16,0.98,-0.03,-0.28,-0.29,0.82
2024-12-06 12:24:13.513,-2.47,463.0,0.17,0.98,-0.03,-0.34,-0.11,0.94
2024-12-06 12:24:13.526,0.45,466.0,0.17,0.98,-0.02,-0.34,-0.11,0.94
2024-12-06 12:24:13.535,-2.25,485.0,0.17,0.97,-0.03,-0.22,0.01,0.94
2024-12-06 12:24:13.538,0.67,474.0,0.17,0.97,-0.03,-0.16,0.19,1.0
2024-12-06 12:24:13.544,0.0,472.0,0.17,0.97,-0.03,-0.1,0.38,0.94
2024-12-06 12:24:13.554,0.45,466.0,0.17,0.97,-0.03,-0.03,0.56,0.88
2024-12-06 12:24:13.560,-2.25,473.0,0.17,0.97,-0.03,-0.03,0.56,0.88
2024-12-06 12:24:13.565,1.8,469.0,0.17,0.97,-0.03,0.03,0.62,0.76
2024-12-06 12:24:13.576,2.25,483.0,0.17,0.97,-0.03,0.03,0.56,0.7
2024-12-06 12:24:13.585,1.12,463.0,0.17,0.98,-0.03,0.03,0.38,0.7
2024-12-06 12:24:13.588,-2.02,472.0,0.17,0.98,-0.03,-0.03,0.07,0.76
2024-12-06 12:24:13.597,3.15,470.0,0.17,0.98,-0.03,-0.03,-0.23,0.7
2024-12-06 12:24:13.606,-2.7,465.0,0.17,0.98,-0.03,-0.03,-0.23,0.7
2024-12-06 12:24:13.612,2.02,496.0,0.17,0.98,-0.03,-0.03,-0.6,0.7
2024-12-06 12:24:13.620,-4.05,468.0,0.17,0.98,-0.03,-0.1,-0.72,0.64
2024-12-06 12:24:13.628,1.57,480.0,0.17,0.98,-0.03,-0.03,-0.66,0.58
2024-12-06 12:24:13.636,-5.4,464.0,0.17,0.98,-0.03,-0.03,-0.48,0.58
2024-12-06 12:24:13.644,-0.22,473.0,0.17,0.98,-0.03,-0.03,-0.23,0.51
2024-12-06 12:24:13.651,-2.47,466.0,0.17,0.98,-0.03,-0.03,-0.23,0.51
2024-12-06 12:24:13.665,-0.9,466.0,0.17,0.98,-0.03,0.03,0.26,0.58
2024-12-06 12:24:13.803,-1.35,466.0,0.17,0.98,-0.03,0.09,0.13,0.7
2024-12-06 12:24:13.809,0.45,481.0,0.17,0.98,-0.03,0.09,0.19,0.88
2024-12-06 12:24:13.815,0.22,481.0,0.17,0.98,-0.03,0.15,0.13,0.94
2024-12-06 12:24:13.825,2.47,467.0,0.17,0.98,-0.03,0.15,0.13,1.0
2024-12-06 12:24:13.830,-0.45,470.0,0.17,0.97,-0.03,0.15,0.13,1.0
2024-12-06 12:24:13.845,0.0,474.0,0.17,0.97,-0.03,0.09,0.13,0.88
2024-12-06 12:24:13.849,-5.4,476.0,0.17,0.97,-0.03,0.03,0.19,0.82
2024-12-06 12:24:13.853,2.02,477.0,0.17,0.97,-0.03,0.03,0.26,0.7
2024-12-06 12:24:13.866,0.67,472.0,0.17,0.97,-0.03,0.03,0.38,0.64
2024-12-06 12:24:13.879,0.45,460.0,0.17,0.97,-0.03,0.03,0.38,0.64
2024-12-06 12:24:13.884,1.57,482.0,0.17,0.97,-0.03,0.03,0.5,0.76
2024-12-06 12:24:13.892,1.8,466.0,0.17,0.97,-0.03,0.09,0.56,0.94
2024-12-06 12:24:13.909,0.45,495.0,0.17,0.98,-0.03,0.21,0.62,0.94
2024-12-06 12:24:13.915,0.45,457.0,0.17,0.97,-0.03,0.27,0.74,0.88
2024-12-06 12:24:13.923,-4.5,469.0,0.17,0.97,-0.03,0.21,0.87,0.76
2024-12-06 12:24:13.931,-3.38,472.0,0.17,0.97,-0.03,0.21,0.8,0.7
2024-12-06 12:24:13.943,0.9,465.0,0.17,0.97,-0.03,0.21,0.68,0.7
2024-12-06 12:24:13.977,-2.25,464.0,0.18,0.98,-0.03,0.09,-0.54,0.76
2024-12-06 12:24:13.984,1.35,463.0,0.18,0.98,-0.02,0.09,-0.66,0.82
2024-12-06 12:24:13.994,0.0,467.0,0.18,0.98,-0.02,0.03,-0.66,0.82
2024-12-06 12:24:14.3,2.7,480.0,0.18,0.98,-0.03,-0.1,-0.66,0.88
2024-12-06 12:24:14.7,-2.47,480.0,0.17,0.98,-0.03,-0.1,-0.54,1.0
2024-12-06 12:24:14.14,2.02,458.0,0.17,0.98,-0.03,-0.03,-0.23,1.06
2024-12-06 12:24:14.22,0.67,460.0,0.17,0.97,-0.03,-0.1,0.13,1.06
2024-12-06 12:24:14.32,-2.92,480.0,0.17,0.97,-0.03,-0.1,0.13,1.06
2024-12-06 12:24:14.42,-5.4,490.0,0.17,0.97,-0.03,-0.1,0.5,1.19
2024-12-06 12:24:14.47,-4.05,477.0,0.18,0.97,-0.03,-0.03,0.74,1.19
2024-12-06 12:24:14.55,-3.38,465.0,0.18,0.97,-0.03,0.03,0.93,1.19
2024-12-06 12:24:14.60,1.35,463.0,0.18,0.97,-0.03,0.03,0.93,1.19
2024-12-06 12:24:14.76,-3.82,459.0,0.18,0.97,-0.03,0.03,0.74,1.12
2024-12-06 12:24:14.92,0.22,465.0,0.18,0.97,-0.03,0.03,0.74,1.12
2024-12-06 12:24:14.95,-2.25,477.0,0.18,0.97,-0.03,0.15,0.01,0.88
2024-12-06 12:24:14.99,-2.25,460.0,0.18,0.97,-0.03,0.09,-0.35,0.82
2024-12-06 12:24:14.110,0.0,467.0,0.18,0.97,-0.03,0.09,-0.54,0.7
2024-12-06 12:24:14.117,0.22,463.0,0.18,0.98,-0.03,0.09,-0.54,0.7
2024-12-06 12:24:14.153,0.9,468.0,0.17,0.98,-0.03,0.15,-1.09,0.82
2024-12-06 12:24:14.161,-4.5,478.0,0.17,0.98,-0.03,0.15,-0.9,0.82
2024-12-06 12:24:14.168,0.22,470.0,0.17,0.97,-0.03,0.15,-0.72,0.76
2024-12-06 12:24:14.179,0.22,477.0,0.17,0.97,-0.03,0.15,-0.54,0.64
2024-12-06 12:24:14.186,-2.02,477.0,0.17,0.97,-0.03,0.15,-0.35,0.7
2024-12-06 12:24:14.299,-1.57,473.0,0.17,0.97,-0.03,0.15,-0.35,0.7
2024-12-06 12:24:14.313,2.47,462.0,0.18,0.97,-0.03,0.15,1.48,1.06
2024-12-06 12:24:14.325,-2.7,458.0,0.18,0.97,-0.03,0.21,1.23,1.0
2024-12-06 12:24:14.329,-2.47,470.0,0.18,0.97,-0.03,0.21,0.93,0.94
2024-12-06 12:24:14.334,-2.02,467.0,0.18,0.97,-0.03,0.15,0.62,0.82
2024-12-06 12:24:14.341,2.47,477.0,0.18,0.98,-0.03,0.15,0.62,0.82
2024-12-06 12:24:14.351,1.57,476.0,0.18,0.98,-0.03,0.15,0.19,0.7
2024-12-06 12:24:14.389,-0.22,465.0,0.18,0.98,-0.03,0.09,0.13,0.39
2024-12-06 12:24:14.396,0.45,473.0,0.18,0.98,-0.03,0.15,0.44,0.51
2024-12-06 12:24:14.405,2.02,465.0,0.18,0.97,-0.03,0.27,0.74,0.64
2024-12-06 12:24:14.412,-3.82,469.0,0.18,0.97,-0.03,0.27,0.99,0.76
2024-12-06 12:24:14.418,-4.05,484.0,0.18,0.97,-0.03,0.27,0.99,0.76
2024-12-06 12:24:14.425,0.67,479.0,0.18,0.97,-0.03,0.21,1.23,0.76
2024-12-06 12:24:14.432,-3.15,473.0,0.18,0.96,-0.03,0.15,1.17,0.7
2024-12-06 12:24:14.443,2.7,479.0,0.18,0.96,-0.03,0.09,0.93,0.64
2024-12-06 12:24:14.450,-0.22,481.0,0.18,0.96,-0.03,0.03,0.68,0.58
2024-12-06 12:24:14.455,0.9,485.0,0.18,0.97,-0.03,0.03,0.68,0.58
2024-12-06 12:24:14.463,0.45,471.0,0.18,0.97,-0.03,0.03,0.44,0.45
2024-12-06 12:24:14.477,-4.72,461.0,0.18,0.97,-0.03,-0.1,0.32,0.39
2024-12-06 12:24:14.480,-0.67,467.0,0.18,0.98,-0.03,-0.1,0.26,0.45
2024-12-06 12:24:14.497,-0.22,469.0,0.18,0.98,-0.03,-0.1,0.07,0.51
2024-12-06 12:24:14.501,0.0,458.0,0.18,0.98,-0.03,-0.1,-0.05,0.58
2024-12-06 12:24:14.508,-4.72,459.0,0.18,0.98,-0.03,-0.03,-0.11,0.64
2024-12-06 12:24:14.517,-1.8,477.0,0.18,0.98,-0.03,0.03,-0.05,0.51
2024-12-06 12:24:14.526,2.47,476.0,0.18,0.98,-0.03,-0.03,0.01,0.51
2024-12-06 12:24:14.531,-0.45,467.0,0.18,0.98,-0.03,-0.16,0.01,0.45
2024-12-06 12:24:14.547,2.92,473.0,0.18,0.97,-0.03,-0.16,0.01,0.45
2024-12-06 12:24:14.555,2.02,476.0,0.18,0.97,-0.03,-0.16,-0.05,0.51
2024-12-06 12:24:14.559,0.67,435.0,0.18,0.97,-0.03,-0.16,-0.17,0.58
2024-12-06 12:24:14.563,0.9,494.0,0.18,0.97,-0.03,-0.16,-0.29,0.7
2024-12-06 12:24:14.569,0.0,482.0,0.18,0.97,-0.03,-0.22,-0.35,0.76
2024-12-06 12:24:14.607,0.0,474.0,0.18,0.97,-0.03,-0.22,-0.35,0.76
2024-12-06 12:24:14.610,0.9,473.0,0.18,0.97,-0.03,-0.22,0.01,0.7
2024-12-06 12:24:14.617,1.12,485.0,0.18,0.97,-0.03,-0.22,0.01,0.7
2024-12-06 12:24:14.622,1.8,473.0,0.18,0.97,-0.03,-0.16,0.13,0.7
2024-12-06 12:24:14.633,-6.3,471.0,0.18,0.97,-0.03,-0.03,0.19,0.7
2024-12-06 12:24:14.639,-2.02,476.0,0.18,0.97,-0.03,0.03,0.13,0.64
2024-12-06 12:24:14.649,-0.22,475.0,0.18,0.97,-0.03,0.03,0.13,0.64
2024-12-06 12:24:14.654,0.45,476.0,0.18,0.97,-0.03,0.03,0.07,0.58
2024-12-06 12:24:14.662,-3.15,465.0,0.18,0.97,-0.03,0.03,0.07,0.58
2024-12-06 12:24:14.671,0.22,480.0,0.18,0.97,-0.03,-0.1,-0.05,0.51
2024-12-06 12:24:14.677,0.9,486.0,0.18,0.97,-0.03,-0.22,-0.17,0.58
2024-12-06 12:24:14.685,-0.22,488.0,0.18,0.97,-0.03,-0.22,-0.35,0.58
2024-12-06 12:24:14.697,-1.57,487.0,0.18,0.97,-0.03,-0.28,-0.48,0.58
2024-12-06 12:24:14.711,0.22,486.0,0.18,0.97,-0.03,-0.28,-0.54,0.58
2024-12-06 12:24:14.715,1.35,485.0,0.18,0.97,-0.03,-0.34,-0.6,0.58
2024-12-06 12:24:14.742,-0.45,467.0,0.18,0.98,-0.03,-0.28,-0.05,0.64
2024-12-06 12:24:14.749,1.8,489.0,0.18,0.97,-0.03,-0.28,-0.05,0.64
2024-12-06 12:24:14.846,-1.8,472.0,0.19,0.97,-0.03,-0.16,-0.05,0.7
2024-12-06 12:24:14.854,0.45,476.0,0.18,0.97,-0.03,-0.16,-0.05,0.7
2024-12-06 12:24:15.933,-5.17,467.0,0.18,0.97,-0.04,1.19,3.06,1.67
2024-12-06 12:24:15.959,0.22,461.0,0.15,0.96,-0.02,1.49,4.59,3.44
2024-12-06 12:24:15.968,1.57,462.0,0.15,0.95,-0.01,-0.4,0.38,-0.52
2024-12-06 12:24:15.995,-1.12,466.0,0.21,0.97,-0.04,0.09,0.93,0.15
2024-12-06 12:24:16.27,1.12,461.0,0.18,0.97,-0.02,-0.1,0.38,-0.34
2024-12-06 12:24:16.50,0.0,460.0,0.2,0.97,-0.04,0.09,0.13,0.27
2024-12-06 12:24:16.79,-11.25,463.0,0.19,0.97,-0.03,-0.1,0.19,0.45
2024-12-06 12:24:16.106,-2.47,465.0,0.19,0.97,-0.03,0.09,0.44,1.06
2024-12-06 12:24:16.133,-0.45,469.0,0.15,0.95,-0.03,-1.56,-7.01,-3.39
2024-12-06 12:24:16.183,-1.35,481.0,0.2,0.96,0.01,-0.22,-6.15,-6.38
2024-12-06 12:24:16.192,5.17,479.0,0.12,0.96,-0.07,2.41,-4.81,-11.33
2024-12-06 12:24:16.215,5.4,467.0,0.18,0.98,-0.04,2.1,-3.28,-11.81
2024-12-06 12:24:16.243,1.35,480.0,0.18,1.0,-0.06,1.86,3.37,-7.24
2024-12-06 12:24:16.270,8.77,462.0,0.16,0.98,-0.05,1.74,6.05,-5.16
2024-12-06 12:24:16.298,7.65,471.0,0.14,0.98,-0.05,0.09,6.73,-2.9
2024-12-06 12:24:16.326,6.97,479.0,0.14,0.99,-0.06,-0.22,6.79,-3.15
2024-12-06 12:24:16.354,11.92,474.0,0.15,0.99,-0.05,-0.46,7.09,-3.27
2024-12-06 12:24:16.381,9.45,476.0,0.16,0.99,-0.05,0.03,8.25,-1.5
2024-12-06 12:24:16.432,11.02,473.0,0.16,0.99,-0.04,0.58,10.45,0.51
2024-12-06 12:24:16.444,4.5,492.0,0.18,0.99,-0.04,0.88,12.34,2.47
2024-12-06 12:24:16.468,14.85,484.0,0.18,0.98,-0.04,1.86,14.54,5.7
2024-12-06 12:24:16.492,13.95,486.0,0.2,0.98,-0.04,2.59,15.03,7.41
2024-12-06 12:24:16.519,18.67,481.0,0.2,0.98,-0.04,3.38,13.81,9.43
2024-12-06 12:24:16.549,17.55,472.0,0.2,0.97,-0.03,3.57,10.75,9.0
2024-12-06 12:24:16.576,17.1,483.0,0.2,0.97,-0.03,3.08,7.7,7.78
2024-12-06 12:24:16.603,18.45,474.0,0.19,0.97,-0.04,3.32,6.18,7.17
2024-12-06 12:24:16.639,20.25,475.0,0.2,0.97,-0.04,3.63,6.11,6.8
2024-12-06 12:24:16.657,23.85,473.0,0.18,0.96,-0.03,3.14,5.87,5.52
2024-12-06 12:24:16.684,26.32,478.0,0.18,0.96,-0.03,2.22,5.5,4.42
2024-12-06 12:24:16.717,22.72,497.0,0.18,0.96,-0.03,1.67,5.2,3.26
2024-12-06 12:24:16.740,24.97,476.0,0.19,0.97,-0.03,1.13,4.89,2.53
2024-12-06 12:24:16.767,27.9,505.0,0.2,0.97,-0.04,1.0,4.04,2.41
2024-12-06 12:24:16.797,30.38,486.0,0.2,0.96,-0.04,0.58,3.0,2.04
2024-12-06 12:24:16.824,29.7,487.0,0.2,0.96,-0.04,0.39,2.33,2.04
2024-12-06 12:24:16.963,29.92,493.0,0.2,0.97,-0.04,0.27,1.96,-0.16
2024-12-06 12:24:16.968,34.42,482.0,0.2,0.97,-0.04,0.21,2.76,-0.1
2024-12-06 12:24:16.987,34.88,493.0,0.21,0.97,-0.05,-0.03,3.31,0.58
2024-12-06 12:24:17.15,38.92,484.0,0.21,0.98,-0.05,0.21,2.88,1.8
2024-12-06 12:24:17.44,30.82,482.0,0.2,0.97,-0.05,0.21,2.76,1.73
2024-12-06 12:24:17.94,36.67,502.0,0.21,0.97,-0.04,0.39,2.09,2.1
2024-12-06 12:24:17.102,34.88,489.0,0.19,0.96,-0.04,0.33,2.57,1.31
2024-12-06 12:24:17.126,39.6,484.0,0.2,0.96,-0.03,0.33,2.88,16.51
2024-12-06 12:24:17.155,39.38,484.0,0.2,0.96,-0.03,0.15,3.61,0.88
2024-12-06 12:24:17.185,41.62,488.0,0.21,0.97,-0.03,-0.4,3.86,0.76
2024-12-06 12:24:17.209,44.77,496.0,0.21,0.97,-0.05,-0.52,3.73,1.73
2024-12-06 12:24:17.238,43.88,486.0,0.22,0.97,-0.04,-0.64,2.7,1.8
2024-12-06 12:24:17.266,40.05,485.0,0.22,0.97,-0.05,-0.52,0.99,2.28
2024-12-06 12:24:17.307,48.15,491.0,0.21,0.96,-0.04,-0.22,-0.35,1.37
2024-12-06 12:24:17.321,45.9,498.0,0.22,0.97,-0.03,-0.52,-0.42,1.12
2024-12-06 12:24:17.347,48.15,505.0,0.21,0.97,-0.04,-0.58,0.32,1.31
2024-12-06 12:24:17.375,51.07,479.0,0.23,0.97,-0.04,-0.77,0.32,1.73
2024-12-06 12:24:17.402,50.17,524.0,0.22,0.96,-0.05,-0.71,0.01,2.35
2024-12-06 12:24:17.430,53.32,480.0,0.21,0.96,-0.05,-0.64,-0.48,1.61
2024-12-06 12:24:17.457,49.05,499.0,0.22,0.97,-0.04,-0.77,-1.03,2.59
2024-12-06 12:24:17.485,50.85,490.0,0.21,0.97,-0.05,-0.64,-0.97,2.22
2024-12-06 12:24:17.547,52.2,493.0,0.22,0.97,-0.04,-0.64,-0.97,2.77
2024-12-06 12:24:17.550,55.8,483.0,0.22,0.97,-0.04,-0.58,-0.78,3.02
2024-12-06 12:24:17.569,58.27,483.0,0.23,0.97,-0.04,-0.58,-0.72,3.02
2024-12-06 12:24:17.596,54.0,492.0,0.23,0.98,-0.04,-0.58,-1.27,4.66
2024-12-06 12:24:17.623,60.3,497.0,0.23,0.97,-0.04,-0.71,-1.94,4.97
2024-12-06 12:24:17.656,58.5,482.0,0.23,0.96,-0.04,-0.58,-2.49,5.46
2024-12-06 12:24:17.679,57.82,480.0,0.22,0.96,-0.04,-0.52,-2.49,5.46
2024-12-06 12:24:17.708,59.85,482.0,0.23,0.95,-0.03,-0.89,-2.67,4.48
2024-12-06 12:24:17.734,62.32,505.0,0.23,0.95,-0.03,-0.89,-3.41,3.93
2024-12-06 12:24:17.768,61.65,510.0,0.24,0.96,-0.03,-0.77,-4.26,3.44
2024-12-06 12:24:17.800,59.4,493.0,0.24,0.97,-0.03,-0.95,-4.51,3.93
2024-12-06 12:24:17.817,61.42,491.0,0.23,0.97,-0.04,-1.44,-4.87,4.12
2024-12-06 12:24:17.844,66.15,486.0,0.24,0.96,-0.04,-1.93,-5.42,4.66
2024-12-06 12:24:17.871,66.15,483.0,0.24,0.95,-0.04,-2.11,-5.54,4.36
2024-12-06 12:24:17.996,65.7,493.0,0.25,0.95,-0.03,-2.29,-6.15,4.05
2024-12-06 12:24:17.999,69.53,503.0,0.24,0.96,-0.03,-1.99,-6.34,2.65
2024-12-06 12:24:18.16,72.45,497.0,0.23,0.96,-0.04,-1.68,-5.6,1.12
2024-12-06 12:24:18.36,69.97,498.0,0.23,0.97,-0.04,-1.38,-5.6,0.21
2024-12-06 12:24:18.63,74.25,497.0,0.23,0.95,-0.05,-1.26,-4.81,-0.83
2024-12-06 12:24:18.91,73.35,498.0,0.24,0.94,-0.03,-1.26,-4.26,-1.44
2024-12-06 12:24:18.118,76.5,505.0,0.24,0.95,-0.03,-1.32,-3.59,-1.56
2024-12-06 12:24:18.150,76.95,483.0,0.25,0.96,-0.03,-1.32,-2.8,-1.07
2024-12-06 12:24:18.175,76.28,505.0,0.26,0.97,-0.03,-1.38,-3.1,0.33
2024-12-06 12:24:18.218,75.6,518.0,0.26,0.97,-0.04,-1.5,-2.67,1.8
2024-12-06 12:24:18.229,78.07,515.0,0.26,0.96,-0.04,-1.56,-2.8,2.96
2024-12-06 12:24:18.257,77.62,541.0,0.26,0.96,-0.05,-1.38,-2.86,4.42
2024-12-06 12:24:18.287,81.9,511.0,0.26,0.95,-0.04,-1.32,-2.92,5.09
2024-12-06 12:24:18.313,84.38,511.0,0.27,0.95,-0.03,-1.01,-2.8,5.46
2024-12-06 12:24:18.341,83.03,515.0,0.26,0.95,-0.03,-0.89,-2.86,5.34
2024-12-06 12:24:18.367,85.95,519.0,0.27,0.96,-0.02,-0.46,-2.92,4.36
2024-12-06 12:24:18.396,84.82,545.0,0.26,0.96,-0.02,-0.22,-2.67,3.81
2024-12-06 12:24:18.429,81.45,536.0,0.26,0.95,-0.03,-0.1,-2.74,3.5
2024-12-06 12:24:18.434,87.07,524.0,0.26,0.93,-0.03,0.03,-1.45,2.35
2024-12-06 12:24:18.437,87.52,531.0,0.26,0.93,-0.03,0.03,-1.45,2.1
2024-12-06 12:24:18.441,85.95,534.0,0.27,0.95,-0.03,-0.03,-1.94,2.16
2024-12-06 12:24:18.457,83.25,542.0,0.27,0.95,-0.03,-0.28,-3.04,2.47
2024-12-06 12:24:18.464,86.4,557.0,0.27,0.97,-0.03,-0.28,-4.44,2.83
2024-12-06 12:24:18.467,87.52,532.0,0.26,0.99,-0.03,-0.77,-4.44,2.83
2024-12-06 12:24:18.472,85.5,532.0,0.25,0.98,-0.05,-1.19,-5.05,2.89
2024-12-06 12:24:18.479,85.05,548.0,0.25,0.97,-0.05,-1.13,-4.38,2.28
2024-12-06 12:24:18.488,83.25,534.0,0.26,0.98,-0.04,-1.8,-5.79,2.59
2024-12-06 12:24:18.528,87.3,558.0,0.27,0.93,-0.05,-2.9,-5.18,4.24
2024-12-06 12:24:18.533,87.3,533.0,0.25,0.93,-0.05,-3.15,-4.93,4.54
2024-12-06 12:24:18.551,86.85,532.0,0.26,0.93,-0.04,-3.27,-4.99,4.73
2024-12-06 12:24:18.567,87.3,536.0,0.26,0.93,-0.04,-3.45,-4.93,4.73
2024-12-06 12:24:18.574,88.65,551.0,0.27,0.93,-0.04,-3.7,-4.93,4.6
2024-12-06 12:24:18.576,86.17,563.0,0.27,0.93,-0.04,-3.82,-4.93,4.42
2024-12-06 12:24:18.583,89.32,531.0,0.27,0.94,-0.04,-3.82,-4.93,4.42
2024-12-06 12:24:18.600,87.07,547.0,0.28,0.94,-0.03,-3.82,-4.75,4.24
2024-12-06 12:24:18.603,83.47,527.0,0.28,0.95,-0.03,-3.45,-4.02,3.69
2024-12-06 12:24:18.611,86.62,542.0,0.28,0.95,-0.03,-3.03,-3.47,3.38
2024-12-06 12:24:18.618,86.85,534.0,0.28,0.95,-0.03,-2.54,-2.67,3.02
2024-12-06 12:24:18.627,86.4,532.0,0.28,0.94,-0.02,-2.54,-2.67,3.02
2024-12-06 12:24:18.634,85.72,533.0,0.29,0.94,-0.02,-1.93,-1.88,2.65
2024-12-06 12:24:18.646,82.57,531.0,0.29,0.94,-0.02,-1.19,-1.03,2.16
2024-12-06 12:24:18.650,88.42,536.0,0.29,0.94,-0.02,-0.46,-0.23,1.61
2024-12-06 12:24:18.684,83.92,528.0,0.29,0.94,-0.03,1.49,1.05,-0.71
2024-12-06 12:24:18.688,84.82,524.0,0.28,0.94,-0.03,1.8,1.29,-1.5
2024-12-06 12:24:18.695,88.65,518.0,0.28,0.95,-0.03,2.04,1.29,-2.23
2024-12-06 12:24:18.703,85.28,526.0,0.28,0.95,-0.03,2.22,1.17,-2.84
2024-12-06 12:24:18.712,86.85,527.0,0.27,0.95,-0.03,2.22,1.11,-3.27
2024-12-06 12:24:18.724,87.07,535.0,0.27,0.95,-0.03,2.22,1.11,-3.27
2024-12-06 12:24:18.727,84.82,535.0,0.26,0.95,-0.03,2.22,1.17,-3.58
2024-12-06 12:24:18.735,85.72,548.0,0.26,0.95,-0.03,2.1,1.23,-3.76
2024-12-06 12:24:18.743,84.82,524.0,0.26,0.96,-0.03,1.86,1.42,-3.76
2024-12-06 12:24:18.751,83.25,535.0,0.26,0.96,-0.03,1.61,1.54,-3.7
2024-12-06 12:24:18.758,86.17,520.0,0.26,0.96,-0.03,1.43,1.6,-3.45
2024-12-06 12:24:18.772,82.12,535.0,0.26,0.95,-0.03,1.43,1.6,-3.45
2024-12-06 12:24:18.777,87.75,517.0,0.26,0.95,-0.03,1.13,1.6,-3.15
2024-12-06 12:24:18.783,87.07,530.0,0.26,0.95,-0.04,0.82,1.48,-2.78
2024-12-06 12:24:18.790,86.62,549.0,0.27,0.95,-0.04,0.58,1.35,-2.48
2024-12-06 12:24:18.798,84.6,517.0,0.27,0.95,-0.04,0.33,0.99,-2.11
2024-12-06 12:24:18.822,87.3,521.0,0.27,0.95,-0.04,-0.16,0.07,-1.38
2024-12-06 12:24:18.830,85.05,525.0,0.28,0.95,-0.04,-0.28,-0.42,-1.13
2024-12-06 12:24:18.840,83.47,524.0,0.28,0.95,-0.04,-0.34,-0.78,-0.77
2024-12-06 12:24:18.844,89.1,513.0,0.28,0.95,-0.03,-0.34,-1.15,-0.46
2024-12-06 12:24:18.852,86.4,522.0,0.27,0.96,-0.03,-0.34,-1.15,-0.46
2024-12-06 12:24:18.892,86.85,522.0,0.27,0.96,-0.03,-0.28,-1.27,-0.16
2024-12-06 12:24:18.895,85.5,530.0,0.27,0.96,-0.03,-0.1,-1.09,0.33
2024-12-06 12:24:18.899,83.92,511.0,0.27,0.96,-0.03,0.03,-1.03,0.33
2024-12-06 12:24:18.905,86.62,525.0,0.27,0.96,-0.03,0.03,-0.97,0.27
2024-12-06 12:24:18.913,88.2,509.0,0.26,0.96,-0.04,0.15,-0.84,0.15
2024-12-06 12:24:18.923,87.3,525.0,0.26,0.96,-0.04,0.21,-0.9,0.09
2024-12-06 12:24:18.930,89.1,521.0,0.26,0.96,-0.04,0.33,-0.84,-0.1
2024-12-06 12:24:18.940,86.62,534.0,0.26,0.96,-0.04,0.33,-0.84,-0.1
2024-12-06 12:24:18.946,83.25,514.0,0.26,0.96,-0.04,0.39,-0.84,-0.22
2024-12-06 12:24:19.45,86.62,520.0,0.26,0.95,-0.03,0.94,0.19,-1.07
2024-12-06 12:24:19.52,87.75,518.0,0.26,0.95,-0.03,0.82,0.19,-1.07
2024-12-06 12:24:19.61,88.65,529.0,0.26,0.95,-0.03,0.64,0.13,-1.19
2024-12-06 12:24:19.65,87.07,509.0,0.26,0.95,-0.03,0.58,-0.17,-1.19
2024-12-06 12:24:19.76,82.8,518.0,0.26,0.95,-0.03,0.51,-0.6,-1.32
2024-12-06 12:24:19.88,86.85,519.0,0.26,0.95,-0.03,0.39,-0.78,-1.44
2024-12-06 12:24:19.96,84.38,514.0,0.26,0.95,-0.03,0.39,-0.78,-1.44
2024-12-06 12:24:19.130,84.38,522.0,0.26,0.96,-0.03,-0.03,-1.58,-1.32
2024-12-06 12:24:19.139,86.62,515.0,0.25,0.96,-0.04,-0.28,-1.33,-1.26
2024-12-06 12:24:19.142,86.85,514.0,0.26,0.96,-0.04,-0.46,-1.33,-1.13
2024-12-06 12:24:19.149,89.32,520.0,0.26,0.95,-0.04,-0.46,-1.45,-0.89
2024-12-06 12:24:19.160,87.3,507.0,0.26,0.95,-0.04,-0.46,-1.51,-0.58
2024-12-06 12:24:19.170,85.95,510.0,0.26,0.95,-0.04,-0.58,-1.64,-0.34
2024-12-06 12:24:19.175,85.95,511.0,0.26,0.95,-0.04,-0.58,-1.64,-0.34
2024-12-06 12:24:19.181,87.3,515.0,0.26,0.95,-0.04,-0.58,-1.76,-0.22
2024-12-06 12:24:19.189,86.85,504.0,0.26,0.95,-0.04,-0.64,-1.82,-0.1
2024-12-06 12:24:19.206,89.32,524.0,0.26,0.95,-0.04,-0.58,-1.94,0.03
2024-12-06 12:24:19.216,81.0,498.0,0.26,0.95,-0.04,-0.4,-2.06,0.21
2024-12-06 12:24:19.220,83.92,527.0,0.26,0.95,-0.04,-0.22,-2.0,0.21
2024-12-06 12:24:19.231,84.6,522.0,0.26,0.95,-0.04,-0.16,-1.76,0.15
2024-12-06 12:24:19.234,86.17,521.0,0.26,0.96,-0.04,-0.16,-1.27,0.03
2024-12-06 12:24:19.248,86.17,520.0,0.26,0.96,-0.03,-0.1,-0.78,-0.1
2024-12-06 12:24:19.261,87.52,513.0,0.26,0.96,-0.03,0.03,-0.54,-0.16
2024-12-06 12:24:19.264,86.17,508.0,0.26,0.96,-0.03,0.03,-0.54,-0.16
2024-12-06 12:24:19.266,83.92,511.0,0.25,0.96,-0.04,0.21,-0.35,-0.28
2024-12-06 12:24:19.273,86.4,513.0,0.25,0.96,-0.04,0.27,-0.17,-0.4
2024-12-06 12:24:19.281,85.28,502.0,0.25,0.96,-0.04,0.27,0.01,-0.65
2024-12-06 12:24:19.290,85.28,520.0,0.25,0.96,-0.04,0.21,0.07,-0.83
2024-12-06 12:24:19.298,82.35,526.0,0.25,0.96,-0.04,0.09,-0.05,-0.89
2024-12-06 12:24:19.306,84.6,517.0,0.25,0.96,-0.04,0.09,-0.05,-0.89
2024-12-06 12:24:19.317,82.12,508.0,0.25,0.96,-0.04,0.03,-0.29,-0.89
2024-12-06 12:24:19.351,81.67,523.0,0.25,0.96,-0.04,-0.34,-0.66,-0.77
2024-12-06 12:24:19.357,83.7,523.0,0.25,0.96,-0.04,-0.46,-0.6,-0.71
2024-12-06 12:24:19.360,84.15,515.0,0.25,0.96,-0.04,-0.52,-0.6,-0.52
2024-12-06 12:24:19.369,88.2,505.0,0.25,0.96,-0.03,-0.58,-0.54,-0.22
2024-12-06 12:24:19.376,83.25,509.0,0.25,0.96,-0.03,-0.58,-0.48,-0.04
2024-12-06 12:24:19.384,86.17,517.0,0.25,0.96,-0.03,-0.58,-0.35,0.15
2024-12-06 12:24:19.390,86.62,507.0,0.26,0.96,-0.03,-0.58,-0.35,0.33
2024-12-06 12:24:19.398,86.17,499.0,0.26,0.96,-0.04,-0.58,-0.29,0.33
2024-12-06 12:24:19.406,85.05,508.0,0.26,0.96,-0.04,-0.58,-0.29,0.39
2024-12-06 12:24:19.417,87.3,519.0,0.26,0.95,-0.04,-0.58,-0.35,0.51
2024-12-06 12:24:19.425,86.17,506.0,0.26,0.95,-0.04,-0.58,-0.54,0.51
2024-12-06 12:24:19.429,84.6,512.0,0.26,0.95,-0.04,-0.52,-0.78,0.58
2024-12-06 12:24:19.459,85.95,525.0,0.26,0.96,-0.03,-0.52,-1.15,0.45
2024-12-06 12:24:19.467,85.95,514.0,0.26,0.96,-0.03,-0.46,-1.21,0.45
2024-12-06 12:24:19.474,84.6,526.0,0.26,0.96,-0.03,-0.46,-1.21,0.33
2024-12-06 12:24:19.482,83.47,516.0,0.26,0.96,-0.03,-0.46,-1.21,0.33
2024-12-06 12:24:19.486,87.52,504.0,0.25,0.96,-0.03,-0.46,-1.09,0.27
2024-12-06 12:24:19.490,82.8,497.0,0.25,0.96,-0.03,-0.46,-0.84,0.27
2024-12-06 12:24:19.504,83.47,516.0,0.25,0.96,-0.03,-0.46,-0.6,0.27
2024-12-06 12:24:19.507,85.72,509.0,0.25,0.96,-0.03,-0.4,-0.35,0.27
2024-12-06 12:24:19.514,83.47,516.0,0.25,0.96,-0.03,-0.4,-0.11,0.27
2024-12-06 12:24:19.523,88.88,506.0,0.26,0.95,-0.04,-0.4,-0.11,0.27
2024-12-06 12:24:19.535,89.32,498.0,0.26,0.95,-0.04,-0.46,-0.11,0.33
2024-12-06 12:24:19.538,82.12,523.0,0.26,0.95,-0.04,-0.4,-0.29,0.39
2024-12-06 12:24:19.571,86.4,505.0,0.26,0.95,-0.04,-0.46,-0.42,0.39
2024-12-06 12:24:19.580,82.35,500.0,0.26,0.95,-0.04,-0.52,-0.97,0.27
2024-12-06 12:24:19.584,89.77,520.0,0.26,0.96,-0.04,-0.46,-1.21,0.27
2024-12-06 12:24:19.589,86.17,499.0,0.25,0.96,-0.03,-0.52,-1.27,0.21
2024-12-06 12:24:19.595,83.03,513.0,0.25,0.96,-0.03,-0.58,-1.21,0.15
2024-12-06 12:24:19.602,85.5,518.0,0.25,0.96,-0.03,-0.64,-1.09,0.15
2024-12-06 12:24:19.610,85.72,512.0,0.25,0.96,-0.03,-0.64,-1.09,0.15
2024-12-06 12:24:19.620,82.57,513.0,0.25,0.96,-0.03,-0.71,-1.09,0.27
2024-12-06 12:24:19.626,86.4,507.0,0.25,0.96,-0.03,-0.71,-0.97,0.27
2024-12-06 12:24:19.639,87.75,523.0,0.26,0.96,-0.03,-0.71,-0.9,0.33
2024-12-06 12:24:19.642,85.05,507.0,0.26,0.96,-0.03,-0.77,-0.78,0.33
2024-12-06 12:24:19.649,87.75,514.0,0.26,0.96,-0.04,-0.77,-0.78,0.39
2024-12-06 12:24:19.655,85.72,510.0,0.26,0.96,-0.04,-0.83,-0.72,0.39
2024-12-06 12:24:19.661,86.17,520.0,0.26,0.96,-0.04,-0.89,-0.84,0.39
2024-12-06 12:24:19.668,87.07,521.0,0.26,0.96,-0.04,-0.77,-0.84,0.33
2024-12-06 12:24:19.682,87.52,506.0,0.26,0.95,-0.04,-0.71,-0.9,0.33
2024-12-06 12:24:19.691,87.75,510.0,0.26,0.95,-0.04,-0.64,-1.03,0.33
2024-12-06 12:24:19.693,82.12,504.0,0.26,0.95,-0.04,-0.64,-1.03,0.33
2024-12-06 12:24:19.701,86.4,516.0,0.26,0.95,-0.04,-0.58,-1.03,0.39
2024-12-06 12:24:19.711,83.92,507.0,0.26,0.95,-0.04,-0.52,-0.97,0.39
2024-12-06 12:24:19.717,86.4,504.0,0.26,0.96,-0.04,-0.52,-0.78,0.39
2024-12-06 12:24:19.723,87.07,516.0,0.26,0.96,-0.04,-0.46,-0.54,0.33
2024-12-06 12:24:19.734,87.52,514.0,0.26,0.96,-0.04,-0.46,-0.35,0.39
2024-12-06 12:24:19.743,87.07,511.0,0.26,0.95,-0.03,-0.34,-0.35,0.39
2024-12-06 12:24:19.748,83.03,503.0,0.26,0.95,-0.03,-0.28,-0.17,0.39
2024-12-06 12:24:19.755,86.4,505.0,0.26,0.95,-0.03,-0.22,0.01,0.39
2024-12-06 12:24:19.761,83.92,517.0,0.26,0.96,-0.04,-0.22,0.19,0.39
2024-12-06 12:24:19.794,85.05,501.0,0.26,0.96,-0.04,-0.16,0.26,0.39
2024-12-06 12:24:19.798,86.62,539.0,0.26,0.96,-0.04,-0.22,0.19,0.27
2024-12-06 12:24:19.801,88.2,520.0,0.26,0.96,-0.04,-0.22,0.01,0.21
2024-12-06 12:24:19.807,86.17,510.0,0.26,0.96,-0.04,-0.16,-0.17,0.09
2024-12-06 12:24:19.816,83.7,515.0,0.26,0.96,-0.04,-0.16,-0.17,0.09
2024-12-06 12:24:19.823,88.42,518.0,0.26,0.96,-0.04,-0.16,-0.42,0.09
2024-12-06 12:24:19.839,87.97,506.0,0.26,0.96,-0.03,-0.1,-0.6,0.03
2024-12-06 12:24:19.841,86.62,508.0,0.26,0.96,-0.03,-0.16,-0.66,-0.04
2024-12-06 12:24:19.849,83.92,518.0,0.26,0.96,-0.03,-0.16,-0.6,-0.1
2024-12-06 12:24:19.857,81.9,505.0,0.26,0.96,-0.03,-0.22,-0.54,-0.1
2024-12-06 12:24:19.861,83.25,496.0,0.26,0.96,-0.03,-0.22,-0.54,-0.1
2024-12-06 12:24:19.868,87.3,510.0,0.26,0.96,-0.03,-0.34,-0.42,-0.04
2024-12-06 12:24:19.882,83.47,501.0,0.26,0.96,-0.03,-0.4,-0.35,0.15
2024-12-06 12:24:19.891,85.28,507.0,0.26,0.96,-0.03,-0.52,-0.23,0.21
2024-12-06 12:24:19.893,89.77,508.0,0.26,0.95,-0.03,-0.64,-0.29,0.27
2024-12-06 12:24:19.900,86.17,525.0,0.26,0.95,-0.04,-0.64,-0.29,0.27
2024-12-06 12:24:19.907,82.57,503.0,0.26,0.95,-0.04,-0.64,-0.42,0.39
2024-12-06 12:24:19.917,83.92,503.0,0.26,0.95,-0.04,-0.64,-0.54,0.39
2024-12-06 12:24:19.923,86.85,517.0,0.26,0.95,-0.04,-0.58,-0.66,0.39
2024-12-06 12:24:19.933,83.7,504.0,0.26,0.95,-0.04,-0.52,-0.78,0.39
2024-12-06 12:24:19.941,85.28,513.0,0.26,0.95,-0.03,-0.4,-0.78,0.33
2024-12-06 12:24:19.947,86.4,501.0,0.26,0.95,-0.03,-0.4,-0.78,0.33
2024-12-06 12:24:19.958,84.6,500.0,0.26,0.96,-0.03,-0.28,-0.72,0.27
2024-12-06 12:24:19.965,89.77,516.0,0.26,0.96,-0.03,-0.28,-0.54,0.15
2024-12-06 12:24:19.971,85.5,506.0,0.26,0.96,-0.03,-0.28,-0.35,0.15
