Timestamp,PosIsDeg,ForceIs,AccX,AccY,AccZ,GyroX,GyroY,GyroZ
2024-12-06 12:45:29.401,27.22,471.0,0.85,0.53,-0.04,0.53,-0.3,0.19
2024-12-06 12:45:29.430,24.75,483.0,0.85,0.54,-0.05,0.53,-0.18,1.66
2024-12-06 12:45:29.463,24.07,481.0,1.0,0.66,-0.05,-0.33,1.47,12.64
2024-12-06 12:45:29.509,20.02,486.0,0.94,0.58,-0.06,-2.16,0.55,25.52
2024-12-06 12:45:29.527,17.77,469.0,0.83,0.48,-0.06,-4.17,-3.6,23.81
2024-12-06 12:45:29.539,15.07,468.0,0.78,0.46,-0.05,-1.24,-5.06,16.67
2024-12-06 12:45:29.568,11.7,466.0,0.77,0.47,-0.02,4.86,1.35,13.68
2024-12-06 12:45:29.602,10.57,483.0,0.78,0.49,-0.02,6.93,7.7,9.23
2024-12-06 12:45:29.623,11.25,464.0,0.78,0.55,-0.03,6.63,4.09,9.47
2024-12-06 12:45:29.651,5.17,488.0,0.83,0.46,-0.05,7.91,-3.47,19.36
2024-12-06 12:45:29.681,9.0,489.0,0.97,0.51,-0.01,10.05,15.26,4.83
2024-12-06 12:45:29.718,8.1,471.0,0.9,0.47,-0.07,6.26,8.49,8.86
2024-12-06 12:45:29.733,5.17,470.0,0.92,0.43,-0.0,2.91,-2.99,6.11
2024-12-06 12:45:29.762,0.0,481.0,0.89,0.41,-0.02,3.15,-2.92,6.18
2024-12-06 12:45:29.797,7.88,484.0,0.85,0.41,-0.0,4.68,4.09,6.36
2024-12-06 12:45:29.848,6.75,486.0,0.91,0.41,-0.04,3.21,4.09,6.42
2024-12-06 12:45:31.236,-0.22,458.0,0.9,0.42,-0.02,0.47,1.35,-1.52
2024-12-06 12:45:31.242,3.6,461.0,0.9,0.42,-0.02,0.83,1.04,-2.37
2024-12-06 12:45:31.248,4.72,483.0,0.9,0.42,-0.02,0.83,1.04,-2.37
2024-12-06 12:45:31.266,1.12,460.0,0.91,0.41,-0.02,0.71,0.92,-2.37
2024-12-06 12:45:31.294,2.7,463.0,0.91,0.38,-0.01,0.53,0.55,-2.37
2024-12-06 12:45:31.297,-0.45,460.0,0.89,0.4,-0.01,0.1,0.62,-2.8
2024-12-06 12:45:31.301,1.8,474.0,0.9,0.41,-0.01,0.04,0.55,-2.8
2024-12-06 12:45:31.311,-1.57,488.0,0.9,0.41,-0.03,0.04,0.55,-2.74
2024-12-06 12:45:31.330,0.9,461.0,0.88,0.41,-0.03,0.34,2.2,-3.47
2024-12-06 12:45:31.335,1.8,467.0,0.88,0.42,-0.01,-0.21,1.84,-3.83
2024-12-06 12:45:31.343,1.35,484.0,0.88,0.42,-0.02,0.16,1.71,-3.96
2024-12-06 12:45:31.348,2.7,469.0,0.89,0.42,-0.03,-0.27,3.36,-3.83
2024-12-06 12:45:31.359,1.35,469.0,0.89,0.42,-0.03,-0.15,1.41,-3.1
2024-12-06 12:45:31.370,5.4,466.0,0.91,0.42,-0.01,-0.39,0.43,-2.55
2024-12-06 12:45:31.372,4.05,457.0,0.91,0.41,-0.03,-0.39,0.43,-2.55
2024-12-06 12:45:31.381,1.35,479.0,0.9,0.41,-0.03,-0.45,1.04,-2.74
2024-12-06 12:45:31.387,2.47,462.0,0.91,0.42,-0.01,-0.76,0.8,-2.92
2024-12-06 12:45:31.397,3.6,457.0,0.93,0.43,-0.01,-0.94,-0.06,-2.74
2024-12-06 12:45:31.403,2.92,459.0,0.93,0.43,-0.01,-0.88,-0.36,-2.55
2024-12-06 12:45:31.411,2.25,453.0,0.93,0.43,-0.02,-0.69,-0.3,-2.37
2024-12-06 12:45:31.423,2.02,476.0,0.92,0.43,-0.02,-0.69,-0.3,-2.37
2024-12-06 12:45:31.433,2.02,463.0,0.92,0.43,-0.03,-0.27,-0.36,-2.37
2024-12-06 12:45:31.440,0.0,459.0,0.91,0.44,-0.03,0.1,0.0,-2.37
2024-12-06 12:45:31.442,-1.8,463.0,0.91,0.44,-0.02,0.47,0.19,-2.13
2024-12-06 12:45:31.449,-0.45,456.0,0.91,0.44,-0.02,0.71,0.13,-1.88
2024-12-06 12:45:31.459,-3.6,465.0,0.91,0.44,-0.03,0.71,0.13,-1.88
2024-12-06 12:45:31.472,1.57,473.0,0.91,0.44,-0.03,0.77,0.19,-1.58
2024-12-06 12:45:31.477,3.38,478.0,0.91,0.43,-0.03,0.71,-0.24,-1.21
2024-12-06 12:45:31.481,-2.7,464.0,0.9,0.43,-0.03,0.65,-0.48,-0.91
2024-12-06 12:45:31.558,-4.05,476.0,0.9,0.43,-0.03,0.59,-0.61,-0.54
2024-12-06 12:45:31.561,4.28,464.0,0.88,0.42,-0.01,0.89,0.37,-0.97
2024-12-06 12:45:31.567,2.7,456.0,0.88,0.42,-0.01,0.71,0.49,-1.39
2024-12-06 12:45:31.571,-0.22,485.0,0.87,0.42,-0.01,0.71,0.49,-1.39
2024-12-06 12:45:31.583,1.12,473.0,0.87,0.42,-0.0,0.28,0.62,-2.0
2024-12-06 12:45:31.593,-0.9,460.0,0.87,0.41,-0.0,-0.21,0.98,-2.55
2024-12-06 12:45:31.598,-2.25,457.0,0.87,0.42,-0.0,-0.63,1.29,-3.16
2024-12-06 12:45:31.601,1.8,465.0,0.87,0.42,-0.0,-0.57,1.1,-3.16
2024-12-06 12:45:31.609,0.22,472.0,0.89,0.43,-0.01,-0.51,0.8,-2.8
2024-12-06 12:45:31.621,4.05,468.0,0.89,0.44,-0.02,-0.51,0.8,-2.8
2024-12-06 12:45:31.624,-1.12,469.0,0.88,0.45,-0.05,0.4,1.71,-2.86
2024-12-06 12:45:31.633,0.67,466.0,0.88,0.46,-0.04,0.22,2.93,-3.29
2024-12-06 12:45:31.643,3.38,474.0,0.89,0.46,-0.01,0.34,2.81,-3.35
2024-12-06 12:45:31.649,1.35,474.0,0.89,0.46,-0.01,0.16,3.0,-3.16
2024-12-06 12:45:31.658,-0.45,488.0,0.89,0.45,-0.02,0.16,3.06,-3.1
2024-12-06 12:45:31.664,4.72,438.0,0.89,0.45,-0.02,0.16,3.06,-3.1
2024-12-06 12:45:31.696,0.67,460.0,0.91,0.41,-0.02,-0.15,-0.18,-2.37
2024-12-06 12:45:31.703,-2.92,475.0,0.91,0.41,-0.01,-0.15,-0.18,-2.37
2024-12-06 12:45:31.709,4.05,466.0,0.92,0.4,-0.01,-0.33,-0.85,-2.13
2024-12-06 12:45:31.735,2.92,467.0,0.91,0.4,-0.01,-0.57,-1.64,-1.94
2024-12-06 12:45:31.786,1.12,450.0,0.88,0.43,-0.03,-0.39,0.86,-3.53
2024-12-06 12:45:31.797,-3.15,463.0,0.89,0.43,-0.03,-0.39,1.53,-2.92
2024-12-06 12:45:31.802,2.47,457.0,0.89,0.43,-0.03,-0.51,2.08,-2.31
2024-12-06 12:45:31.808,-4.28,470.0,0.89,0.43,-0.03,-0.76,2.39,-1.52
2024-12-06 12:45:31.826,0.22,460.0,0.91,0.44,-0.02,-0.94,2.08,-1.09
2024-12-06 12:45:31.842,-0.67,439.0,0.91,0.44,-0.03,-1.06,1.96,-0.66
2024-12-06 12:45:31.865,-0.22,460.0,0.93,0.44,-0.02,-1.12,0.92,-0.17
2024-12-06 12:45:31.869,0.0,458.0,0.93,0.43,-0.02,-0.82,-0.85,0.38
2024-12-06 12:45:31.877,3.82,459.0,0.93,0.43,-0.02,-0.69,-1.58,0.44
2024-12-06 12:45:31.888,-4.05,467.0,0.93,0.43,-0.02,-0.51,-2.01,0.44
2024-12-06 12:45:31.892,-0.22,463.0,0.92,0.44,-0.02,-0.33,-2.31,0.5
2024-12-06 12:45:31.901,-0.67,456.0,0.91,0.44,-0.01,-0.33,-2.31,0.5
2024-12-06 12:45:31.909,3.15,459.0,0.9,0.44,-0.01,-0.27,-2.01,0.5
2024-12-06 12:45:31.915,2.02,472.0,0.89,0.44,-0.02,-0.15,-1.34,0.44
2024-12-06 12:45:31.927,4.95,459.0,0.88,0.44,-0.01,-0.15,-0.48,0.5
2024-12-06 12:45:31.941,1.8,460.0,0.88,0.44,-0.01,-0.27,0.13,0.5
2024-12-06 12:45:31.944,2.25,472.0,0.87,0.44,-0.01,-0.51,0.92,0.44
2024-12-06 12:45:31.947,0.22,488.0,0.87,0.44,-0.01,-0.51,0.92,0.44
2024-12-06 12:45:31.979,-1.57,462.0,0.87,0.43,-0.01,-0.63,1.71,0.32
2024-12-06 12:45:31.982,4.72,455.0,0.88,0.42,-0.01,-1.0,2.57,0.62
2024-12-06 12:45:31.985,1.35,470.0,0.89,0.42,-0.01,-1.0,2.57,0.62
2024-12-06 12:45:31.994,2.02,459.0,0.9,0.42,-0.01,-1.12,2.57,0.8
2024-12-06 12:45:32.2,-0.67,460.0,0.9,0.42,-0.01,-1.12,2.02,0.93
2024-12-06 12:45:32.9,-0.9,467.0,0.9,0.43,-0.01,-1.06,1.65,1.05
2024-12-06 12:45:32.20,0.9,466.0,0.9,0.43,-0.01,-0.88,0.92,1.11
2024-12-06 12:45:32.26,1.57,468.0,0.91,0.43,-0.01,-0.76,0.86,0.99
2024-12-06 12:45:32.34,1.35,467.0,0.91,0.43,-0.01,-0.76,0.86,0.99
2024-12-06 12:45:32.44,-1.57,473.0,0.91,0.43,-0.01,-0.69,0.8,0.93
2024-12-06 12:45:32.55,-1.57,458.0,0.91,0.43,-0.01,-0.39,0.62,0.99
2024-12-06 12:45:32.153,-0.67,461.0,0.89,0.43,-0.02,0.83,2.02,1.84
2024-12-06 12:45:32.160,-0.45,447.0,0.89,0.42,-0.02,0.95,2.02,1.84
2024-12-06 12:45:32.216,0.22,451.0,0.89,0.42,-0.02,1.08,1.84,1.72
2024-12-06 12:45:32.219,2.25,471.0,0.89,0.42,-0.0,1.14,1.1,0.07
2024-12-06 12:45:32.223,1.57,453.0,0.89,0.42,-0.01,1.14,0.55,-0.05
2024-12-06 12:45:32.227,1.12,474.0,0.9,0.42,-0.02,1.14,0.37,-0.17
2024-12-06 12:45:32.237,-1.57,450.0,0.9,0.42,-0.02,1.2,0.31,-0.23
2024-12-06 12:45:32.243,-1.35,452.0,0.9,0.42,-0.02,1.14,-0.3,-0.29
2024-12-06 12:45:32.254,4.95,468.0,0.89,0.42,-0.02,1.14,-0.3,-0.29
2024-12-06 12:45:32.259,1.8,465.0,0.89,0.42,-0.02,1.01,-0.42,-0.6
2024-12-06 12:45:32.266,1.57,461.0,0.89,0.42,-0.01,0.77,-0.54,-0.78
2024-12-06 12:45:32.274,4.05,461.0,0.89,0.42,-0.01,0.71,-0.79,-0.84
2024-12-06 12:45:32.283,-1.35,471.0,0.89,0.41,-0.02,0.71,-0.24,-0.91
2024-12-06 12:45:32.316,0.0,458.0,0.9,0.42,-0.02,1.01,0.68,-0.48
2024-12-06 12:45:32.322,4.28,450.0,0.91,0.43,-0.02,1.32,0.8,0.07
2024-12-06 12:45:32.332,-1.12,454.0,0.91,0.43,-0.02,1.56,0.74,0.62
2024-12-06 12:45:32.337,2.02,458.0,0.92,0.43,-0.03,1.56,0.74,0.99
2024-12-06 12:45:32.343,0.22,478.0,0.92,0.43,-0.03,1.69,0.49,0.99
2024-12-06 12:45:32.353,0.9,486.0,0.93,0.43,-0.02,1.69,0.07,1.48
2024-12-06 12:45:32.361,0.22,519.0,0.93,0.43,-0.01,1.5,-1.03,2.09
2024-12-06 12:45:32.366,1.12,455.0,0.93,0.43,-0.01,1.26,-1.46,2.57
2024-12-06 12:45:32.376,-1.8,469.0,0.93,0.43,-0.01,1.08,-1.34,2.88
2024-12-06 12:45:32.382,2.02,476.0,0.92,0.43,-0.02,1.08,-1.34,2.88
2024-12-06 12:45:32.397,1.35,479.0,0.93,0.43,-0.01,1.08,-1.4,3.37
2024-12-06 12:45:32.445,2.92,457.0,0.91,0.4,-0.01,1.81,0.37,5.81
2024-12-06 12:45:32.450,1.57,456.0,0.91,0.4,-0.01,1.81,0.8,6.3
2024-12-06 12:45:32.462,-0.67,454.0,0.91,0.4,-0.02,1.81,0.8,6.3
2024-12-06 12:45:32.465,-0.22,474.0,0.91,0.4,-0.01,1.69,1.16,6.85
2024-12-06 12:45:32.474,2.25,455.0,0.91,0.4,-0.01,1.69,1.35,7.46
2024-12-06 12:45:32.481,4.28,451.0,0.91,0.4,-0.02,1.87,1.41,8.13
2024-12-06 12:45:32.491,1.57,469.0,0.91,0.4,-0.02,1.99,1.53,8.8
2024-12-06 12:45:32.502,1.8,472.0,0.91,0.41,-0.02,1.87,1.1,9.17
2024-12-06 12:45:32.506,-1.12,479.0,0.91,0.41,-0.02,1.87,1.1,9.17
2024-12-06 12:45:32.545,1.12,477.0,0.9,0.41,-0.01,1.56,0.74,9.04
2024-12-06 12:45:32.549,-2.02,461.0,0.9,0.42,-0.01,0.77,-0.42,6.85
2024-12-06 12:45:32.554,-0.67,463.0,0.9,0.41,-0.01,0.4,-0.67,6.24
2024-12-06 12:45:32.559,0.67,476.0,0.91,0.4,-0.0,0.16,-0.91,5.87
2024-12-06 12:45:32.565,1.57,467.0,0.91,0.39,0.0,-0.21,-0.97,5.93
2024-12-06 12:45:32.575,3.38,479.0,0.91,0.39,0.0,-0.63,-1.28,6.18
2024-12-06 12:45:32.583,-2.25,455.0,0.91,0.39,0.01,-0.63,-1.28,6.66
2024-12-06 12:45:32.618,1.8,460.0,0.9,0.38,0.01,-2.1,-0.06,6.85
2024-12-06 12:45:32.621,2.25,460.0,0.91,0.38,-0.01,-2.1,-0.06,6.85
2024-12-06 12:45:32.640,-8.77,462.0,0.92,0.39,-0.02,-1.98,0.31,7.03
2024-12-06 12:45:32.643,3.15,484.0,0.92,0.39,-0.03,-1.73,0.49,8.07
2024-12-06 12:45:32.676,1.8,456.0,0.92,0.39,-0.03,-1.98,0.68,8.37
2024-12-06 12:45:32.681,2.25,471.0,0.92,0.38,-0.0,-3.93,-0.54,9.23
2024-12-06 12:45:32.689,3.38,476.0,0.92,0.38,-0.0,-4.48,-1.34,9.47
2024-12-06 12:45:32.698,0.45,465.0,0.92,0.38,-0.01,-4.78,-1.03,9.78
2024-12-06 12:45:32.708,-1.12,471.0,0.92,0.38,-0.01,-4.78,-1.03,9.78
2024-12-06 12:45:32.710,1.57,460.0,0.93,0.39,-0.01,-4.78,-1.52,10.2
2024-12-06 12:45:32.722,2.25,460.0,0.93,0.39,-0.01,-4.84,-1.4,10.63
2024-12-06 12:45:32.738,3.15,465.0,0.93,0.38,-0.02,-4.48,-1.22,10.75
2024-12-06 12:45:32.744,-0.67,460.0,0.93,0.38,-0.02,-4.23,-0.97,10.51
2024-12-06 12:45:32.746,3.38,470.0,0.92,0.37,-0.02,-3.93,-0.48,10.14
2024-12-06 12:45:32.751,2.7,450.0,0.92,0.37,-0.02,-3.93,-0.48,10.14
2024-12-06 12:45:32.788,2.25,450.0,0.89,0.35,0.01,-3.32,-3.35,9.1
2024-12-06 12:45:32.795,-0.67,460.0,0.84,0.32,-0.02,-3.14,-7.2,6.05
2024-12-06 12:45:32.811,4.5,466.0,0.86,0.32,-0.03,-3.32,-5.49,2.27
2024-12-06 12:45:32.816,4.5,446.0,0.89,0.33,-0.0,-3.01,-6.83,0.01
2024-12-06 12:45:32.819,3.6,463.0,0.89,0.33,-0.0,-2.46,-9.76,-1.52
2024-12-06 12:45:32.826,-0.45,449.0,0.89,0.33,-0.02,-1.92,-9.03,-3.41
2024-12-06 12:45:32.844,1.57,455.0,0.86,0.32,-0.03,-1.92,-9.03,-3.41
2024-12-06 12:45:32.848,3.15,453.0,0.85,0.33,-0.01,-1.55,-7.44,-5.6
2024-12-06 12:45:32.850,2.47,493.0,0.85,0.34,-0.02,-0.82,-5.79,-7.56
2024-12-06 12:45:32.867,0.67,467.0,0.88,0.36,-0.02,-0.08,-3.17,-8.29
2024-12-06 12:45:32.871,6.52,465.0,0.88,0.36,-0.02,1.01,-2.86,-8.23
2024-12-06 12:45:32.878,7.88,471.0,0.88,0.37,-0.02,1.01,-2.86,-8.23
2024-12-06 12:45:32.885,5.4,468.0,0.85,0.36,-0.04,1.81,-4.21,-8.9
2024-12-06 12:45:32.892,3.15,467.0,0.85,0.35,-0.06,1.93,-2.19,-10.85
2024-12-06 12:45:32.896,10.57,468.0,0.88,0.35,-0.03,1.75,0.49,-12.07
2024-12-06 12:45:32.904,8.32,452.0,0.88,0.35,-0.03,2.3,-2.68,-12.5
2024-12-06 12:45:32.914,9.45,453.0,0.89,0.35,-0.03,2.3,-4.39,-12.99
2024-12-06 12:45:32.920,8.1,478.0,0.91,0.35,-0.06,2.3,-4.39,-12.99
2024-12-06 12:45:32.933,13.05,468.0,0.92,0.36,-0.05,2.11,-3.9,-13.23
2024-12-06 12:45:32.936,15.07,450.0,0.9,0.36,-0.04,2.78,-7.08,-13.72
2024-12-06 12:45:32.947,12.6,485.0,0.9,0.35,-0.04,2.42,-7.5,-15.0
2024-12-06 12:45:32.961,12.82,479.0,0.9,0.36,-0.02,1.99,-6.16,-16.1
2024-12-06 12:45:32.996,13.95,454.0,0.92,0.39,-0.01,3.09,-5.85,-16.96
2024-12-06 12:45:33.0,19.35,471.0,0.91,0.39,-0.04,3.33,-3.05,-15.86
2024-12-06 12:45:33.6,21.38,477.0,0.9,0.39,-0.05,3.88,-3.35,-15.68
2024-12-06 12:45:33.14,18.45,465.0,0.9,0.4,-0.02,3.88,-3.35,-15.68
2024-12-06 12:45:33.23,23.17,465.0,0.91,0.4,-0.03,3.39,-1.64,-15.37
2024-12-06 12:45:33.41,20.25,498.0,0.91,0.4,-0.02,3.21,-1.22,-14.76
2024-12-06 12:45:33.49,25.88,488.0,0.9,0.4,-0.04,3.21,-1.15,-14.7
2024-12-06 12:45:33.52,25.88,492.0,0.9,0.4,-0.04,2.54,0.25,-14.27
2024-12-06 12:45:33.54,25.42,488.0,0.92,0.41,-0.03,2.91,-1.83,-13.84
2024-12-06 12:45:33.64,27.45,483.0,0.92,0.41,-0.03,2.91,-1.83,-13.84
2024-12-06 12:45:33.72,26.32,485.0,0.92,0.4,-0.05,2.42,-0.61,-13.91
2024-12-06 12:45:33.80,25.65,471.0,0.94,0.42,-0.02,2.05,-0.73,-13.36
2024-12-06 12:45:33.88,24.75,484.0,0.94,0.42,-0.03,2.05,-4.27,-12.44
2024-12-06 12:45:33.96,27.45,476.0,0.94,0.42,-0.03,1.2,-1.95,-12.26
2024-12-06 12:45:33.225,31.05,479.0,0.94,0.44,-0.04,-0.57,-3.96,-2.61
2024-12-06 12:45:33.231,37.58,482.0,0.93,0.42,-0.03,-1.12,-4.27,-1.82
2024-12-06 12:45:33.237,36.9,500.0,0.92,0.41,-0.03,-1.43,-5.12,-1.64
2024-12-06 12:45:33.250,32.85,471.0,0.92,0.41,-0.03,-2.28,-4.51,-1.7
2024-12-06 12:45:33.253,37.35,482.0,0.92,0.41,-0.03,-2.83,-5.73,-1.45
2024-12-06 12:45:33.263,40.27,490.0,0.93,0.42,-0.02,-3.2,-7.81,-0.84
2024-12-06 12:45:33.272,38.47,483.0,0.93,0.44,-0.04,-3.2,-7.81,-0.84
2024-12-06 12:45:33.280,33.3,490.0,0.93,0.45,-0.04,-3.56,-6.95,-0.11
2024-12-06 12:45:33.286,39.15,481.0,0.92,0.44,-0.03,-3.75,-8.05,0.62
2024-12-06 12:45:33.292,37.12,478.0,0.9,0.43,-0.04,-3.99,-8.11,0.93
2024-12-06 12:45:33.336,38.92,454.0,0.88,0.45,-0.04,-5.33,-5.79,2.82
2024-12-06 12:45:33.342,38.47,486.0,0.88,0.45,-0.04,-5.21,-5.43,2.82
2024-12-06 12:45:33.351,41.17,480.0,0.87,0.44,-0.04,-5.21,-4.76,2.21
2024-12-06 12:45:33.354,41.85,482.0,0.87,0.43,-0.05,-5.21,-4.76,2.21
2024-12-06 12:45:33.364,36.67,491.0,0.89,0.44,-0.05,-5.46,-5.06,2.09
2024-12-06 12:45:33.374,42.08,491.0,0.91,0.45,-0.07,-5.15,-5.49,2.7
2024-12-06 12:45:33.381,43.65,483.0,0.91,0.45,-0.07,-5.09,-5.49,3.31
2024-12-06 12:45:33.384,37.58,502.0,0.91,0.45,-0.07,-4.97,-6.22,3.67
2024-12-06 12:45:33.392,42.3,493.0,0.9,0.46,-0.06,-4.97,-7.08,3.25
2024-12-06 12:45:33.405,42.97,501.0,0.88,0.44,-0.06,-5.03,-7.08,3.25
2024-12-06 12:45:33.408,40.72,509.0,0.87,0.42,-0.07,-5.33,-7.08,1.78
2024-12-06 12:45:33.450,47.25,492.0,0.88,0.43,-0.06,-5.58,-7.56,0.86
2024-12-06 12:45:33.453,43.65,497.0,0.86,0.43,-0.07,-4.66,-8.85,-0.72
2024-12-06 12:45:33.459,43.88,510.0,0.84,0.42,-0.09,-4.48,-8.85,-1.76
2024-12-06 12:45:33.471,48.6,502.0,0.84,0.42,-0.09,-4.17,-7.01,-2.98
2024-12-06 12:45:33.476,46.8,495.0,0.84,0.42,-0.09,-2.95,-7.87,-3.29
2024-12-06 12:45:33.480,46.8,550.0,0.86,0.43,-0.09,-2.95,-7.87,-2.86
2024-12-06 12:45:33.485,48.82,501.0,0.87,0.45,-0.1,-1.92,-9.39,-2.86
2024-12-06 12:45:33.493,50.4,524.0,0.86,0.43,-0.11,-0.94,-11.16,-3.16
2024-12-06 12:45:33.503,48.6,499.0,0.87,0.4,-0.12,-0.82,-10.31,-5.3
2024-12-06 12:45:33.513,49.5,514.0,0.9,0.41,-0.1,-0.51,-10.19,-6.4
2024-12-06 12:45:33.518,44.1,505.0,0.9,0.41,-0.09,-0.15,-12.2,-6.15
2024-12-06 12:45:33.526,51.75,509.0,0.91,0.43,-0.09,-0.33,-11.71,-6.03
2024-12-06 12:45:33.534,53.77,526.0,0.9,0.44,-0.1,-0.33,-11.71,-6.03
2024-12-06 12:45:33.544,53.55,507.0,0.89,0.43,-0.09,-0.21,-11.41,-6.09
2024-12-06 12:45:33.556,51.07,518.0,0.88,0.43,-0.09,0.34,-10.55,-6.03
2024-12-06 12:45:33.563,48.82,515.0,0.87,0.45,-0.08,0.59,-8.6,-5.48
2024-12-06 12:45:33.568,52.65,527.0,0.87,0.45,-0.07,0.95,-6.95,-4.63
2024-12-06 12:45:33.575,54.45,521.0,0.87,0.45,-0.07,1.26,-5.55,-4.14
2024-12-06 12:45:33.583,56.02,519.0,0.87,0.44,-0.06,0.89,-4.63,-4.14
2024-12-06 12:45:33.592,49.95,527.0,0.87,0.42,-0.06,0.89,-4.63,-4.14
2024-12-06 12:45:33.619,55.35,537.0,0.87,0.42,-0.08,1.44,-3.6,-3.83
2024-12-06 12:45:33.635,53.32,527.0,0.88,0.44,-0.08,-0.33,-1.28,-2.06
2024-12-06 12:45:33.642,51.07,574.0,0.87,0.45,-0.08,-0.82,-1.83,-2.37
2024-12-06 12:45:33.644,55.35,525.0,0.86,0.44,-0.09,-1.43,-1.7,-2.37
2024-12-06 12:45:33.651,52.2,547.0,0.84,0.41,-0.09,-1.61,-1.09,-2.98
2024-12-06 12:45:33.660,56.02,538.0,0.84,0.41,-0.09,-1.85,0.13,-3.77
2024-12-06 12:45:33.668,52.2,531.0,0.87,0.39,-0.09,-1.79,-0.24,-3.53
2024-12-06 12:45:33.677,54.22,540.0,0.89,0.41,-0.08,-1.79,-0.24,-3.53
2024-12-06 12:45:33.685,56.92,545.0,0.88,0.43,-0.09,-1.85,-0.18,-3.1
2024-12-06 12:45:33.691,58.72,535.0,0.86,0.44,-0.09,-1.92,1.29,-2.61
2024-12-06 12:45:33.723,58.05,545.0,0.87,0.43,-0.08,-1.12,4.09,-2.13
2024-12-06 12:45:33.731,54.45,560.0,0.88,0.41,-0.09,-1.12,3.85,-1.94
2024-12-06 12:45:33.741,57.82,549.0,0.88,0.4,-0.09,-1.24,4.46,-1.76
2024-12-06 12:45:33.744,60.97,538.0,0.88,0.42,-0.09,-1.18,4.34,-1.52
2024-12-06 12:45:33.754,57.82,550.0,0.9,0.42,-0.09,-1.12,4.4,-0.91
2024-12-06 12:45:33.760,59.4,543.0,0.91,0.43,-0.1,-1.12,4.4,-0.91
2024-12-06 12:45:33.767,56.7,565.0,0.91,0.44,-0.09,-0.76,4.09,-0.05
2024-12-06 12:45:33.779,56.47,545.0,0.9,0.45,-0.09,-0.51,4.46,0.44
2024-12-06 12:45:33.789,59.4,550.0,0.9,0.45,-0.09,-0.21,4.89,0.74
2024-12-06 12:45:33.791,56.25,562.0,0.9,0.45,-0.09,0.28,5.25,0.62
2024-12-06 12:45:33.799,60.07,556.0,0.9,0.44,-0.09,0.77,5.56,0.5
2024-12-06 12:45:33.807,59.4,554.0,0.9,0.45,-0.09,0.77,5.56,0.5
2024-12-06 12:45:33.816,56.7,557.0,0.91,0.44,-0.09,1.56,5.5,0.8
2024-12-06 12:45:33.826,57.38,561.0,0.91,0.43,-0.1,2.48,5.68,1.17
2024-12-06 12:45:33.833,61.88,553.0,0.92,0.42,-0.09,3.21,5.86,1.66
2024-12-06 12:45:33.839,62.32,567.0,0.93,0.41,-0.09,3.82,4.95,2.15
2024-12-06 12:45:33.851,62.55,566.0,0.93,0.41,-0.09,3.82,4.03,2.63
2024-12-06 12:45:33.857,57.38,568.0,0.94,0.42,-0.09,3.82,4.03,2.94
2024-12-06 12:45:33.863,60.75,568.0,0.93,0.43,-0.09,3.58,2.93,2.94
2024-12-06 12:45:33.906,57.15,567.0,0.92,0.44,-0.08,3.7,0.74,3.98
2024-12-06 12:45:33.921,60.07,552.0,0.91,0.42,-0.08,3.82,0.13,4.4
2024-12-06 12:45:33.925,60.07,575.0,0.91,0.4,-0.07,3.82,0.0,4.65
2024-12-06 12:45:33.932,62.1,553.0,0.91,0.4,-0.07,3.82,-0.18,4.59
2024-12-06 12:45:33.941,63.45,577.0,0.9,0.4,-0.07,3.64,0.13,4.34
2024-12-06 12:45:33.958,61.88,574.0,0.9,0.42,-0.06,3.64,0.13,4.34
2024-12-06 12:45:33.967,62.77,561.0,0.91,0.46,-0.04,3.27,-0.12,4.77
2024-12-06 12:45:33.971,54.9,618.0,0.9,0.46,-0.04,2.11,0.25,5.93
2024-12-06 12:45:33.978,66.6,566.0,0.89,0.44,-0.05,2.11,0.25,5.93
2024-12-06 12:45:33.986,61.42,576.0,0.9,0.42,-0.04,1.62,0.92,6.42
2024-12-06 12:45:33.994,67.5,575.0,0.88,0.41,-0.05,1.44,1.23,6.91
2024-12-06 12:45:34.1,65.47,573.0,0.87,0.43,-0.07,1.38,-1.28,6.72
2024-12-06 12:45:34.9,62.55,575.0,0.87,0.45,-0.07,-0.27,-0.54,6.42
2024-12-06 12:45:34.18,62.1,590.0,0.87,0.45,-0.07,-1.12,0.07,6.54
2024-12-06 12:45:34.30,65.47,580.0,0.88,0.45,-0.05,-1.12,0.07,6.54
2024-12-06 12:45:34.35,66.15,574.0,0.88,0.44,-0.04,-1.12,-0.48,7.09
2024-12-06 12:45:34.43,65.47,582.0,0.88,0.43,-0.04,-1.3,1.35,7.58
2024-12-06 12:45:34.48,65.03,593.0,0.88,0.42,-0.06,-1.18,1.35,8.07
2024-12-06 12:45:34.57,65.92,582.0,0.9,0.43,-0.07,-1.73,1.71,8.68
2024-12-06 12:45:34.69,66.15,592.0,0.9,0.43,-0.07,-1.73,1.71,9.17
2024-12-06 12:45:34.77,65.25,601.0,0.9,0.42,-0.08,-1.73,1.71,9.23
2024-12-06 12:45:34.80,66.38,603.0,0.89,0.4,-0.08,-1.3,1.71,9.23
2024-12-06 12:45:34.89,67.28,611.0,0.89,0.39,-0.08,-0.88,2.45,9.1
2024-12-06 12:45:34.117,63.45,613.0,0.92,0.37,-0.08,-0.02,2.39,8.98
2024-12-06 12:45:34.119,68.4,610.0,0.94,0.37,-0.09,-0.02,2.39,8.98
2024-12-06 12:45:34.125,67.72,606.0,0.93,0.37,-0.09,-0.39,2.69,8.92
2024-12-06 12:45:34.135,67.72,620.0,0.92,0.38,-0.09,-0.45,3.12,8.74
2024-12-06 12:45:34.144,68.62,628.0,0.92,0.39,-0.08,-0.27,3.91,8.56
2024-12-06 12:45:34.238,68.62,614.0,0.92,0.39,-0.08,0.22,4.09,8.56
2024-12-06 12:45:34.252,73.8,667.0,0.91,0.36,-0.06,0.4,-3.35,4.28
2024-12-06 12:45:34.256,69.3,643.0,0.92,0.34,-0.07,-0.15,-2.74,4.4
2024-12-06 12:45:34.264,72.67,649.0,0.92,0.34,-0.07,-0.27,-3.23,4.47
2024-12-06 12:45:34.272,72.0,649.0,0.93,0.33,-0.06,-0.88,-3.66,4.28
2024-12-06 12:45:34.279,71.55,652.0,0.92,0.34,-0.07,-0.88,-3.66,4.28
2024-12-06 12:45:34.291,72.67,664.0,0.91,0.34,-0.07,-1.3,-3.11,3.67
2024-12-06 12:45:34.299,72.9,659.0,0.91,0.36,-0.07,-1.43,-1.89,3.31
2024-12-06 12:45:34.302,72.9,686.0,0.92,0.38,-0.07,-0.88,-2.86,3.67
2024-12-06 12:45:34.313,74.47,662.0,0.92,0.38,-0.07,-0.82,-3.23,4.22
2024-12-06 12:45:34.329,71.32,656.0,0.92,0.37,-0.07,-1.43,-3.54,4.28
2024-12-06 12:45:34.334,75.82,681.0,0.91,0.36,-0.07,-1.98,-3.66,3.98
2024-12-06 12:45:34.347,73.35,674.0,0.92,0.35,-0.07,-2.34,-3.96,3.73
2024-12-06 12:45:34.349,76.5,662.0,0.92,0.35,-0.07,-2.4,-5.12,3.37
2024-12-06 12:45:34.358,71.78,667.0,0.92,0.35,-0.08,-2.77,-4.63,2.88
2024-12-06 12:45:34.365,75.82,663.0,0.91,0.36,-0.08,-2.83,-3.96,2.57
2024-12-06 12:45:34.378,75.82,669.0,0.9,0.36,-0.07,-2.83,-3.96,2.57
2024-12-06 12:45:34.381,75.82,671.0,0.9,0.37,-0.08,-2.53,-3.6,2.45
2024-12-06 12:45:34.389,75.38,669.0,0.91,0.37,-0.08,-2.1,-3.54,2.57
2024-12-06 12:45:34.426,74.92,704.0,0.92,0.36,-0.09,-2.28,-5.06,2.7
2024-12-06 12:45:34.429,75.38,671.0,0.91,0.37,-0.09,-2.34,-4.63,2.39
2024-12-06 12:45:34.438,74.92,677.0,0.91,0.4,-0.08,-2.65,-3.9,2.39
2024-12-06 12:45:34.463,73.57,682.0,0.88,0.4,-0.06,-2.1,-3.78,2.88
2024-12-06 12:45:34.467,74.03,678.0,0.88,0.37,-0.07,-1.49,-2.92,2.82
2024-12-06 12:45:34.474,75.15,687.0,0.9,0.37,-0.08,-1.3,-2.68,3.06
2024-12-06 12:45:34.482,71.78,693.0,0.91,0.36,-0.09,-1.49,-3.35,3.25
2024-12-06 12:45:34.491,71.55,677.0,0.91,0.36,-0.08,-1.92,-3.35,2.94
2024-12-06 12:45:34.499,74.92,689.0,0.92,0.36,-0.08,-1.67,-4.39,2.7
2024-12-06 12:45:34.506,72.67,701.0,0.93,0.36,-0.07,-1.67,-4.39,2.7
2024-12-06 12:45:34.570,76.72,683.0,0.94,0.37,-0.07,-2.28,-7.99,-0.11
2024-12-06 12:45:34.572,70.2,688.0,0.91,0.35,-0.08,-1.85,-7.69,-0.97
2024-12-06 12:45:34.574,75.15,690.0,0.91,0.35,-0.08,-1.85,-7.56,-0.91
2024-12-06 12:45:34.584,74.7,696.0,0.91,0.35,-0.08,-1.92,-7.38,-0.36
2024-12-06 12:45:34.590,74.25,689.0,0.92,0.34,-0.09,-1.92,-7.38,-0.36
2024-12-06 12:45:34.603,71.78,690.0,0.92,0.33,-0.09,-1.92,-7.2,0.25
2024-12-06 12:45:34.607,76.72,728.0,0.92,0.33,-0.09,-2.22,-6.34,0.74
2024-12-06 12:45:34.616,71.32,702.0,0.9,0.32,-0.09,-2.53,-5.61,0.8
2024-12-06 12:45:34.625,74.47,711.0,0.9,0.32,-0.09,-3.07,-4.21,0.01
2024-12-06 12:45:34.637,69.75,709.0,0.89,0.33,-0.1,-3.2,-2.5,-0.91
2024-12-06 12:45:34.641,72.45,708.0,0.88,0.34,-0.11,-3.2,-2.5,-0.91
2024-12-06 12:45:34.645,74.7,699.0,0.88,0.34,-0.11,-2.53,-1.77,-1.52
2024-12-06 12:45:34.654,72.22,688.0,0.89,0.33,-0.12,-1.61,-1.83,-2.13
2024-12-06 12:45:34.661,72.22,687.0,0.91,0.33,-0.12,-1.0,-2.07,-2.61
2024-12-06 12:45:34.670,74.7,685.0,0.91,0.33,-0.12,-0.82,-2.38,-3.04
2024-12-06 12:45:34.678,74.92,694.0,0.93,0.31,-0.12,-0.94,-2.62,-3.47
2024-12-06 12:45:34.684,75.38,694.0,0.94,0.31,-0.12,-0.94,-2.62,-3.47
2024-12-06 12:45:34.705,72.9,705.0,0.94,0.33,-0.12,-1.06,-2.68,-3.9
2024-12-06 12:45:34.712,72.45,690.0,0.93,0.36,-0.12,-1.0,-2.86,-4.75
2024-12-06 12:45:34.719,72.22,688.0,0.93,0.36,-0.12,-0.63,-3.17,-4.75
2024-12-06 12:45:34.728,77.17,682.0,0.92,0.36,-0.12,-0.63,-3.17,-4.75
2024-12-06 12:45:34.744,72.9,677.0,0.92,0.35,-0.11,-0.39,-3.29,-4.45
2024-12-06 12:45:34.756,76.28,678.0,0.93,0.34,-0.11,-1.12,-3.78,-2.0
2024-12-06 12:45:34.764,75.38,711.0,0.93,0.35,-0.11,-1.49,-3.29,-1.21
2024-12-06 12:45:34.772,76.72,695.0,0.93,0.36,-0.1,-1.49,-3.29,-1.21
2024-12-06 12:45:34.780,77.62,709.0,0.92,0.37,-0.09,-1.61,-2.5,-0.78
2024-12-06 12:45:34.785,74.7,694.0,0.91,0.38,-0.09,-1.49,-1.52,-0.6
2024-12-06 12:45:34.792,74.92,688.0,0.9,0.38,-0.09,-1.24,-0.48,-0.78
2024-12-06 12:45:34.854,74.25,682.0,0.9,0.38,-0.09,-1.0,-0.12,-0.97
2024-12-06 12:45:34.856,72.22,657.0,0.92,0.36,-0.1,-0.69,-0.24,-1.76
2024-12-06 12:45:34.866,74.25,660.0,0.92,0.37,-0.11,-0.33,-0.3,-1.94
2024-12-06 12:45:34.880,73.35,656.0,0.91,0.38,-0.11,0.1,-0.3,-2.06
2024-12-06 12:45:34.888,74.47,679.0,0.91,0.38,-0.11,0.4,-0.42,-1.88
2024-12-06 12:45:34.890,76.95,677.0,0.91,0.38,-0.11,0.53,-0.48,-1.58
2024-12-06 12:45:34.894,77.17,664.0,0.92,0.38,-0.11,0.53,-0.48,-1.58
2024-12-06 12:45:34.902,74.92,665.0,0.92,0.37,-0.11,0.65,-0.42,-0.97
2024-12-06 12:45:34.914,75.15,663.0,0.93,0.37,-0.12,0.77,-0.97,-0.11
2024-12-06 12:45:34.917,75.38,662.0,0.93,0.36,-0.12,0.71,-1.22,0.5
2024-12-06 12:45:34.925,67.05,661.0,0.93,0.36,-0.11,0.4,-1.09,0.74
2024-12-06 12:45:34.932,74.92,666.0,0.93,0.36,-0.11,0.28,-0.91,0.74
2024-12-06 12:45:34.941,74.47,652.0,0.92,0.36,-0.1,0.28,-0.91,0.74
2024-12-06 12:45:34.952,72.45,659.0,0.9,0.37,-0.1,0.22,-0.61,0.38
2024-12-06 12:45:34.955,74.03,660.0,0.89,0.38,-0.1,0.28,-0.12,-0.17
2024-12-06 12:45:34.963,74.7,666.0,0.89,0.38,-0.11,0.4,0.13,-0.6
2024-12-06 12:45:34.971,77.17,654.0,0.89,0.37,-0.11,0.65,0.13,-0.84
2024-12-06 12:45:34.985,69.3,666.0,0.9,0.37,-0.11,0.71,0.0,-0.91
2024-12-06 12:45:34.998,69.53,652.0,0.91,0.35,-0.11,0.47,-0.24,-0.97
2024-12-06 12:45:35.11,71.1,646.0,0.91,0.34,-0.11,0.16,-0.42,-1.03
2024-12-06 12:45:35.55,75.82,649.0,0.91,0.36,-0.1,0.16,1.16,-1.27
2024-12-06 12:45:35.82,77.17,642.0,0.92,0.35,-0.11,-0.02,0.62,-1.39
2024-12-06 12:45:35.85,76.95,650.0,0.92,0.36,-0.11,-0.08,0.43,-1.45
2024-12-06 12:45:35.93,77.4,639.0,0.92,0.36,-0.11,-0.02,0.13,-1.7
2024-12-06 12:45:35.107,77.17,647.0,0.92,0.36,-0.1,-0.02,0.25,-1.88
2024-12-06 12:45:35.115,75.15,644.0,0.92,0.37,-0.1,-0.02,0.25,-1.88
2024-12-06 12:45:35.118,77.4,636.0,0.92,0.37,-0.1,0.1,0.49,-2.0
2024-12-06 12:45:35.125,75.15,653.0,0.92,0.37,-0.1,0.28,0.31,-1.88
2024-12-06 12:45:35.133,72.67,646.0,0.92,0.36,-0.11,0.47,0.25,-1.52
2024-12-06 12:45:35.202,74.03,658.0,0.92,0.36,-0.11,0.47,0.0,-1.21
2024-12-06 12:45:35.298,70.88,648.0,0.91,0.37,-0.11,0.34,1.23,-2.19
2024-12-06 12:45:35.306,72.67,648.0,0.92,0.36,-0.1,0.28,1.04,-2.13
2024-12-06 12:45:35.314,76.28,631.0,0.92,0.36,-0.1,0.22,0.86,-2.06
2024-12-06 12:45:35.330,72.45,647.0,0.92,0.37,-0.1,0.22,0.68,-1.94
2024-12-06 12:45:35.333,75.38,634.0,0.91,0.37,-0.1,0.28,0.49,-2.06
2024-12-06 12:45:35.343,74.47,650.0,0.91,0.37,-0.1,0.16,0.68,-2.31
2024-12-06 12:45:35.372,76.5,624.0,0.9,0.38,-0.1,0.16,1.35,-2.55
2024-12-06 12:45:35.375,71.32,642.0,0.9,0.38,-0.1,0.1,1.23,-2.68
2024-12-06 12:45:35.383,75.38,632.0,0.91,0.37,-0.1,0.1,1.23,-2.68
2024-12-06 12:45:35.393,72.9,648.0,0.91,0.36,-0.11,-0.02,1.29,-2.61
2024-12-06 12:45:35.400,76.05,620.0,0.91,0.36,-0.11,-0.02,0.92,-2.55
2024-12-06 12:45:35.409,77.4,630.0,0.92,0.36,-0.1,0.04,0.74,-2.49
2024-12-06 12:45:35.421,77.17,626.0,0.92,0.36,-0.1,0.16,0.43,-2.37
2024-12-06 12:45:35.425,67.5,631.0,0.92,0.36,-0.1,0.16,0.37,-2.25
2024-12-06 12:45:35.431,74.7,632.0,0.92,0.37,-0.1,0.16,0.37,-2.25
2024-12-06 12:45:35.440,77.85,636.0,0.92,0.37,-0.1,0.1,0.25,-2.06
2024-12-06 12:45:35.447,74.03,648.0,0.92,0.37,-0.1,-0.15,0.13,-2.0
2024-12-06 12:45:35.490,72.0,639.0,0.91,0.37,-0.1,-0.33,0.25,-1.94
2024-12-06 12:45:35.494,77.85,630.0,0.92,0.36,-0.1,-0.39,0.31,-1.94
2024-12-06 12:45:35.499,76.95,626.0,0.92,0.36,-0.11,-0.27,0.37,-1.88
2024-12-06 12:45:35.507,75.15,640.0,0.92,0.36,-0.11,-0.15,0.07,-1.7
2024-12-06 12:45:35.517,77.4,630.0,0.92,0.37,-0.11,-0.15,0.07,-1.7
2024-12-06 12:45:35.523,75.6,624.0,0.92,0.38,-0.11,-0.27,0.0,-1.52
2024-12-06 12:45:35.531,72.22,652.0,0.92,0.38,-0.1,-0.27,-0.12,-1.27
2024-12-06 12:45:35.539,77.62,625.0,0.92,0.38,-0.1,-0.08,-0.36,-1.03
2024-12-06 12:45:35.547,75.6,625.0,0.91,0.38,-0.1,-0.02,-0.54,-0.97
2024-12-06 12:45:35.555,75.15,638.0,0.91,0.38,-0.1,-0.02,-0.48,-1.03
2024-12-06 12:45:35.563,72.9,625.0,0.91,0.38,-0.1,-0.02,-0.48,-1.15
2024-12-06 12:45:35.570,74.47,619.0,0.91,0.37,-0.1,-0.02,-0.42,-1.15
2024-12-06 12:45:35.583,73.57,627.0,0.91,0.37,-0.1,0.04,-0.48,-1.09
2024-12-06 12:45:35.594,71.78,640.0,0.91,0.37,-0.1,0.1,-0.54,-1.21
2024-12-06 12:45:35.597,72.67,633.0,0.91,0.37,-0.1,0.16,-0.61,-1.33
2024-12-06 12:45:35.606,74.47,634.0,0.91,0.37,-0.1,0.22,-0.67,-1.39
2024-12-06 12:45:35.615,76.05,661.0,0.91,0.37,-0.1,0.22,-0.67,-1.39
2024-12-06 12:45:35.630,74.7,634.0,0.91,0.37,-0.1,0.28,-0.85,-1.52
2024-12-06 12:45:35.640,70.2,627.0,0.91,0.38,-0.1,0.28,-1.03,-2.0
2024-12-06 12:45:35.672,75.15,621.0,0.91,0.38,-0.1,0.34,-1.34,-2.19
2024-12-06 12:45:35.700,71.78,617.0,0.9,0.38,-0.11,0.65,-1.34,-2.61
2024-12-06 12:45:35.707,74.47,629.0,0.9,0.38,-0.11,0.95,-0.79,-2.92
2024-12-06 12:45:35.713,77.4,603.0,0.9,0.38,-0.11,1.01,-0.79,-2.92
2024-12-06 12:45:35.717,71.78,620.0,0.9,0.38,-0.1,0.95,-0.42,-2.98
2024-12-06 12:45:35.725,77.4,634.0,0.9,0.38,-0.1,0.89,-0.18,-2.98
2024-12-06 12:45:35.746,72.67,619.0,0.9,0.38,-0.11,0.95,-0.06,-2.68
2024-12-06 12:45:35.749,78.53,625.0,0.9,0.37,-0.11,0.95,0.25,-2.43
2024-12-06 12:45:35.770,74.47,629.0,0.9,0.36,-0.11,0.89,0.37,-2.37
2024-12-06 12:45:35.773,74.7,623.0,0.9,0.36,-0.11,0.71,0.55,-2.37
2024-12-06 12:45:35.779,72.45,616.0,0.91,0.36,-0.11,0.71,0.55,-2.37
2024-12-06 12:45:35.788,72.9,627.0,0.91,0.37,-0.11,0.71,0.43,-2.49
2024-12-06 12:45:35.812,76.28,645.0,0.91,0.37,-0.1,0.28,0.31,-3.1
2024-12-06 12:45:35.817,75.38,609.0,0.91,0.37,-0.1,0.28,0.31,-3.1
2024-12-06 12:45:35.827,74.47,623.0,0.91,0.37,-0.1,0.04,0.37,-3.35
2024-12-06 12:45:35.843,77.17,631.0,0.91,0.37,-0.1,0.04,0.37,-3.35
2024-12-06 12:45:35.850,77.17,620.0,0.92,0.38,-0.1,0.04,0.25,-3.22
2024-12-06 12:45:35.854,75.6,605.0,0.92,0.38,-0.11,-0.02,0.25,-2.98
2024-12-06 12:45:35.863,74.7,608.0,0.92,0.37,-0.11,-0.08,0.07,-2.8
2024-12-06 12:45:35.866,71.1,618.0,0.91,0.37,-0.11,-0.08,0.07,-2.8
2024-12-06 12:45:35.875,74.92,606.0,0.91,0.37,-0.11,-0.33,0.0,-2.55
2024-12-06 12:45:35.882,76.28,610.0,0.91,0.36,-0.11,-0.57,-0.18,-2.37
2024-12-06 12:45:35.895,77.4,621.0,0.9,0.37,-0.11,-0.82,-0.18,-2.13
2024-12-06 12:45:35.907,74.92,616.0,0.9,0.37,-0.11,-1.0,-0.24,-2.0
2024-12-06 12:45:35.931,71.1,613.0,0.9,0.39,-0.1,-1.0,0.13,-2.06
2024-12-06 12:45:35.934,77.62,597.0,0.9,0.39,-0.1,-1.0,0.68,-2.31
2024-12-06 12:45:35.941,71.32,605.0,0.89,0.39,-0.1,-0.94,1.23,-2.49
2024-12-06 12:45:35.952,72.0,590.0,0.89,0.39,-0.11,-0.94,1.23,-2.49
2024-12-06 12:45:35.958,72.9,603.0,0.9,0.39,-0.11,-0.69,1.47,-2.55
2024-12-06 12:45:35.966,71.1,592.0,0.9,0.38,-0.11,-0.63,0.98,-2.43
2024-12-06 12:45:35.977,69.97,607.0,0.91,0.37,-0.1,-0.69,0.13,-2.31
2024-12-06 12:45:35.986,70.2,592.0,0.91,0.36,-0.1,-0.76,0.37,-2.31
2024-12-06 12:45:35.989,72.9,618.0,0.91,0.36,-0.1,-0.63,0.13,-2.49
2024-12-06 12:45:36.1,71.55,617.0,0.91,0.37,-0.1,-0.63,0.13,-2.68
2024-12-06 12:45:36.9,69.3,604.0,0.91,0.38,-0.1,-0.39,-0.06,-2.68
2024-12-06 12:45:36.12,71.1,599.0,0.91,0.39,-0.1,-0.21,-0.12,-2.92
2024-12-06 12:45:36.26,75.82,602.0,0.91,0.4,-0.1,-0.08,-0.24,-3.04
2024-12-06 12:45:36.29,71.55,589.0,0.9,0.4,-0.09,-0.08,-0.3,-3.16
2024-12-06 12:45:36.36,73.12,594.0,0.9,0.4,-0.09,-0.27,-0.18,-3.29
2024-12-06 12:45:36.44,76.05,599.0,0.89,0.4,-0.09,-0.27,-0.18,-3.41
2024-12-06 12:45:36.52,71.1,596.0,0.89,0.4,-0.1,-0.39,-0.12,-3.41
2024-12-06 12:45:36.66,73.35,595.0,0.9,0.4,-0.1,-0.45,0.0,-3.35
2024-12-06 12:45:36.68,74.47,600.0,0.9,0.4,-0.1,-0.33,0.19,-3.29
2024-12-06 12:45:36.76,72.0,633.0,0.9,0.4,-0.1,-0.15,0.49,-3.1
2024-12-06 12:45:36.106,74.25,592.0,0.9,0.4,-0.11,0.34,0.86,-2.74
2024-12-06 12:45:36.112,75.15,598.0,0.9,0.4,-0.11,0.47,1.04,-2.74
2024-12-06 12:45:36.114,74.7,605.0,0.9,0.39,-0.12,0.53,0.74,-2.86
2024-12-06 12:45:36.123,75.6,613.0,0.91,0.39,-0.12,0.65,0.68,-2.8
2024-12-06 12:45:36.153,71.55,636.0,0.9,0.38,-0.1,1.01,0.55,-3.1
2024-12-06 12:45:36.156,77.4,605.0,0.89,0.39,-0.1,0.95,0.86,-3.47
2024-12-06 12:45:36.161,72.45,598.0,0.88,0.39,-0.09,0.95,1.23,-3.96
2024-12-06 12:45:36.179,74.92,590.0,0.88,0.39,-0.09,0.89,1.23,-4.38
2024-12-06 12:45:36.182,71.55,606.0,0.88,0.4,-0.08,0.89,1.23,-4.69
2024-12-06 12:45:36.185,74.92,596.0,0.88,0.39,-0.08,0.71,1.47,-4.69
2024-12-06 12:45:36.193,71.32,603.0,0.88,0.39,-0.08,0.34,1.9,-5.06
2024-12-06 12:45:36.201,73.57,603.0,0.88,0.4,-0.09,0.22,1.9,-5.36
2024-12-06 12:45:36.208,71.1,601.0,0.87,0.4,-0.09,-0.08,1.77,-5.6
2024-12-06 12:45:36.219,70.88,601.0,0.87,0.4,-0.09,-0.51,2.08,-5.85
2024-12-06 12:45:36.224,68.17,599.0,0.88,0.42,-0.09,-0.82,2.63,-5.48
2024-12-06 12:45:36.237,74.25,607.0,0.9,0.42,-0.1,-0.82,2.63,-5.48
2024-12-06 12:45:36.347,73.57,606.0,0.9,0.4,-0.1,-0.08,0.68,-4.57
2024-12-06 12:45:36.377,76.28,604.0,0.91,0.41,-0.09,-0.15,1.77,-2.31
2024-12-06 12:45:36.385,75.38,599.0,0.92,0.41,-0.1,-0.15,2.02,-1.58
2024-12-06 12:45:36.393,72.0,599.0,0.92,0.4,-0.1,-0.15,2.02,-1.58
2024-12-06 12:45:36.402,72.0,616.0,0.93,0.39,-0.09,-0.27,1.96,-0.97
2024-12-06 12:45:36.408,72.22,590.0,0.94,0.39,-0.09,-0.21,1.71,-0.54
2024-12-06 12:45:36.418,70.42,600.0,0.94,0.4,-0.1,-0.21,1.41,-0.23
2024-12-06 12:45:36.428,75.82,588.0,0.94,0.4,-0.1,-0.08,0.86,-0.11
2024-12-06 12:45:36.432,73.57,588.0,0.94,0.4,-0.1,0.16,0.07,-0.11
2024-12-06 12:45:36.439,72.0,582.0,0.94,0.4,-0.1,0.16,0.07,-0.11
2024-12-06 12:45:36.449,71.32,589.0,0.93,0.4,-0.09,0.34,-0.67,-0.42
2024-12-06 12:45:36.456,69.53,577.0,0.93,0.39,-0.09,0.22,-1.22,-0.78
2024-12-06 12:45:36.478,74.25,578.0,0.92,0.39,-0.08,0.1,-1.52,-1.21
2024-12-06 12:45:36.486,77.62,577.0,0.91,0.39,-0.08,0.04,-1.34,-1.88
2024-12-06 12:45:36.506,71.1,584.0,0.9,0.38,-0.08,0.1,-1.34,-1.88
2024-12-06 12:45:36.521,73.57,579.0,0.88,0.38,-0.1,0.4,0.13,-2.31
2024-12-06 12:45:36.524,75.15,583.0,0.88,0.39,-0.1,0.4,0.8,-2.31
2024-12-06 12:45:36.531,74.7,588.0,0.88,0.39,-0.1,0.47,1.35,-2.06
2024-12-06 12:45:36.543,74.47,582.0,0.88,0.4,-0.1,0.34,1.71,-1.76
2024-12-06 12:45:36.554,72.45,575.0,0.89,0.4,-0.1,0.04,2.08,-1.45
2024-12-06 12:45:36.557,74.92,607.0,0.89,0.4,-0.1,-0.27,2.69,-1.21
2024-12-06 12:45:36.562,74.47,594.0,0.89,0.4,-0.09,-0.27,2.69,-1.21
2024-12-06 12:45:36.572,70.88,578.0,0.89,0.4,-0.09,-0.21,3.24,-1.15
2024-12-06 12:45:36.605,74.25,581.0,0.91,0.39,-0.07,0.4,3.97,-1.88
2024-12-06 12:45:36.608,74.7,571.0,0.92,0.38,-0.07,0.59,3.73,-1.88
2024-12-06 12:45:36.616,72.67,584.0,0.93,0.39,-0.08,0.47,3.54,-2.31
2024-12-06 12:45:36.626,74.47,577.0,0.93,0.4,-0.09,0.34,3.06,-2.49
2024-12-06 12:45:36.635,76.28,563.0,0.93,0.4,-0.09,0.34,2.26,-2.92
2024-12-06 12:45:36.642,74.92,558.0,0.92,0.4,-0.09,0.59,1.96,-3.35
2024-12-06 12:45:36.647,75.15,546.0,0.92,0.4,-0.09,0.59,1.96,-3.35
2024-12-06 12:45:36.657,74.92,555.0,0.92,0.4,-0.1,1.01,1.59,-3.53
2024-12-06 12:45:36.667,73.57,538.0,0.92,0.4,-0.1,1.56,1.41,-3.47
2024-12-06 12:45:36.686,72.45,544.0,0.91,0.4,-0.1,2.48,1.53,-3.16
2024-12-06 12:45:36.695,74.47,551.0,0.91,0.41,-0.1,2.78,1.59,-2.8
2024-12-06 12:45:36.702,75.15,535.0,0.9,0.41,-0.09,3.03,1.59,-2.37
2024-12-06 12:45:36.710,74.47,511.0,0.9,0.41,-0.09,3.21,1.71,-2.19
2024-12-06 12:45:36.717,75.6,535.0,0.9,0.41,-0.09,3.33,1.84,-2.19
2024-12-06 12:45:36.741,70.88,522.0,0.89,0.41,-0.09,3.46,1.71,-2.19
2024-12-06 12:45:36.744,74.92,509.0,0.9,0.42,-0.09,3.64,1.77,-2.06
2024-12-06 12:45:36.752,74.92,546.0,0.9,0.42,-0.09,3.94,1.65,-1.94
2024-12-06 12:45:36.760,70.65,526.0,0.9,0.42,-0.09,4.13,1.53,-1.76
2024-12-06 12:45:36.767,75.15,519.0,0.9,0.42,-0.09,4.37,1.35,-1.7
2024-12-06 12:45:36.779,71.32,537.0,0.9,0.41,-0.09,4.43,0.92,-1.76
2024-12-06 12:45:36.784,75.15,513.0,0.9,0.41,-0.09,4.43,0.92,-1.76
2024-12-06 12:45:36.788,72.0,565.0,0.89,0.41,-0.09,4.43,0.86,-1.94
2024-12-06 12:45:36.798,71.55,522.0,0.89,0.42,-0.09,4.49,0.86,-2.13
2024-12-06 12:45:36.804,72.22,510.0,0.9,0.42,-0.08,4.62,0.86,-2.31
2024-12-06 12:45:36.816,77.62,518.0,0.9,0.42,-0.08,4.86,0.86,-2.49
2024-12-06 12:45:36.820,74.7,520.0,0.89,0.41,-0.08,4.86,0.86,-2.49
2024-12-06 12:45:36.832,74.25,507.0,0.89,0.41,-0.08,5.16,0.68,-2.86
2024-12-06 12:45:36.842,76.28,512.0,0.89,0.41,-0.09,5.35,0.74,-3.16
2024-12-06 12:45:36.844,74.92,519.0,0.89,0.41,-0.08,5.35,0.86,-3.53
2024-12-06 12:45:36.975,74.7,523.0,0.89,0.41,-0.08,5.35,0.49,-3.71
2024-12-06 12:45:36.986,74.03,502.0,0.89,0.39,-0.09,6.45,8.79,-4.69
2024-12-06 12:45:37.5,74.25,508.0,0.9,0.39,-0.11,4.43,7.08,-5.42
2024-12-06 12:45:37.10,73.8,466.0,0.92,0.43,-0.11,4.43,7.08,-4.99
2024-12-06 12:45:37.21,74.7,507.0,0.93,0.46,-0.08,3.39,5.8,-4.99
2024-12-06 12:45:37.24,74.03,485.0,0.91,0.48,-0.07,2.91,5.19,-4.75
2024-12-06 12:45:37.58,73.35,485.0,0.89,0.48,-0.08,2.72,5.99,-4.51
2024-12-06 12:45:37.64,70.42,509.0,0.89,0.45,-0.1,3.15,7.7,-3.04
2024-12-06 12:45:37.74,71.78,484.0,0.9,0.45,-0.1,3.09,8.0,-1.45
2024-12-06 12:45:37.76,71.32,497.0,0.9,0.46,-0.09,2.91,7.45,0.74
2024-12-06 12:45:37.79,70.2,485.0,0.88,0.46,-0.09,2.66,6.78,2.94
2024-12-06 12:45:37.86,67.05,479.0,0.88,0.46,-0.09,2.42,9.59,4.22
2024-12-06 12:45:37.95,70.42,490.0,0.87,0.44,-0.11,1.69,13.62,4.95
2024-12-06 12:45:37.101,68.62,483.0,0.88,0.46,-0.09,1.69,13.62,4.95
2024-12-06 12:45:37.115,69.3,468.0,0.88,0.46,-0.08,0.53,15.14,5.69
2024-12-06 12:45:37.118,66.15,480.0,0.88,0.43,-0.1,0.16,15.2,5.99
2024-12-06 12:45:37.123,63.0,483.0,0.9,0.43,-0.1,0.47,15.69,6.42
2024-12-06 12:45:37.133,65.47,502.0,0.9,0.43,-0.1,1.26,12.76,7.52
2024-12-06 12:45:37.141,64.8,484.0,0.91,0.41,-0.08,1.93,10.38,7.88
2024-12-06 12:45:37.150,60.75,482.0,0.91,0.39,-0.08,1.93,10.38,7.88
2024-12-06 12:45:37.159,66.82,483.0,0.94,0.41,-0.08,2.54,9.59,8.25
2024-12-06 12:45:37.166,64.8,479.0,0.93,0.42,-0.09,2.85,8.43,9.04
2024-12-06 12:45:37.178,58.5,487.0,0.93,0.39,-0.07,2.85,8.49,8.92
2024-12-06 12:45:37.184,62.77,479.0,0.93,0.39,-0.04,2.97,6.54,8.98
2024-12-06 12:45:37.186,59.85,487.0,0.94,0.4,-0.05,2.91,4.09,8.49
2024-12-06 12:45:37.195,59.17,483.0,0.92,0.38,-0.08,2.91,4.09,8.49
2024-12-06 12:45:37.204,61.42,493.0,0.91,0.38,-0.08,3.03,5.38,7.4
2024-12-06 12:45:37.217,58.72,515.0,0.92,0.38,-0.03,3.21,3.12,7.33
2024-12-06 12:45:37.222,59.85,485.0,0.9,0.36,-0.05,3.52,1.47,6.54
2024-12-06 12:45:37.226,55.12,494.0,0.9,0.36,-0.05,3.33,4.77,5.93
2024-12-06 12:45:37.233,53.77,497.0,0.91,0.37,-0.05,3.94,2.93,6.85
2024-12-06 12:45:37.292,55.8,483.0,0.89,0.37,-0.04,3.76,3.79,6.97
2024-12-06 12:45:37.397,55.12,475.0,0.92,0.41,-0.04,2.91,4.22,6.91
2024-12-06 12:45:37.403,46.12,458.0,0.95,0.38,-0.02,3.94,2.81,5.44
2024-12-06 12:45:37.409,45.45,463.0,0.96,0.39,-0.03,4.19,1.23,6.3
2024-12-06 12:45:37.428,44.55,463.0,0.96,0.39,-0.03,4.13,0.49,6.54
2024-12-06 12:45:37.434,42.3,485.0,0.9,0.35,-0.04,3.82,1.35,5.32
2024-12-06 12:45:37.437,42.97,457.0,0.92,0.35,-0.04,3.7,1.41,4.59
2024-12-06 12:45:37.445,45.22,466.0,0.95,0.37,-0.04,3.52,0.62,5.08
2024-12-06 12:45:37.453,42.75,468.0,0.95,0.37,-0.05,3.46,-0.3,6.24
2024-12-06 12:45:37.462,36.45,463.0,0.94,0.37,-0.05,3.52,-1.03,6.11
2024-12-06 12:45:37.469,40.95,485.0,0.91,0.35,-0.06,3.52,-1.03,6.11
2024-12-06 12:45:37.477,39.6,485.0,0.91,0.35,-0.05,2.85,0.19,5.44
2024-12-06 12:45:37.512,40.05,471.0,0.94,0.37,-0.03,2.24,0.62,5.99
2024-12-06 12:45:37.516,39.83,476.0,0.89,0.37,-0.06,1.14,1.41,5.75
2024-12-06 12:45:37.524,35.33,474.0,0.91,0.39,-0.05,1.01,1.59,5.87
2024-12-06 12:45:37.539,37.35,478.0,0.9,0.38,-0.06,1.38,0.19,6.3
2024-12-06 12:45:37.544,36.22,487.0,0.88,0.36,-0.07,1.5,0.8,5.56
2024-12-06 12:45:37.554,36.22,486.0,0.9,0.37,-0.05,0.34,0.25,5.38
2024-12-06 12:45:37.562,32.4,469.0,0.92,0.39,-0.02,0.34,0.25,5.38
2024-12-06 12:45:37.570,34.65,459.0,0.89,0.37,-0.04,-0.08,-1.22,5.32
2024-12-06 12:45:37.584,35.33,478.0,0.89,0.37,-0.06,-0.82,1.23,4.65
2024-12-06 12:45:37.587,32.85,459.0,0.92,0.36,-0.02,-0.76,1.41,5.02
2024-12-06 12:45:37.594,31.95,472.0,0.92,0.36,-0.05,-1.24,-1.28,5.93
2024-12-06 12:45:37.603,32.17,460.0,0.91,0.37,-0.04,-1.85,2.69,5.81
2024-12-06 12:45:37.616,33.52,487.0,0.9,0.37,-0.06,-1.85,2.69,5.81
2024-12-06 12:45:37.624,30.82,463.0,0.94,0.36,-0.03,-1.92,2.2,6.05
2024-12-06 12:45:37.627,31.95,479.0,0.94,0.36,-0.02,-1.73,0.49,7.27
2024-12-06 12:45:37.635,26.1,471.0,0.9,0.32,-0.04,-2.16,-0.79,6.66
2024-12-06 12:45:37.643,29.7,470.0,0.92,0.33,-0.03,-2.89,1.59,5.14
2024-12-06 12:45:37.651,27.67,469.0,0.92,0.33,-0.03,-3.44,-0.79,5.75
2024-12-06 12:45:37.658,28.35,494.0,0.95,0.35,-0.0,-3.44,-0.79,5.99
2024-12-06 12:45:37.672,23.85,484.0,0.92,0.34,-0.07,-2.71,-1.4,5.99
2024-12-06 12:45:37.674,25.88,476.0,0.93,0.34,-0.09,-2.22,3.48,5.08
2024-12-06 12:45:37.682,27.0,498.0,0.98,0.36,-0.05,-1.12,1.96,5.99
2024-12-06 12:45:37.690,22.27,476.0,0.95,0.34,-0.05,-0.45,-0.91,7.03
2024-12-06 12:45:37.733,24.97,478.0,0.9,0.31,-0.06,-0.39,0.19,3.67
2024-12-06 12:45:37.736,23.85,477.0,0.92,0.33,-0.07,-0.39,-2.01,3.86
2024-12-06 12:45:37.738,21.38,488.0,0.92,0.33,-0.07,-1.0,1.47,3.25
2024-12-06 12:45:37.744,21.38,496.0,0.94,0.33,-0.06,-0.57,-1.03,4.28
2024-12-06 12:45:37.752,22.5,499.0,0.96,0.33,-0.03,-0.57,-1.03,4.28
2024-12-06 12:45:37.759,19.8,499.0,0.93,0.31,-0.06,-1.06,-2.25,4.4
2024-12-06 12:45:37.773,15.75,495.0,0.92,0.31,-0.06,-1.98,0.19,3.31
2024-12-06 12:45:37.776,14.4,506.0,0.95,0.32,-0.03,-2.4,-0.67,3.73
2024-12-06 12:45:37.785,17.55,480.0,0.95,0.32,-0.05,-2.95,-3.41,4.1
2024-12-06 12:45:37.801,17.77,493.0,0.91,0.32,-0.05,-3.56,-1.09,2.76
2024-12-06 12:45:37.814,13.05,495.0,0.88,0.32,-0.08,-3.56,-1.09,2.76
2024-12-06 12:45:37.817,16.2,489.0,0.92,0.34,-0.06,-3.62,-1.28,3.25
2024-12-06 12:45:37.821,15.52,501.0,0.87,0.31,-0.11,-3.38,0.74,2.21
2024-12-06 12:45:37.832,13.72,500.0,0.87,0.31,-0.11,-2.83,4.34,0.62
2024-12-06 12:45:37.840,8.77,503.0,0.89,0.32,-0.1,-2.83,2.08,0.99
2024-12-06 12:45:37.846,10.12,492.0,0.93,0.32,-0.05,-1.98,2.08,0.99
2024-12-06 12:45:37.853,14.4,481.0,0.91,0.3,-0.06,-1.92,0.49,1.17
2024-12-06 12:45:37.865,9.22,504.0,0.9,0.29,-0.05,-2.22,2.14,-0.05
2024-12-06 12:45:37.874,5.62,484.0,0.93,0.3,-0.04,-2.04,1.84,-0.36
2024-12-06 12:45:37.877,8.77,498.0,0.93,0.3,-0.04,-2.04,0.25,-0.29
2024-12-06 12:45:37.888,6.97,484.0,0.92,0.32,-0.04,-2.04,0.25,-1.21
2024-12-06 12:45:37.892,11.02,493.0,0.89,0.33,-0.05,-2.34,-0.42,-1.21
2024-12-06 12:45:37.900,10.8,484.0,0.89,0.34,-0.05,-2.53,-0.18,-2.37
2024-12-06 12:45:37.908,9.45,497.0,0.91,0.35,-0.04,-2.53,-0.3,-2.68
2024-12-06 12:45:37.927,11.7,484.0,0.93,0.36,-0.05,-2.46,-0.79,-2.43
2024-12-06 12:45:37.931,7.88,499.0,0.93,0.36,-0.05,-2.59,-0.3,-1.88
2024-12-06 12:45:37.964,10.57,479.0,0.92,0.36,-0.06,-2.89,-1.89,-3.16
2024-12-06 12:45:37.969,6.3,495.0,0.94,0.37,-0.04,-2.89,-1.89,-3.16
2024-12-06 12:45:37.978,6.75,494.0,0.94,0.37,-0.03,-3.2,-3.72,-2.98
2024-12-06 12:45:37.987,7.88,487.0,0.93,0.36,-0.03,-3.5,-3.47,-3.35
2024-12-06 12:45:37.995,4.28,500.0,0.95,0.36,-0.02,-3.75,-2.99,-3.04
2024-12-06 12:45:38.0,0.45,480.0,0.95,0.36,-0.04,-3.07,-3.11,-2.37
2024-12-06 12:45:38.12,1.35,480.0,0.95,0.36,-0.04,-2.4,-2.56,-2.0
2024-12-06 12:45:38.24,5.17,474.0,0.94,0.36,-0.06,-2.4,-2.56,-2.0
2024-12-06 12:45:38.26,6.97,474.0,0.93,0.35,-0.03,-2.04,-2.62,-2.25
2024-12-06 12:45:38.32,3.15,482.0,0.91,0.34,-0.02,-1.85,-3.66,-3.04
2024-12-06 12:45:38.40,1.12,457.0,0.88,0.32,-0.04,-1.73,-2.99,-4.81
2024-12-06 12:45:38.47,6.52,484.0,0.88,0.32,-0.04,-1.49,-1.15,-6.64
2024-12-06 12:45:38.56,2.02,481.0,0.88,0.33,-0.05,-0.94,-0.3,-7.25
2024-12-06 12:45:38.63,1.12,475.0,0.89,0.34,-0.05,-0.94,-0.3,-7.25
2024-12-06 12:45:38.71,5.62,481.0,0.91,0.36,-0.06,-0.45,-0.3,-6.76
2024-12-06 12:45:38.79,0.9,475.0,0.92,0.36,-0.06,-0.02,1.04,-5.54
2024-12-06 12:45:38.88,0.67,483.0,0.91,0.35,-0.05,-0.02,0.98,-4.93
2024-12-06 12:45:38.103,2.7,479.0,0.91,0.35,-0.05,-0.15,2.69,-4.26
2024-12-06 12:45:38.106,3.38,489.0,0.91,0.35,-0.05,-0.33,1.35,-3.9
2024-12-06 12:45:38.116,4.05,482.0,0.92,0.36,-0.07,-0.33,1.35,-3.9
2024-12-06 12:45:38.120,3.15,492.0,0.93,0.36,-0.08,-1.12,2.69,-3.41
2024-12-06 12:45:38.126,-2.47,477.0,0.92,0.36,-0.07,-1.3,0.13,-3.16
2024-12-06 12:45:38.135,1.57,498.0,0.9,0.35,-0.08,-1.67,-0.48,-4.14
2024-12-06 12:45:38.143,3.82,489.0,0.92,0.35,-0.06,-1.73,-0.18,-5.18
2024-12-06 12:45:38.150,4.95,480.0,0.92,0.35,-0.06,-1.43,-1.09,-5.6
2024-12-06 12:45:38.193,6.3,503.0,0.94,0.36,-0.05,-1.18,-1.15,-5.73
2024-12-06 12:45:38.195,5.17,494.0,0.91,0.35,-0.02,-0.33,-1.34,-7.99
2024-12-06 12:45:38.198,3.6,531.0,0.89,0.34,-0.02,-0.33,-0.48,-9.02
2024-12-06 12:45:38.205,4.5,478.0,0.89,0.34,-0.04,-0.08,-0.48,-9.02
2024-12-06 12:45:38.220,1.12,490.0,0.92,0.36,-0.06,0.77,1.59,-9.08
2024-12-06 12:45:38.222,4.05,471.0,0.94,0.37,-0.05,1.5,1.1,-7.62
2024-12-06 12:45:38.228,4.95,478.0,0.93,0.36,-0.04,1.56,-1.09,-6.46
2024-12-06 12:45:38.274,1.8,473.0,0.92,0.35,-0.07,0.22,-0.97,-7.68
2024-12-06 12:45:38.276,3.6,482.0,0.92,0.35,-0.07,-0.08,-1.09,-6.83
2024-12-06 12:45:38.280,5.62,484.0,0.94,0.36,-0.06,-0.08,-1.09,-6.83
2024-12-06 12:45:38.288,2.47,480.0,0.94,0.36,-0.05,-0.33,-1.34,-5.73
2024-12-06 12:45:38.296,5.17,504.0,0.94,0.36,-0.04,-0.82,-0.85,-4.69
2024-12-06 12:45:38.304,2.02,486.0,0.93,0.36,-0.04,-1.06,-0.67,-4.32
2024-12-06 12:45:38.313,4.05,495.0,0.93,0.36,-0.05,-0.82,0.49,-4.38
2024-12-06 12:45:38.321,5.62,479.0,0.93,0.36,-0.05,-0.82,0.74,-4.63
2024-12-06 12:45:38.434,4.72,483.0,0.9,0.36,-0.04,-0.82,0.0,-6.34
2024-12-06 12:45:38.443,5.17,475.0,0.9,0.38,-0.04,-1.73,-2.13,-5.48
2024-12-06 12:45:38.455,3.38,497.0,0.9,0.39,-0.05,-1.61,-1.28,-5.73
2024-12-06 12:45:38.458,3.38,498.0,0.91,0.4,-0.05,-1.3,-0.24,-5.36
2024-12-06 12:45:38.465,4.95,482.0,0.92,0.4,-0.05,-0.94,-0.06,-4.75
2024-12-06 12:45:38.471,6.3,480.0,0.92,0.4,-0.05,-0.69,0.37,-4.45
2024-12-06 12:45:38.479,3.82,483.0,0.92,0.38,-0.05,-0.69,0.37,-4.45
2024-12-06 12:45:38.489,4.28,497.0,0.92,0.37,-0.05,-0.63,0.19,-4.51
2024-12-06 12:45:38.497,7.42,487.0,0.91,0.37,-0.05,-0.76,0.0,-5.18
2024-12-06 12:45:38.502,1.12,489.0,0.91,0.38,-0.06,-0.88,0.49,-5.85
2024-12-06 12:45:38.514,4.05,509.0,0.9,0.39,-0.06,-1.06,-0.06,-6.22
2024-12-06 12:45:38.522,4.72,484.0,0.9,0.39,-0.06,-1.3,-0.54,-6.46
2024-12-06 12:45:38.636,3.82,475.0,0.9,0.38,-0.05,-1.3,-0.54,-6.46
2024-12-06 12:45:38.692,2.02,503.0,0.89,0.35,-0.01,-1.92,-1.34,-4.51
2024-12-06 12:45:38.702,2.7,490.0,0.89,0.34,0.0,-2.4,-1.52,-6.09
2024-12-06 12:45:38.708,6.07,485.0,0.89,0.34,0.0,-2.59,-1.34,-7.07
2024-12-06 12:45:38.714,0.9,486.0,0.91,0.35,-0.02,-2.59,-1.34,-7.07
2024-12-06 12:45:38.723,5.62,484.0,0.96,0.38,-0.04,-2.28,-0.61,-6.64
2024-12-06 12:45:38.733,2.92,488.0,0.97,0.39,-0.05,-1.18,-0.36,-4.69
2024-12-06 12:45:38.740,6.97,497.0,0.94,0.4,-0.06,-0.94,-0.67,-3.04
2024-12-06 12:45:38.747,3.6,502.0,0.91,0.4,-0.05,-1.06,0.55,-2.92
2024-12-06 12:45:38.811,4.28,500.0,0.9,0.39,-0.06,-0.33,0.0,-4.45
2024-12-06 12:45:38.813,5.85,482.0,0.9,0.4,-0.06,0.04,0.31,-4.51
2024-12-06 12:45:38.824,2.47,489.0,0.9,0.4,-0.05,0.28,0.8,-4.14
2024-12-06 12:45:38.864,4.28,480.0,0.91,0.4,-0.05,0.47,0.92,-3.77
2024-12-06 12:45:38.887,3.82,477.0,0.89,0.4,-0.04,-0.15,1.35,-4.69
2024-12-06 12:45:38.891,2.02,504.0,0.93,0.4,-0.04,-0.57,1.1,-4.08
2024-12-06 12:45:38.897,4.28,484.0,0.93,0.4,-0.05,-0.76,0.98,-3.41
2024-12-06 12:45:38.906,2.92,486.0,0.94,0.4,-0.05,-0.76,0.86,-2.86
2024-12-06 12:45:38.912,1.12,492.0,0.93,0.39,-0.05,-0.76,0.86,-2.86
2024-12-06 12:45:38.931,4.05,483.0,0.93,0.4,-0.05,-0.57,0.49,-2.61
2024-12-06 12:45:38.939,3.82,477.0,0.9,0.4,-0.08,-0.08,0.49,-2.74
2024-12-06 12:45:38.945,3.15,497.0,0.92,0.41,-0.05,-0.82,-0.85,-2.8
2024-12-06 12:45:38.952,5.85,487.0,0.94,0.4,0.0,-0.94,-2.07,-2.37
2024-12-06 12:45:38.960,2.92,494.0,0.92,0.4,-0.03,-0.94,-2.07,-2.37
2024-12-06 12:45:38.968,3.82,481.0,0.9,0.39,-0.05,-0.76,0.68,-2.43
2024-12-06 12:45:38.975,4.72,480.0,0.9,0.39,-0.03,-0.57,-0.79,-2.68
2024-12-06 12:45:38.983,2.25,473.0,0.9,0.39,-0.05,-0.63,-0.73,-2.86
2024-12-06 12:45:38.990,4.5,503.0,0.9,0.39,-0.05,-0.33,0.74,-2.86
2024-12-06 12:45:38.998,0.67,488.0,0.9,0.39,-0.04,0.04,0.86,-2.43
2024-12-06 12:45:39.10,0.67,484.0,0.91,0.41,-0.03,0.04,0.86,-2.43
2024-12-06 12:45:39.15,2.47,518.0,0.91,0.41,-0.04,-0.08,1.47,-1.82
2024-12-06 12:45:39.22,-4.72,490.0,0.91,0.41,-0.05,-0.08,1.71,-1.21
2024-12-06 12:45:39.29,1.35,480.0,0.91,0.41,-0.05,-0.21,1.65,-0.97
2024-12-06 12:45:39.37,7.2,478.0,0.91,0.41,-0.05,-0.33,1.41,-1.03
2024-12-06 12:45:39.144,4.5,496.0,0.91,0.41,-0.04,-0.69,0.62,-2.13
2024-12-06 12:45:39.149,2.47,488.0,0.91,0.4,-0.04,-0.88,0.74,-1.82
2024-12-06 12:45:39.157,2.25,506.0,0.92,0.4,-0.04,-0.88,0.74,-1.82
2024-12-06 12:45:39.167,4.28,482.0,0.91,0.4,-0.03,-0.88,0.13,-1.7
2024-12-06 12:45:39.185,2.7,500.0,0.9,0.4,-0.04,-1.06,-0.06,-1.76
2024-12-06 12:45:39.188,1.35,482.0,0.89,0.4,-0.03,-1.37,-0.54,-2.25
2024-12-06 12:45:39.191,4.72,481.0,0.89,0.4,-0.03,-1.67,-0.73,-3.47
2024-12-06 12:45:39.197,6.07,513.0,0.87,0.41,-0.03,-1.67,-0.24,-4.75
2024-12-06 12:45:39.205,4.28,488.0,0.86,0.41,-0.03,-1.67,-0.24,-4.75
2024-12-06 12:45:39.235,6.3,500.0,0.88,0.43,-0.04,-1.79,-0.12,-5.97
2024-12-06 12:45:39.237,6.52,503.0,0.89,0.44,-0.05,-1.98,0.25,-5.54
2024-12-06 12:45:39.244,4.72,483.0,0.89,0.43,-0.03,-1.98,0.25,-5.54
2024-12-06 12:45:39.253,6.3,486.0,0.88,0.41,-0.02,-2.46,0.19,-5.79
2024-12-06 12:45:39.261,1.35,494.0,0.87,0.4,-0.04,-2.46,0.19,-6.52
2024-12-06 12:45:39.270,5.85,489.0,0.87,0.39,-0.05,-2.34,0.07,-7.5
2024-12-06 12:45:39.277,0.0,487.0,0.87,0.39,-0.05,-2.16,-0.85,-8.11
2024-12-06 12:45:39.285,4.5,484.0,0.88,0.4,-0.05,-2.04,-0.67,-8.41
2024-12-06 12:45:39.326,2.02,486.0,0.87,0.44,-0.08,-0.69,1.35,-9.39
2024-12-06 12:45:39.328,4.05,487.0,0.89,0.44,-0.08,0.4,2.14,-9.45
2024-12-06 12:45:39.336,4.28,477.0,0.92,0.45,-0.07,0.53,2.39,-8.53
2024-12-06 12:45:39.348,2.25,485.0,0.93,0.44,-0.07,1.08,2.45,-6.95
2024-12-06 12:45:39.352,5.85,488.0,0.94,0.43,-0.07,1.5,3.73,-5.06
2024-12-06 12:45:39.365,4.05,494.0,0.94,0.43,-0.04,1.81,3.73,-3.16
2024-12-06 12:45:39.367,2.02,505.0,0.95,0.44,-0.05,1.87,2.75,-1.64
2024-12-06 12:45:39.375,4.72,489.0,0.95,0.44,-0.06,1.87,2.75,-1.64
2024-12-06 12:45:39.386,4.28,502.0,0.95,0.45,-0.06,1.62,2.87,-0.78
2024-12-06 12:45:39.498,3.6,492.0,0.86,0.41,-0.04,-0.39,0.74,-0.91
2024-12-06 12:45:39.504,0.45,490.0,0.87,0.41,-0.04,-0.57,0.8,-0.97
2024-12-06 12:45:39.511,4.95,481.0,0.87,0.41,-0.04,-0.69,0.98,-1.09
2024-12-06 12:45:39.551,2.25,498.0,0.9,0.43,-0.03,-0.39,0.98,-1.82
2024-12-06 12:45:39.559,-0.22,487.0,0.9,0.43,-0.04,-0.39,0.98,-1.82
2024-12-06 12:45:39.564,6.75,502.0,0.9,0.44,-0.04,-0.27,1.16,-2.19
2024-12-06 12:45:39.570,6.75,505.0,0.92,0.44,-0.03,-0.39,1.35,-2.19
2024-12-06 12:45:39.578,4.95,501.0,0.93,0.45,-0.02,-0.39,0.92,-1.58
2024-12-06 12:45:39.588,4.05,492.0,0.93,0.45,-0.03,-0.39,0.74,-0.91
2024-12-06 12:45:39.597,5.17,485.0,0.92,0.45,-0.03,-0.51,0.49,-0.66
2024-12-06 12:45:39.604,4.5,492.0,0.91,0.45,-0.04,-0.51,0.49,-0.66
2024-12-06 12:45:39.609,4.28,497.0,0.9,0.44,-0.04,-0.57,-0.06,-0.54
2024-12-06 12:45:39.619,4.05,488.0,0.9,0.43,-0.04,-0.39,-0.54,-0.66
2024-12-06 12:45:39.627,6.75,484.0,0.9,0.43,-0.04,-0.15,-0.61,-0.72
2024-12-06 12:45:39.636,3.82,484.0,0.93,0.43,-0.04,0.16,-0.61,-0.54
2024-12-06 12:45:39.650,1.35,487.0,0.91,0.43,-0.04,0.65,-0.67,-0.17
2024-12-06 12:45:39.659,3.15,486.0,0.9,0.43,-0.04,1.14,-0.54,0.13
2024-12-06 12:45:39.668,1.12,499.0,0.9,0.43,-0.04,1.5,-0.3,0.13
2024-12-06 12:45:39.676,2.47,489.0,0.89,0.43,-0.04,1.69,-0.12,0.01
2024-12-06 12:45:39.682,-2.02,487.0,0.9,0.43,-0.04,1.69,0.13,-0.11
2024-12-06 12:45:39.692,4.95,492.0,0.9,0.43,-0.04,1.5,0.07,-0.11
2024-12-06 12:45:39.699,1.57,486.0,0.9,0.43,-0.03,1.5,0.07,-0.11
2024-12-06 12:45:39.704,3.6,539.0,0.9,0.43,-0.03,1.2,-0.12,-0.05
2024-12-06 12:45:39.713,2.25,497.0,0.89,0.42,-0.03,0.89,-0.48,-0.11
2024-12-06 12:45:39.722,1.8,482.0,0.89,0.41,-0.03,0.65,-0.54,-0.29
2024-12-06 12:45:39.731,3.15,487.0,0.89,0.41,-0.03,0.53,-0.48,-0.42
2024-12-06 12:45:39.771,3.82,499.0,0.89,0.41,-0.03,0.47,-0.36,-0.42
2024-12-06 12:45:39.773,4.5,483.0,0.9,0.43,-0.05,1.56,0.74,0.86
2024-12-06 12:45:39.781,2.47,495.0,0.9,0.44,-0.05,1.56,0.74,0.86
2024-12-06 12:45:39.788,2.25,477.0,0.9,0.44,-0.05,1.62,1.23,1.11
2024-12-06 12:45:39.796,0.9,514.0,0.9,0.43,-0.04,1.56,1.41,1.29
2024-12-06 12:45:39.804,4.05,491.0,0.9,0.43,-0.05,1.56,1.23,1.41
2024-12-06 12:45:39.812,4.5,485.0,0.9,0.43,-0.05,1.5,1.47,1.54
2024-12-06 12:45:39.820,6.07,488.0,0.9,0.43,-0.05,1.38,1.47,1.78
2024-12-06 12:45:39.828,2.25,488.0,0.91,0.44,-0.04,1.38,1.47,1.78
2024-12-06 12:45:39.836,0.22,495.0,0.9,0.44,-0.04,1.38,0.92,2.02
2024-12-06 12:45:39.844,4.5,484.0,0.9,0.43,-0.04,1.44,1.23,1.96
2024-12-06 12:45:39.858,0.9,483.0,0.89,0.42,-0.04,1.5,1.23,1.78
2024-12-06 12:45:39.861,4.28,481.0,0.89,0.42,-0.04,1.56,1.1,1.66
2024-12-06 12:45:39.866,4.5,481.0,0.89,0.42,-0.04,1.44,1.35,1.72
2024-12-06 12:45:39.875,-2.47,474.0,0.9,0.42,-0.04,1.44,1.35,1.72
2024-12-06 12:45:39.885,-0.22,477.0,0.9,0.42,-0.03,1.38,1.71,1.96
2024-12-06 12:45:39.894,-1.57,504.0,0.9,0.42,-0.02,1.44,1.35,2.51
2024-12-06 12:45:39.899,-0.9,491.0,0.89,0.41,-0.03,1.32,1.1,2.7
2024-12-06 12:45:39.906,4.05,500.0,0.89,0.41,-0.03,1.38,0.92,2.27
2024-12-06 12:45:39.917,2.25,482.0,0.88,0.41,-0.04,1.38,0.98,1.6
2024-12-06 12:45:39.921,-0.67,510.0,0.88,0.4,-0.04,1.38,0.98,1.6
2024-12-06 12:45:39.931,2.02,483.0,0.88,0.4,-0.03,1.38,1.04,1.05
2024-12-06 12:45:39.937,3.15,489.0,0.89,0.41,-0.03,1.26,0.49,0.8
2024-12-06 12:45:39.948,2.47,475.0,0.89,0.41,-0.04,1.2,0.62,0.8
2024-12-06 12:45:39.957,2.25,499.0,0.89,0.41,-0.04,1.14,0.86,0.99
2024-12-06 12:45:39.961,5.62,472.0,0.89,0.42,-0.04,1.08,1.35,1.29
2024-12-06 12:45:39.969,3.6,498.0,0.9,0.42,-0.04,1.08,1.35,1.29
2024-12-06 12:45:39.979,6.52,483.0,0.91,0.42,-0.04,1.08,2.02,1.84
2024-12-06 12:45:39.988,5.85,481.0,0.91,0.42,-0.04,1.26,1.96,2.51
2024-12-06 12:45:40.19,-0.22,483.0,0.89,0.4,-0.05,1.81,1.96,2.33
2024-12-06 12:45:40.22,4.5,473.0,0.91,0.41,-0.04,1.69,2.39,2.45
2024-12-06 12:45:40.29,2.02,492.0,0.91,0.41,-0.04,1.93,1.35,3.06
2024-12-06 12:45:40.38,6.97,504.0,0.92,0.42,-0.04,1.93,1.23,3.49
2024-12-06 12:45:40.51,4.05,477.0,0.9,0.42,-0.05,1.93,1.23,3.49
2024-12-06 12:45:40.53,4.72,486.0,0.89,0.43,-0.05,1.99,1.77,3.49
2024-12-06 12:45:40.60,4.05,484.0,0.9,0.42,-0.04,1.99,1.59,3.43
2024-12-06 12:45:40.70,4.72,475.0,0.9,0.42,-0.03,1.75,1.77,3.55
2024-12-06 12:45:40.85,0.9,477.0,0.9,0.42,-0.04,1.75,1.9,3.79
2024-12-06 12:45:40.92,4.05,493.0,0.9,0.42,-0.05,1.75,1.9,3.79
2024-12-06 12:45:40.108,4.95,480.0,0.89,0.42,-0.05,1.81,1.65,3.67
2024-12-06 12:45:40.116,2.25,479.0,0.89,0.41,-0.04,1.93,1.71,3.49
2024-12-06 12:45:40.122,6.3,484.0,0.9,0.41,-0.04,2.11,1.9,3.73
2024-12-06 12:45:40.143,2.92,474.0,0.9,0.41,-0.04,2.11,1.9,3.73
2024-12-06 12:45:40.145,2.7,478.0,0.91,0.41,-0.02,1.62,2.57,4.47
2024-12-06 12:45:40.152,6.52,484.0,0.92,0.42,-0.02,1.56,2.69,5.32
2024-12-06 12:45:40.161,2.92,475.0,0.92,0.42,-0.02,1.69,2.51,6.18
2024-12-06 12:45:40.175,6.52,452.0,0.92,0.42,-0.03,1.69,2.51,6.42
2024-12-06 12:45:40.177,4.95,477.0,0.91,0.42,-0.03,1.38,2.32,6.42
2024-12-06 12:45:40.184,4.72,472.0,0.91,0.41,-0.03,1.14,2.26,6.36
2024-12-06 12:45:40.219,4.5,467.0,0.91,0.41,-0.04,1.01,2.26,5.93
2024-12-06 12:45:40.222,1.12,477.0,0.92,0.42,-0.04,0.95,2.51,6.24
2024-12-06 12:45:40.230,-0.67,492.0,0.92,0.41,-0.03,1.01,1.53,6.79
2024-12-06 12:45:40.238,-1.12,485.0,0.92,0.41,-0.05,1.2,1.41,7.09
2024-12-06 12:45:40.245,4.5,477.0,0.92,0.41,-0.05,1.2,1.29,7.15
2024-12-06 12:45:40.255,4.5,484.0,0.92,0.41,-0.04,1.2,1.29,7.15
2024-12-06 12:45:40.261,5.4,475.0,0.92,0.4,-0.03,0.89,0.74,7.15
2024-12-06 12:45:40.273,6.97,495.0,0.93,0.41,-0.03,0.65,0.74,7.7
2024-12-06 12:45:40.277,4.72,475.0,0.94,0.41,-0.02,0.59,0.55,8.68
2024-12-06 12:45:40.286,5.17,474.0,0.93,0.41,-0.02,0.53,0.43,9.59
2024-12-06 12:45:40.293,6.97,484.0,0.93,0.41,-0.02,0.59,1.16,10.26
2024-12-06 12:45:40.308,4.95,479.0,0.93,0.42,-0.03,0.83,1.29,10.63
2024-12-06 12:45:40.310,0.45,492.0,0.93,0.42,-0.03,0.83,1.29,10.63
2024-12-06 12:45:40.324,3.82,483.0,0.93,0.41,-0.03,1.32,1.9,10.75
2024-12-06 12:45:40.344,2.02,483.0,0.93,0.4,-0.03,1.69,2.02,10.63
2024-12-06 12:45:40.346,3.82,472.0,0.93,0.39,-0.03,2.11,2.02,10.08
2024-12-06 12:45:40.353,0.67,500.0,0.93,0.38,-0.03,2.11,2.02,10.08
2024-12-06 12:45:40.356,2.92,490.0,0.94,0.37,-0.03,2.3,1.47,10.08
2024-12-06 12:45:40.362,6.3,481.0,0.94,0.36,-0.03,2.54,0.74,10.2
2024-12-06 12:45:40.378,4.72,496.0,0.94,0.35,-0.04,2.6,0.49,10.14
2024-12-06 12:45:40.386,4.95,460.0,0.94,0.35,-0.04,2.72,0.13,10.26
2024-12-06 12:45:40.389,1.57,492.0,0.93,0.36,-0.03,2.72,-0.06,10.14
2024-12-06 12:45:40.396,4.5,485.0,0.92,0.37,-0.03,2.72,-0.06,10.14
2024-12-06 12:45:40.402,2.7,479.0,0.91,0.38,-0.04,2.85,0.55,10.02
2024-12-06 12:45:40.409,4.28,493.0,0.89,0.38,-0.03,3.03,1.04,9.65
2024-12-06 12:45:40.446,8.1,478.0,0.86,0.34,-0.04,3.7,3.24,4.16
2024-12-06 12:45:40.449,8.55,487.0,0.87,0.34,-0.01,4.07,1.71,3.31
2024-12-06 12:45:40.456,7.42,497.0,0.87,0.34,-0.03,3.82,1.77,2.21
2024-12-06 12:45:40.585,20.02,513.0,0.88,0.35,-0.01,3.15,-1.09,-16.29
2024-12-06 12:45:40.593,22.05,486.0,0.9,0.36,0.0,3.82,-1.09,-16.29
2024-12-06 12:45:40.600,16.2,482.0,0.92,0.37,-0.02,2.11,2.87,-16.22
2024-12-06 12:45:40.614,23.85,487.0,0.91,0.39,-0.0,2.48,-1.09,-16.16
2024-12-06 12:45:40.617,24.75,481.0,0.91,0.38,-0.03,1.2,0.98,-16.65
2024-12-06 12:45:40.624,25.88,495.0,0.91,0.38,-0.03,0.71,0.49,-16.84
2024-12-06 12:45:40.640,18.0,481.0,0.91,0.39,-0.0,0.34,-1.64,-17.08
2024-12-06 12:45:40.669,24.97,493.0,0.92,0.38,-0.02,-1.3,-0.79,-17.51
2024-12-06 12:45:40.672,26.55,489.0,0.92,0.38,-0.02,-0.82,-4.15,-17.2
2024-12-06 12:45:40.686,24.52,484.0,0.91,0.38,-0.01,-0.82,-4.15,-17.2
2024-12-06 12:45:40.689,30.38,480.0,0.92,0.39,-0.02,-1.79,-1.52,-16.9
2024-12-06 12:45:40.693,23.85,488.0,0.91,0.4,-0.02,-1.3,-2.5,-16.77
2024-12-06 12:45:40.701,31.05,474.0,0.93,0.41,-0.02,-1.73,-1.46,-16.35
2024-12-06 12:45:40.709,31.95,472.0,0.93,0.41,-0.01,-1.92,-1.83,-15.49
2024-12-06 12:45:40.718,28.12,490.0,0.92,0.41,-0.01,-1.12,-2.74,-15.68
2024-12-06 12:45:40.731,35.33,483.0,0.91,0.4,-0.05,-1.12,-2.74,-15.68
2024-12-06 12:45:40.735,30.15,493.0,0.93,0.4,-0.03,-1.98,0.13,-15.31
2024-12-06 12:45:40.742,36.45,477.0,0.93,0.41,-0.02,-1.06,-3.9,-14.76
2024-12-06 12:45:40.750,32.62,482.0,0.94,0.42,-0.03,-2.28,-2.56,-13.84
2024-12-06 12:45:40.757,33.75,499.0,0.94,0.44,0.0,-2.83,-3.78,-12.68
2024-12-06 12:45:40.773,37.35,489.0,0.94,0.44,0.0,-2.83,-5.0,-12.2
2024-12-06 12:45:40.776,35.77,484.0,0.92,0.43,-0.02,-4.17,-2.8,-11.89
2024-12-06 12:45:40.781,39.15,484.0,0.92,0.44,-0.02,-4.17,-2.8,-11.89
2024-12-06 12:45:40.790,38.25,487.0,0.9,0.44,-0.0,-4.3,-6.46,-11.53
2024-12-06 12:45:40.798,36.9,508.0,0.89,0.42,-0.05,-4.84,-5.61,-11.95
2024-12-06 12:45:40.807,37.12,478.0,0.91,0.44,-0.03,-5.46,-4.02,-11.77
2024-12-06 12:45:40.822,40.5,481.0,0.91,0.44,-0.03,-5.03,-7.75,-10.73
2024-12-06 12:45:40.826,42.75,494.0,0.91,0.44,-0.03,-4.6,-5.43,-10.37
2024-12-06 12:45:40.828,42.75,488.0,0.9,0.43,-0.07,-4.6,-5.43,-10.37
2024-12-06 12:45:40.838,42.75,486.0,0.9,0.44,-0.03,-4.84,-5.31,-9.88
2024-12-06 12:45:40.846,43.88,493.0,0.89,0.43,-0.02,-4.72,-9.7,-9.08
2024-12-06 12:45:40.858,42.97,483.0,0.87,0.41,-0.06,-4.54,-7.14,-9.51
2024-12-06 12:45:40.861,45.45,497.0,0.88,0.43,-0.02,-5.21,-5.43,-9.88
2024-12-06 12:45:40.893,45.22,493.0,0.88,0.43,-0.02,-5.52,-7.56,-9.14
2024-12-06 12:45:40.910,42.75,485.0,0.88,0.46,-0.06,-5.33,-8.24,-8.96
2024-12-06 12:45:40.913,44.55,483.0,0.89,0.48,-0.05,-6.68,-6.53,-7.68
2024-12-06 12:45:40.916,48.6,497.0,0.87,0.48,-0.05,-6.68,-5.85,-7.99
2024-12-06 12:45:40.922,48.15,497.0,0.86,0.46,-0.05,-6.68,-5.85,-7.99
2024-12-06 12:45:40.934,44.77,487.0,0.88,0.47,-0.04,-7.04,-4.02,-8.05
2024-12-06 12:45:40.939,49.95,484.0,0.89,0.49,-0.05,-6.98,-4.45,-7.07
2024-12-06 12:45:40.946,49.72,491.0,0.87,0.47,-0.07,-6.49,-5.49,-6.52
2024-12-06 12:45:40.955,51.75,487.0,0.87,0.47,-0.07,-5.64,-4.27,-7.07
2024-12-06 12:45:40.961,52.88,487.0,0.88,0.46,-0.08,-4.97,-3.29,-6.89
2024-12-06 12:45:40.972,53.55,496.0,0.91,0.48,-0.06,-4.97,-3.29,-6.89
2024-12-06 12:45:40.979,53.1,511.0,0.91,0.48,-0.05,-4.36,-4.88,-6.15
2024-12-06 12:45:40.985,48.82,489.0,0.89,0.45,-0.04,-3.81,-5.92,-6.46
2024-12-06 12:45:40.994,52.65,514.0,0.9,0.45,-0.03,-4.05,-5.73,-7.25
2024-12-06 12:45:41.1,57.6,496.0,0.92,0.46,-0.02,-4.48,-6.46,-7.19
2024-12-06 12:45:41.10,55.8,499.0,0.92,0.46,-0.02,-4.6,-7.14,-6.83
2024-12-06 12:45:41.17,58.27,503.0,0.91,0.45,-0.04,-4.6,-7.14,-7.25
2024-12-06 12:45:41.30,52.65,496.0,0.9,0.44,-0.05,-4.11,-7.14,-7.25
2024-12-06 12:45:41.37,55.12,506.0,0.91,0.46,-0.03,-4.17,-7.14,-7.07
2024-12-06 12:45:41.41,54.45,526.0,0.9,0.48,-0.04,-3.99,-7.56,-6.22
2024-12-06 12:45:41.53,57.6,517.0,0.87,0.46,-0.04,-3.93,-6.77,-6.09
2024-12-06 12:45:41.81,59.17,510.0,0.87,0.51,-0.04,-4.97,-4.33,-4.93
2024-12-06 12:45:41.88,62.77,527.0,0.84,0.5,-0.06,-5.21,-3.66,-4.2
2024-12-06 12:45:41.104,61.2,551.0,0.83,0.47,-0.06,-5.27,-2.44,-4.45
2024-12-06 12:45:41.111,61.88,531.0,0.86,0.48,-0.07,-5.27,-2.44,-4.45
2024-12-06 12:45:41.120,61.2,523.0,0.87,0.49,-0.09,-5.03,-3.17,-3.53
2024-12-06 12:45:41.127,60.3,535.0,0.86,0.46,-0.1,-4.42,-4.33,-3.22
2024-12-06 12:45:41.135,61.2,534.0,0.86,0.44,-0.09,-3.87,-5.37,-3.96
2024-12-06 12:45:41.144,60.52,523.0,0.86,0.44,-0.07,-3.75,-5.18,-4.45
2024-12-06 12:45:41.151,64.35,529.0,0.88,0.46,-0.07,-3.44,-5.73,-4.32
2024-12-06 12:45:41.179,61.42,544.0,0.85,0.48,-0.05,-2.4,-5.49,-5.48
2024-12-06 12:45:41.181,63.9,549.0,0.87,0.49,-0.05,-1.98,-4.82,-5.97
2024-12-06 12:45:41.190,67.95,505.0,0.87,0.49,-0.05,-1.79,-4.88,-5.06
2024-12-06 12:45:41.198,66.82,541.0,0.89,0.52,-0.06,-1.85,-5.0,-3.71
2024-12-06 12:45:41.239,65.47,567.0,0.87,0.48,-0.06,-3.38,-4.45,-2.37
2024-12-06 12:45:41.247,67.5,617.0,0.89,0.5,-0.06,-3.38,-4.45,-2.37
2024-12-06 12:45:41.252,69.53,539.0,0.88,0.51,-0.07,-3.26,-4.45,-1.52
2024-12-06 12:45:41.263,69.3,556.0,0.86,0.51,-0.08,-2.59,-4.39,-0.91
2024-12-06 12:45:41.272,69.07,567.0,0.85,0.48,-0.07,-1.98,-4.39,-0.6
2024-12-06 12:45:41.276,67.05,546.0,0.85,0.48,-0.07,-1.67,-4.63,-1.58
2024-12-06 12:45:41.287,68.17,570.0,0.84,0.47,-0.06,-2.53,-4.94,-2.19
2024-12-06 12:45:41.293,67.5,577.0,0.87,0.48,-0.04,-2.53,-4.94,-1.27
2024-12-06 12:45:41.301,73.8,561.0,0.91,0.47,-0.04,-2.95,-4.94,-1.27
2024-12-06 12:45:41.308,72.9,564.0,0.91,0.45,-0.05,-2.53,-5.06,-0.23
2024-12-06 12:45:41.318,68.85,564.0,0.89,0.45,-0.05,-2.04,-5.31,0.13
2024-12-06 12:45:41.343,67.5,572.0,0.89,0.47,-0.06,-1.98,-4.82,0.38
2024-12-06 12:45:41.346,70.88,575.0,0.9,0.49,-0.06,-2.04,-4.08,1.29
2024-12-06 12:45:41.353,73.57,568.0,0.9,0.49,-0.05,-1.73,-4.27,2.39
2024-12-06 12:45:41.362,69.97,577.0,0.88,0.49,-0.06,-1.79,-3.9,3.25
2024-12-06 12:45:41.403,76.95,580.0,0.87,0.46,-0.07,-2.77,-3.05,3.73
2024-12-06 12:45:41.406,76.28,586.0,0.87,0.45,-0.07,-2.83,-3.23,3.86
2024-12-06 12:45:41.411,74.7,573.0,0.9,0.45,-0.07,-2.95,-3.29,4.04
2024-12-06 12:45:41.417,71.55,586.0,0.88,0.45,-0.07,-3.07,-3.47,4.34
2024-12-06 12:45:41.424,71.32,590.0,0.87,0.47,-0.06,-3.07,-3.47,4.34
2024-12-06 12:45:41.455,64.8,594.0,0.87,0.48,-0.06,-3.07,-3.35,4.4
2024-12-06 12:45:41.463,75.82,568.0,0.86,0.5,-0.07,-2.4,-2.56,4.16
2024-12-06 12:45:41.467,76.05,589.0,0.86,0.49,-0.07,-1.85,-2.74,3.92
2024-12-06 12:45:41.471,77.17,581.0,0.86,0.47,-0.07,-1.85,-2.74,3.92
2024-12-06 12:45:41.477,74.03,585.0,0.87,0.45,-0.08,-1.49,-2.92,3.49
2024-12-06 12:45:41.490,74.47,581.0,0.88,0.45,-0.08,-1.24,-3.41,3.25
2024-12-06 12:45:41.497,73.12,591.0,0.88,0.45,-0.09,-1.0,-4.39,3.06
2024-12-06 12:45:41.502,76.5,586.0,0.88,0.45,-0.09,-0.76,-5.24,2.82
2024-12-06 12:45:41.602,77.62,588.0,0.86,0.45,-0.08,0.95,-4.02,-0.54
2024-12-06 12:45:41.607,79.65,606.0,0.85,0.46,-0.08,0.77,-2.99,-0.29
2024-12-06 12:45:41.614,74.47,607.0,0.85,0.46,-0.08,0.83,-2.56,-0.05
2024-12-06 12:45:41.622,82.57,606.0,0.86,0.45,-0.07,0.71,-2.44,0.32
2024-12-06 12:45:41.632,80.32,596.0,0.86,0.45,-0.07,0.71,-2.44,0.32
2024-12-06 12:45:41.638,80.32,591.0,0.87,0.45,-0.08,0.28,-2.13,0.56
2024-12-06 12:45:41.652,77.62,596.0,0.87,0.45,-0.08,-0.08,-1.46,0.8
2024-12-06 12:45:41.683,77.85,618.0,0.87,0.44,-0.08,-0.51,-1.83,1.41
2024-12-06 12:45:41.687,81.67,621.0,0.88,0.44,-0.07,-0.88,-0.42,2.15
2024-12-06 12:45:41.695,83.03,609.0,0.89,0.45,-0.07,-1.12,0.19,2.45
2024-12-06 12:45:41.699,84.38,612.0,0.89,0.45,-0.07,-1.61,0.68,3.55
2024-12-06 12:45:41.710,76.05,588.0,0.9,0.48,-0.07,-1.61,0.8,4.65
2024-12-06 12:45:41.715,81.22,604.0,0.89,0.48,-0.07,-1.61,0.8,4.65
2024-12-06 12:45:41.733,76.05,602.0,0.88,0.45,-0.07,-1.49,1.16,5.32
2024-12-06 12:45:41.743,81.45,604.0,0.87,0.42,-0.08,-1.37,1.77,5.02
2024-12-06 12:45:41.745,80.55,604.0,0.87,0.41,-0.09,-1.37,2.32,4.4
2024-12-06 12:45:41.750,80.1,616.0,0.87,0.41,-0.09,-1.37,2.81,3.73
2024-12-06 12:45:41.757,77.17,609.0,0.87,0.41,-0.1,-1.12,3.18,3.06
2024-12-06 12:45:41.796,80.1,602.0,0.88,0.43,-0.09,-0.63,3.36,2.39
2024-12-06 12:45:41.800,80.32,602.0,0.89,0.44,-0.08,0.77,2.26,0.8
2024-12-06 12:45:41.807,78.75,624.0,0.89,0.44,-0.09,0.71,1.53,0.32
2024-12-06 12:45:41.812,83.92,605.0,0.89,0.45,-0.09,0.71,1.53,0.32
2024-12-06 12:45:41.818,78.97,618.0,0.88,0.45,-0.1,0.59,0.74,-0.05
2024-12-06 12:45:41.825,80.32,615.0,0.88,0.45,-0.1,0.53,0.13,-0.23
2024-12-06 12:45:41.833,83.03,611.0,0.88,0.46,-0.1,0.59,-0.67,-0.11
2024-12-06 12:45:41.844,77.85,603.0,0.88,0.46,-0.09,0.53,-1.34,0.07
2024-12-06 12:45:41.850,82.8,597.0,0.88,0.46,-0.09,0.47,-1.64,0.25
2024-12-06 12:45:41.861,82.12,602.0,0.88,0.45,-0.09,0.47,-1.64,0.25
2024-12-06 12:45:41.872,78.97,615.0,0.89,0.44,-0.08,0.4,-1.64,0.19
2024-12-06 12:45:41.879,82.57,618.0,0.89,0.44,-0.08,0.53,-1.28,0.07
2024-12-06 12:45:41.884,78.07,610.0,0.88,0.45,-0.08,0.77,-0.79,-0.11
2024-12-06 12:45:41.890,83.25,604.0,0.88,0.45,-0.08,1.01,0.07,-0.36
2024-12-06 12:45:41.902,78.97,623.0,0.88,0.45,-0.08,1.38,0.68,-0.54
2024-12-06 12:45:41.908,81.45,604.0,0.88,0.45,-0.08,1.75,0.86,-0.72
2024-12-06 12:45:41.913,79.2,621.0,0.88,0.45,-0.08,1.75,0.86,-0.72
2024-12-06 12:45:41.923,76.5,624.0,0.88,0.44,-0.09,1.87,0.62,-0.91
2024-12-06 12:45:41.934,78.97,607.0,0.89,0.43,-0.09,1.56,0.0,-1.27
2024-12-06 12:45:41.942,81.0,624.0,0.9,0.43,-0.09,1.14,-0.97,-1.64
2024-12-06 12:45:41.945,83.03,584.0,0.9,0.43,-0.09,0.83,-1.95,-2.06
2024-12-06 12:45:41.955,79.42,613.0,0.9,0.43,-0.09,0.77,-2.86,-2.55
2024-12-06 12:45:41.967,83.25,603.0,0.9,0.43,-0.08,0.77,-2.86,-2.55
2024-12-06 12:45:41.970,80.78,616.0,0.9,0.43,-0.08,0.89,-3.41,-3.1
2024-12-06 12:45:41.979,78.53,610.0,0.89,0.43,-0.07,0.89,-3.66,-3.59
2024-12-06 12:45:41.986,79.2,602.0,0.88,0.43,-0.07,0.77,-3.47,-4.02
2024-12-06 12:45:41.992,78.75,619.0,0.88,0.43,-0.07,0.77,-3.11,-4.26
2024-12-06 12:45:42.0,79.42,609.0,0.87,0.43,-0.08,0.71,-2.86,-4.2
2024-12-06 12:45:42.51,83.03,567.0,0.88,0.44,-0.08,-0.21,-0.61,-2.61
2024-12-06 12:45:42.53,77.62,596.0,0.88,0.44,-0.08,-0.33,0.07,-2.31
2024-12-06 12:45:42.61,80.78,608.0,0.88,0.44,-0.07,-0.45,-0.67,-2.19
2024-12-06 12:45:42.69,78.07,588.0,0.88,0.43,-0.08,-0.63,-0.73,-2.25
2024-12-06 12:45:42.78,78.75,588.0,0.88,0.43,-0.08,-0.76,-0.73,-2.31
2024-12-06 12:45:42.86,80.1,618.0,0.89,0.43,-0.09,-0.82,-1.15,-2.31
2024-12-06 12:45:42.97,80.1,589.0,0.89,0.44,-0.09,-0.82,-1.15,-2.31
2024-12-06 12:45:42.111,83.03,585.0,0.89,0.46,-0.09,-1.12,-0.91,-2.25
2024-12-06 12:45:42.116,83.03,600.0,0.88,0.46,-0.08,-0.94,-0.67,-2.13
2024-12-06 12:45:42.126,78.97,597.0,0.88,0.46,-0.08,-0.51,-0.12,-2.13
2024-12-06 12:45:42.132,80.32,607.0,0.88,0.46,-0.08,0.04,-0.24,-2.25
2024-12-06 12:45:42.140,83.03,599.0,0.87,0.46,-0.08,0.04,-0.24,-2.25
2024-12-06 12:45:42.149,78.07,605.0,0.87,0.45,-0.08,0.47,-0.12,-2.37
2024-12-06 12:45:42.155,79.88,592.0,0.87,0.44,-0.09,0.77,-0.24,-2.74
2024-12-06 12:45:42.163,83.7,590.0,0.87,0.45,-0.1,0.77,-0.06,-2.98
2024-12-06 12:45:42.171,82.8,609.0,0.87,0.45,-0.1,0.77,-0.36,-2.98
2024-12-06 12:45:42.180,77.85,583.0,0.88,0.46,-0.1,0.71,-0.67,-2.92
2024-12-06 12:45:42.191,82.35,600.0,0.88,0.47,-0.1,0.71,-0.67,-2.92
2024-12-06 12:45:42.194,78.97,587.0,0.87,0.47,-0.09,0.83,-1.03,-2.92
2024-12-06 12:45:42.203,78.3,588.0,0.87,0.48,-0.09,0.95,-1.03,-2.8
2024-12-06 12:45:42.210,82.35,598.0,0.87,0.48,-0.09,1.08,-0.73,-2.86
2024-12-06 12:45:42.221,81.9,595.0,0.87,0.48,-0.09,1.2,-0.91,-3.04
2024-12-06 12:45:42.254,80.78,597.0,0.87,0.44,-0.08,0.71,-1.22,-3.9
2024-12-06 12:45:42.256,80.55,606.0,0.87,0.44,-0.08,0.59,-1.4,-4.14
2024-12-06 12:45:42.264,78.07,593.0,0.87,0.43,-0.08,0.34,-1.46,-4.2
2024-12-06 12:45:42.273,78.53,597.0,0.88,0.43,-0.09,0.34,-1.46,-4.2
2024-12-06 12:45:42.280,78.75,600.0,0.87,0.44,-0.1,0.34,-2.01,-4.14
2024-12-06 12:45:42.292,78.07,594.0,0.86,0.45,-0.1,0.1,-2.44,-4.38
2024-12-06 12:45:42.298,77.17,598.0,0.86,0.46,-0.09,-0.27,-2.62,-4.63
2024-12-06 12:45:42.304,78.97,597.0,0.86,0.46,-0.09,-0.57,-2.68,-4.87
2024-12-06 12:45:42.314,83.7,597.0,0.86,0.46,-0.09,-0.82,-2.68,-4.99
2024-12-06 12:45:42.320,81.9,593.0,0.86,0.47,-0.08,-0.82,-2.68,-4.99
2024-12-06 12:45:42.330,80.55,607.0,0.87,0.48,-0.08,-1.06,-2.68,-4.99
2024-12-06 12:45:42.336,80.55,594.0,0.86,0.48,-0.08,-1.3,-2.38,-4.87
2024-12-06 12:45:42.345,79.2,601.0,0.86,0.47,-0.07,-1.55,-2.5,-4.69
2024-12-06 12:45:42.351,81.67,615.0,0.86,0.44,-0.07,-1.73,-2.25,-4.63
2024-12-06 12:45:42.359,81.67,590.0,0.86,0.46,-0.07,-1.98,-2.07,-4.63
2024-12-06 12:45:42.370,75.6,590.0,0.86,0.46,-0.08,-1.98,-2.07,-4.63
2024-12-06 12:45:42.375,81.0,595.0,0.86,0.45,-0.08,-2.22,-2.13,-4.63
2024-12-06 12:45:42.383,75.82,598.0,0.86,0.46,-0.09,-2.46,-1.89,-4.51
2024-12-06 12:45:42.391,82.35,620.0,0.87,0.46,-0.1,-2.46,-2.07,-4.26
2024-12-06 12:45:42.407,83.03,600.0,0.87,0.47,-0.1,-2.4,-2.13,-3.96
2024-12-06 12:45:42.409,81.22,588.0,0.87,0.47,-0.1,-2.4,-2.38,-3.77
2024-12-06 12:45:42.414,77.17,608.0,0.87,0.48,-0.1,-2.4,-2.38,-3.77
2024-12-06 12:45:42.423,80.55,585.0,0.87,0.48,-0.09,-2.4,-2.68,-3.71
2024-12-06 12:45:42.431,81.45,596.0,0.87,0.49,-0.09,-2.53,-2.74,-3.71
2024-12-06 12:45:42.445,81.45,594.0,0.87,0.49,-0.09,-2.46,-2.68,-3.77
2024-12-06 12:45:42.470,83.25,576.0,0.86,0.47,-0.09,-1.61,-2.25,-3.59
2024-12-06 12:45:42.476,76.05,595.0,0.86,0.46,-0.1,-1.3,-2.01,-3.65
2024-12-06 12:45:42.484,79.65,603.0,0.86,0.46,-0.1,-1.12,-1.89,-3.65
2024-12-06 12:45:42.492,83.47,582.0,0.86,0.46,-0.1,-1.06,-1.83,-3.53
2024-12-06 12:45:42.515,78.53,599.0,0.86,0.46,-0.1,-1.0,-1.7,-3.47
2024-12-06 12:45:42.519,79.65,592.0,0.85,0.48,-0.1,-1.06,-1.7,-3.59
2024-12-06 12:45:42.523,80.78,599.0,0.85,0.48,-0.09,-1.18,-1.46,-3.9
2024-12-06 12:45:42.532,81.0,597.0,0.85,0.48,-0.09,-1.24,-1.4,-4.2
2024-12-06 12:45:42.539,81.67,586.0,0.85,0.48,-0.09,-1.43,-1.09,-4.51
2024-12-06 12:45:42.547,83.25,598.0,0.85,0.49,-0.08,-1.43,-0.79,-4.63
2024-12-06 12:45:42.555,83.25,597.0,0.85,0.48,-0.08,-1.43,-0.79,-4.63
2024-12-06 12:45:42.697,77.4,587.0,0.85,0.52,-0.1,-1.43,-1.7,-2.43
2024-12-06 12:45:42.703,81.67,569.0,0.84,0.51,-0.1,-0.63,0.13,-2.55
2024-12-06 12:45:42.707,80.55,499.0,0.89,0.54,-0.07,-0.63,0.13,-2.55
2024-12-06 12:45:42.715,82.57,495.0,0.93,0.56,-0.06,-0.33,-3.72,0.25
2024-12-06 12:45:42.721,79.42,514.0,0.94,0.57,-0.05,-0.69,-10.37,4.04
2024-12-06 12:45:42.732,79.88,496.0,0.87,0.56,-0.06,-3.01,-18.55,5.5
2024-12-06 12:45:42.738,81.22,512.0,0.87,0.56,-0.06,-7.53,-15.93,3.61
2024-12-06 12:45:42.746,81.0,509.0,0.81,0.54,-0.09,-8.69,-12.81,0.62
2024-12-06 12:45:42.754,81.9,530.0,0.8,0.51,-0.1,-8.69,-12.81,0.62
2024-12-06 12:45:42.769,79.88,510.0,0.8,0.47,-0.13,-6.25,-8.17,-1.94
2024-12-06 12:45:42.780,82.57,493.0,0.82,0.45,-0.14,-1.55,-2.99,-3.35
2024-12-06 12:45:42.785,77.4,487.0,0.83,0.45,-0.14,2.85,3.24,-3.65
2024-12-06 12:45:42.789,82.57,546.0,0.83,0.45,-0.14,6.51,8.98,-3.35
2024-12-06 12:45:42.792,75.38,503.0,0.84,0.44,-0.12,9.13,10.08,-2.86
2024-12-06 12:45:42.802,78.97,476.0,0.83,0.45,-0.12,9.13,10.08,-2.86
2024-12-06 12:45:42.810,81.45,495.0,0.81,0.48,-0.16,9.19,12.09,-3.29
2024-12-06 12:45:42.822,81.0,485.0,0.8,0.48,-0.18,8.09,13.92,-4.51
2024-12-06 12:45:42.824,81.0,479.0,0.82,0.44,-0.19,7.91,13.07,-6.28
2024-12-06 12:45:42.838,77.4,497.0,0.82,0.42,-0.17,8.34,11.17,-7.37
2024-12-06 12:45:42.840,78.3,496.0,0.88,0.42,-0.17,8.64,7.76,-6.64
2024-12-06 12:45:42.848,80.32,482.0,0.95,0.43,-0.14,8.64,7.76,-6.64
2024-12-06 12:45:42.859,72.67,505.0,0.97,0.43,-0.12,8.64,5.56,-4.45
2024-12-06 12:45:42.864,70.42,500.0,0.93,0.44,-0.08,8.46,4.09,-2.8
2024-12-06 12:45:42.886,81.45,505.0,0.88,0.49,-0.04,4.43,1.84,-2.61
2024-12-06 12:45:42.903,80.55,492.0,0.87,0.55,-0.04,2.24,2.02,-1.21
2024-12-06 12:45:42.925,81.22,497.0,0.84,0.48,-0.06,0.83,4.58,2.76
2024-12-06 12:45:42.930,80.1,492.0,0.83,0.46,-0.08,0.95,4.22,3.61
2024-12-06 12:45:42.932,82.8,510.0,0.84,0.46,-0.1,0.95,4.22,3.61
2024-12-06 12:45:42.941,77.85,503.0,0.86,0.47,-0.1,1.01,3.67,4.77
2024-12-06 12:45:42.955,80.55,501.0,0.86,0.48,-0.1,0.95,3.67,5.2
2024-12-06 12:45:42.963,81.22,493.0,0.85,0.48,-0.11,1.08,3.3,4.53
2024-12-06 12:45:42.965,78.75,495.0,0.85,0.48,-0.11,1.32,3.36,3.06
2024-12-06 12:45:42.971,83.25,506.0,0.86,0.47,-0.11,1.32,3.36,3.06
2024-12-06 12:45:42.981,81.67,504.0,0.86,0.46,-0.12,1.99,2.87,1.23
2024-12-06 12:45:42.990,77.85,495.0,0.87,0.46,-0.12,2.72,2.02,-0.6
2024-12-06 12:45:43.5,81.45,496.0,0.87,0.46,-0.1,3.33,1.29,-2.19
2024-12-06 12:45:43.9,80.32,486.0,0.86,0.46,-0.09,3.52,0.62,-3.29
2024-12-06 12:45:43.14,80.78,501.0,0.86,0.46,-0.09,3.27,0.07,-3.77
2024-12-06 12:45:43.18,79.2,517.0,0.85,0.46,-0.09,3.27,0.07,-3.77
2024-12-06 12:45:43.26,81.0,514.0,0.85,0.47,-0.09,2.48,-0.18,-3.77
2024-12-06 12:45:43.35,79.2,499.0,0.84,0.48,-0.09,1.62,-0.24,-3.29
2024-12-06 12:45:43.47,81.0,500.0,0.84,0.49,-0.09,0.89,0.13,-2.37
2024-12-06 12:45:43.50,78.97,503.0,0.84,0.49,-0.09,0.53,1.1,-1.21
2024-12-06 12:45:43.57,82.8,501.0,0.85,0.48,-0.08,0.59,2.02,-0.05
2024-12-06 12:45:43.64,83.03,499.0,0.86,0.48,-0.09,0.59,2.02,-0.05
2024-12-06 12:45:43.72,81.22,504.0,0.87,0.48,-0.09,0.77,2.93,0.86
2024-12-06 12:45:43.80,84.15,499.0,0.88,0.48,-0.1,0.89,3.54,1.41
2024-12-06 12:45:43.92,81.67,491.0,0.89,0.48,-0.11,0.83,3.73,1.72
2024-12-06 12:45:43.101,80.32,492.0,0.89,0.48,-0.11,0.83,2.93,1.6
2024-12-06 12:45:43.105,78.75,497.0,0.88,0.48,-0.11,0.59,2.14,1.23
2024-12-06 12:45:43.112,84.82,496.0,0.88,0.48,-0.11,0.59,2.14,1.23
2024-12-06 12:45:43.123,79.42,504.0,0.88,0.49,-0.1,0.47,1.1,0.68
2024-12-06 12:45:43.132,77.62,504.0,0.88,0.48,-0.09,0.47,0.19,0.25
2024-12-06 12:45:43.135,77.62,506.0,0.88,0.48,-0.08,0.65,-0.73,0.07
2024-12-06 12:45:43.178,77.17,502.0,0.87,0.47,-0.08,0.71,-1.4,-0.6
2024-12-06 12:45:43.184,78.97,509.0,0.86,0.45,-0.07,0.83,-1.09,-0.6
2024-12-06 12:45:43.189,80.78,492.0,0.86,0.45,-0.07,0.71,-0.67,-0.36
2024-12-06 12:45:43.191,82.12,497.0,0.86,0.45,-0.07,0.47,-0.36,0.07
2024-12-06 12:45:43.200,81.22,501.0,0.86,0.45,-0.08,0.47,-0.36,0.07
2024-12-06 12:45:43.218,76.95,501.0,0.86,0.46,-0.08,0.22,0.0,0.5
2024-12-06 12:45:43.220,78.3,502.0,0.86,0.48,-0.08,-0.69,0.37,1.29
2024-12-06 12:45:43.237,77.85,491.0,0.86,0.48,-0.08,-1.24,0.31,1.6
2024-12-06 12:45:43.245,79.88,489.0,0.86,0.48,-0.08,-1.24,0.49,1.84
2024-12-06 12:45:43.253,78.53,508.0,0.86,0.48,-0.07,-1.73,0.49,1.84
2024-12-06 12:45:43.259,78.07,544.0,0.86,0.48,-0.07,-1.85,0.62,1.72
2024-12-06 12:45:43.264,81.67,510.0,0.86,0.48,-0.07,-1.92,0.49,1.35
2024-12-06 12:45:43.269,78.07,476.0,0.86,0.48,-0.07,-1.85,0.49,0.93
2024-12-06 12:45:43.274,80.78,503.0,0.86,0.48,-0.08,-1.67,0.0,0.5
2024-12-06 12:45:43.283,78.75,519.0,0.86,0.49,-0.08,-1.67,0.0,0.5
2024-12-06 12:45:43.289,80.55,508.0,0.87,0.49,-0.08,-1.49,-0.54,0.07
2024-12-06 12:45:43.301,83.03,514.0,0.87,0.49,-0.08,-1.43,-1.09,-0.48
2024-12-06 12:45:43.307,77.62,496.0,0.86,0.49,-0.08,-1.3,-1.83,-1.15
2024-12-06 12:45:43.315,81.0,533.0,0.86,0.49,-0.08,-1.0,-2.07,-1.82
2024-12-06 12:45:43.323,80.55,502.0,0.86,0.49,-0.09,-0.45,-2.38,-2.19
2024-12-06 12:45:43.329,73.8,520.0,0.86,0.49,-0.09,-0.45,-2.38,-2.19
2024-12-06 12:45:43.339,74.7,507.0,0.86,0.5,-0.09,0.1,-2.38,-2.37
2024-12-06 12:45:43.379,76.5,518.0,0.84,0.5,-0.08,1.38,-1.03,-2.68
2024-12-06 12:45:43.389,83.25,519.0,0.84,0.5,-0.09,1.5,-0.48,-2.55
2024-12-06 12:45:43.392,80.78,517.0,0.85,0.49,-0.09,1.69,-0.06,-2.13
2024-12-06 12:45:43.400,83.47,496.0,0.85,0.49,-0.09,1.93,0.31,-1.52
2024-12-06 12:45:43.407,83.7,520.0,0.86,0.49,-0.09,1.99,0.25,-0.91
2024-12-06 12:45:43.413,81.45,512.0,0.86,0.49,-0.1,1.99,0.25,-0.91
2024-12-06 12:45:43.421,80.1,521.0,0.87,0.49,-0.1,1.93,0.49,-0.42
2024-12-06 12:45:43.429,78.53,520.0,0.88,0.49,-0.1,1.87,0.43,-0.11
2024-12-06 12:45:43.445,82.8,524.0,0.89,0.49,-0.1,1.99,0.19,0.25
2024-12-06 12:45:43.453,80.78,511.0,0.89,0.49,-0.1,1.99,0.19,0.38
2024-12-06 12:45:43.467,77.85,504.0,0.89,0.49,-0.1,2.17,-0.18,0.38
2024-12-06 12:45:43.470,78.3,510.0,0.9,0.49,-0.1,2.36,-0.67,0.56
2024-12-06 12:45:43.476,81.0,503.0,0.89,0.48,-0.1,2.48,-1.28,0.68
2024-12-06 12:45:43.483,80.55,528.0,0.89,0.47,-0.1,2.54,-1.83,0.68
2024-12-06 12:45:43.492,79.65,523.0,0.89,0.47,-0.1,2.42,-2.44,0.56
2024-12-06 12:45:43.499,79.2,554.0,0.88,0.47,-0.1,2.42,-2.44,0.56
2024-12-06 12:45:43.511,80.78,509.0,0.87,0.47,-0.1,2.17,-2.74,0.44
2024-12-06 12:45:43.535,77.17,510.0,0.86,0.46,-0.1,1.93,-2.8,0.32
2024-12-06 12:45:43.539,80.78,519.0,0.84,0.47,-0.1,1.5,-1.95,0.93
2024-12-06 12:45:43.546,78.97,523.0,0.84,0.48,-0.1,1.5,-1.95,0.93
2024-12-06 12:45:43.554,78.53,502.0,0.83,0.48,-0.1,1.56,-1.52,1.17
2024-12-06 12:45:43.562,81.9,508.0,0.82,0.48,-0.1,1.5,-1.22,1.23
2024-12-06 12:45:43.570,83.25,528.0,0.82,0.47,-0.1,1.26,-0.91,1.11
2024-12-06 12:45:43.705,83.03,521.0,0.85,0.47,-0.1,1.38,-0.12,-2.49
2024-12-06 12:45:43.714,77.4,506.0,0.85,0.46,-0.1,1.26,0.13,-2.8
2024-12-06 12:45:43.723,75.6,513.0,0.85,0.46,-0.09,1.08,0.55,-3.04
2024-12-06 12:45:43.730,81.45,515.0,0.85,0.46,-0.09,0.95,0.92,-3.29
2024-12-06 12:45:43.739,81.0,521.0,0.85,0.46,-0.1,0.95,0.74,-3.47
2024-12-06 12:45:43.755,79.65,522.0,0.85,0.46,-0.1,0.77,0.92,-3.59
2024-12-06 12:45:43.758,83.25,508.0,0.85,0.46,-0.1,0.77,0.92,-3.59
2024-12-06 12:45:43.766,81.22,530.0,0.86,0.46,-0.11,0.65,0.74,-3.53
2024-12-06 12:45:43.772,80.55,510.0,0.87,0.47,-0.1,0.4,0.8,-3.22
2024-12-06 12:45:43.777,77.62,505.0,0.87,0.47,-0.1,0.22,0.37,-3.04
2024-12-06 12:45:43.786,79.2,528.0,0.87,0.47,-0.09,-0.21,0.62,-3.16
2024-12-06 12:45:43.793,82.35,507.0,0.87,0.47,-0.09,-0.63,0.37,-3.35
2024-12-06 12:45:43.801,78.97,515.0,0.87,0.47,-0.08,-0.63,0.37,-3.53
2024-12-06 12:45:43.813,81.45,507.0,0.87,0.48,-0.09,-0.88,0.49,-3.53
2024-12-06 12:45:43.846,79.2,519.0,0.88,0.47,-0.1,-0.27,-0.54,-4.02
2024-12-06 12:45:43.848,79.2,510.0,0.88,0.46,-0.11,-0.27,-0.54,-4.02
2024-12-06 12:45:43.860,77.4,497.0,0.88,0.46,-0.11,-0.39,-1.15,-4.26
2024-12-06 12:45:43.863,83.25,521.0,0.88,0.47,-0.11,-0.63,-1.58,-4.38
2024-12-06 12:45:43.872,81.22,560.0,0.87,0.48,-0.1,-0.76,-1.64,-4.57
2024-12-06 12:45:43.883,78.97,507.0,0.87,0.48,-0.1,-0.76,-1.46,-4.57
2024-12-06 12:45:43.891,78.53,514.0,0.87,0.49,-0.09,-0.57,-0.91,-4.51
2024-12-06 12:45:43.897,81.9,496.0,0.86,0.49,-0.09,-0.57,-0.91,-4.51
2024-12-06 12:45:43.905,78.75,510.0,0.86,0.49,-0.09,-0.33,0.0,-4.26
2024-12-06 12:45:43.911,77.4,510.0,0.86,0.48,-0.09,-0.02,0.43,-3.96
2024-12-06 12:45:43.918,78.75,491.0,0.85,0.46,-0.1,0.4,0.98,-3.71
2024-12-06 12:45:43.928,80.32,481.0,0.85,0.46,-0.1,0.71,1.29,-3.53
2024-12-06 12:45:43.935,81.22,490.0,0.86,0.45,-0.1,0.89,1.53,-3.16
2024-12-06 12:45:43.945,81.22,520.0,0.87,0.45,-0.1,0.89,1.53,-3.16
2024-12-06 12:45:43.954,81.22,483.0,0.87,0.46,-0.1,0.83,1.41,-2.92
2024-12-06 12:45:43.970,81.9,481.0,0.88,0.47,-0.1,0.59,0.98,-2.86
2024-12-06 12:45:43.978,80.32,480.0,0.88,0.48,-0.09,0.16,0.25,-3.04
2024-12-06 12:45:43.981,81.0,487.0,0.88,0.48,-0.08,0.16,0.25,-3.04
2024-12-06 12:45:43.988,82.8,475.0,0.87,0.48,-0.08,-0.02,0.19,-3.22
2024-12-06 12:45:43.997,81.22,474.0,0.86,0.48,-0.07,-0.08,0.62,-3.83
2024-12-06 12:45:44.5,81.0,475.0,0.85,0.48,-0.08,0.04,1.23,-4.63
2024-12-06 12:45:44.13,80.78,467.0,0.84,0.47,-0.08,0.34,2.39,-5.48
2024-12-06 12:45:44.20,82.57,467.0,0.84,0.47,-0.08,1.01,2.51,-5.97
2024-12-06 12:45:44.28,79.2,460.0,0.84,0.47,-0.08,1.69,3.3,-6.28
2024-12-06 12:45:44.65,81.45,460.0,0.84,0.47,-0.09,1.69,3.3,-6.28
2024-12-06 12:45:44.68,78.07,454.0,0.86,0.49,-0.1,3.46,4.4,-5.79
2024-12-06 12:45:44.74,80.1,458.0,0.85,0.49,-0.11,3.46,4.4,-5.79
2024-12-06 12:45:44.82,81.22,465.0,0.86,0.49,-0.12,4.13,4.28,-5.79
2024-12-06 12:45:44.90,79.88,452.0,0.85,0.5,-0.12,4.86,3.48,-5.79
2024-12-06 12:45:44.102,77.62,459.0,0.85,0.5,-0.13,5.47,3.06,-5.85
2024-12-06 12:45:44.106,81.9,455.0,0.85,0.5,-0.13,5.71,2.87,-5.91
2024-12-06 12:45:44.116,78.07,450.0,0.85,0.51,-0.12,6.02,2.14,-5.97
2024-12-06 12:45:44.129,79.88,453.0,0.85,0.51,-0.11,6.02,2.14,-5.97
2024-12-06 12:45:44.146,75.6,458.0,0.85,0.51,-0.1,6.45,1.47,-6.28
2024-12-06 12:45:44.148,76.95,448.0,0.85,0.51,-0.1,6.75,1.47,-6.64
2024-12-06 12:45:44.153,81.9,466.0,0.85,0.51,-0.1,7.12,1.1,-6.83
2024-12-06 12:45:44.164,78.53,447.0,0.85,0.51,-0.1,7.12,1.1,-6.83
2024-12-06 12:45:44.170,77.62,444.0,0.85,0.51,-0.1,7.48,0.25,-6.83
2024-12-06 12:45:44.200,81.45,442.0,0.86,0.55,-0.09,7.12,1.77,-4.87
2024-12-06 12:45:44.206,76.95,453.0,0.85,0.56,-0.09,7.12,1.77,-4.87
2024-12-06 12:45:44.214,74.92,438.0,0.84,0.56,-0.09,7.18,3.36,-3.83
2024-12-06 12:45:44.222,78.97,439.0,0.83,0.56,-0.1,7.18,4.28,-2.68
2024-12-06 12:45:44.232,78.3,439.0,0.83,0.57,-0.1,7.06,5.38,-1.33
2024-12-06 12:45:44.240,79.2,433.0,0.83,0.57,-0.1,6.63,5.93,0.32
2024-12-06 12:45:44.246,78.53,437.0,0.82,0.57,-0.1,6.63,5.93,1.78
2024-12-06 12:45:44.258,77.62,453.0,0.82,0.56,-0.1,6.14,6.11,1.78
2024-12-06 12:45:44.290,77.85,433.0,0.83,0.55,-0.08,2.72,7.63,6.91
2024-12-06 12:45:44.292,74.92,427.0,0.83,0.52,-0.09,2.72,7.63,6.91
2024-12-06 12:45:44.299,76.72,448.0,0.84,0.5,-0.09,2.6,9.34,7.46
2024-12-06 12:45:44.311,72.0,432.0,0.86,0.52,-0.08,2.97,10.14,8.49
2024-12-06 12:45:44.315,67.95,444.0,0.85,0.51,-0.09,2.97,10.56,9.29
2024-12-06 12:45:44.323,71.78,429.0,0.85,0.51,-0.09,3.46,12.7,9.59
2024-12-06 12:45:44.331,73.57,446.0,0.85,0.49,-0.09,4.01,15.26,9.84
2024-12-06 12:45:44.339,70.2,435.0,0.86,0.49,-0.09,4.01,15.26,9.84
2024-12-06 12:45:44.349,70.65,431.0,0.86,0.49,-0.08,4.01,13.74,9.84
2024-12-06 12:45:44.354,67.5,456.0,0.88,0.47,-0.13,3.88,12.82,9.9
2024-12-06 12:45:44.362,65.03,423.0,0.85,0.44,-0.13,3.76,15.81,9.17
2024-12-06 12:45:44.370,69.97,424.0,0.85,0.44,-0.07,4.13,12.64,7.58
2024-12-06 12:45:44.379,65.7,439.0,0.86,0.46,-0.07,3.82,7.76,8.19
2024-12-06 12:45:44.387,66.82,438.0,0.92,0.5,-0.08,3.82,7.76,8.19
2024-12-06 12:45:44.394,64.57,448.0,0.9,0.5,-0.09,2.36,5.44,9.1
2024-12-06 12:45:44.406,66.82,437.0,0.87,0.46,-0.09,2.11,4.64,8.68
2024-12-06 12:45:44.410,63.67,427.0,0.87,0.45,-0.09,1.69,5.93,7.76
2024-12-06 12:45:44.421,63.0,459.0,0.87,0.45,-0.07,1.81,4.34,7.52
2024-12-06 12:45:44.425,58.95,442.0,0.87,0.46,-0.07,1.69,3.73,7.27
2024-12-06 12:45:44.433,60.52,446.0,0.87,0.46,-0.07,1.69,3.73,7.27
2024-12-06 12:45:44.442,57.82,440.0,0.89,0.48,-0.07,2.05,4.58,7.52
2024-12-06 12:45:44.450,58.27,443.0,0.88,0.47,-0.06,2.91,4.22,8.31
2024-12-06 12:45:44.458,60.07,443.0,0.86,0.43,-0.06,3.58,3.54,7.88
2024-12-06 12:45:44.466,60.3,439.0,0.86,0.43,-0.07,3.03,6.84,6.79
2024-12-06 12:45:44.508,61.42,435.0,0.86,0.43,-0.08,2.48,6.72,4.53
2024-12-06 12:45:44.511,56.25,433.0,0.88,0.43,-0.08,2.42,3.54,5.2
2024-12-06 12:45:44.518,53.1,445.0,0.89,0.45,-0.08,2.42,3.54,5.2
2024-12-06 12:45:44.526,56.25,450.0,0.89,0.45,-0.1,2.17,3.06,5.69
2024-12-06 12:45:44.534,55.12,441.0,0.88,0.45,-0.09,2.17,4.28,5.81
2024-12-06 12:45:44.542,55.35,440.0,0.87,0.45,-0.07,2.05,4.22,6.11
2024-12-06 12:45:44.550,56.02,438.0,0.87,0.45,-0.07,2.05,1.84,6.18
2024-12-06 12:45:44.559,55.35,435.0,0.86,0.44,-0.07,1.93,3.67,5.08
2024-12-06 12:45:44.565,50.4,432.0,0.85,0.42,-0.09,1.93,3.67,5.08
2024-12-06 12:45:44.588,54.45,436.0,0.86,0.43,-0.07,1.62,6.96,3.86
2024-12-06 12:45:44.591,52.42,442.0,0.88,0.45,-0.05,1.99,4.83,4.95
2024-12-06 12:45:44.596,51.3,439.0,0.88,0.45,-0.05,2.42,5.5,5.14
2024-12-06 12:45:44.604,52.65,433.0,0.87,0.45,-0.08,2.42,7.08,4.77
2024-12-06 12:45:44.612,50.17,450.0,0.87,0.45,-0.07,2.72,7.08,4.77
2024-12-06 12:45:44.621,44.55,444.0,0.89,0.46,-0.06,2.66,6.35,5.02
2024-12-06 12:45:44.741,37.35,450.0,0.89,0.47,-0.05,1.93,7.94,6.85
2024-12-06 12:45:44.749,43.42,442.0,0.88,0.45,-0.07,2.05,7.45,6.24
2024-12-06 12:45:44.757,40.27,438.0,0.88,0.45,-0.07,1.87,7.15,5.63
2024-12-06 12:45:44.765,41.17,438.0,0.89,0.45,-0.08,1.75,6.11,5.69
2024-12-06 12:45:44.775,41.85,443.0,0.91,0.45,-0.06,1.75,6.11,5.69
2024-12-06 12:45:44.782,37.8,435.0,0.9,0.44,-0.05,1.69,3.18,5.93
2024-12-06 12:45:44.789,38.92,452.0,0.88,0.43,-0.05,1.2,3.3,5.32
2024-12-06 12:45:44.804,41.4,444.0,0.89,0.43,-0.04,0.65,3.54,4.59
2024-12-06 12:45:44.807,35.77,425.0,0.89,0.43,-0.04,0.1,2.2,4.89
2024-12-06 12:45:44.825,34.2,459.0,0.89,0.42,-0.06,0.16,1.1,5.02
2024-12-06 12:45:44.829,36.45,436.0,0.87,0.4,-0.09,0.65,2.26,4.22
2024-12-06 12:45:44.836,32.85,449.0,0.9,0.41,-0.07,1.2,2.57,3.73
2024-12-06 12:45:44.842,31.5,440.0,0.9,0.41,-0.07,1.62,1.96,4.47
2024-12-06 12:45:44.852,37.58,433.0,0.92,0.42,-0.05,1.93,1.41,4.89
2024-12-06 12:45:44.859,33.75,432.0,0.9,0.42,-0.04,1.93,1.41,4.89
2024-12-06 12:45:44.865,34.65,431.0,0.89,0.42,-0.03,1.81,2.87,4.4
2024-12-06 12:45:44.877,33.3,437.0,0.92,0.44,-0.01,1.5,3.42,4.34
2024-12-06 12:45:44.896,33.08,474.0,0.93,0.44,-0.01,0.47,1.04,5.14
2024-12-06 12:45:44.903,34.65,453.0,0.9,0.42,-0.02,0.47,1.04,5.14
2024-12-06 12:45:44.909,31.05,442.0,0.89,0.4,-0.03,-0.02,1.77,3.86
2024-12-06 12:45:44.913,31.05,456.0,0.92,0.41,-0.02,-0.69,1.47,3.18
2024-12-06 12:45:44.919,30.82,435.0,0.95,0.42,-0.02,-1.3,-0.3,4.1
2024-12-06 12:45:44.929,30.82,439.0,0.92,0.42,-0.05,-1.0,0.13,4.77
2024-12-06 12:45:44.955,30.82,460.0,0.9,0.43,-0.03,-0.63,0.25,3.67
2024-12-06 12:45:44.958,30.6,443.0,0.91,0.43,-0.02,-0.51,-0.61,4.1
2024-12-06 12:45:44.968,27.9,450.0,0.89,0.42,-0.03,-0.39,-0.61,4.34
2024-12-06 12:45:44.974,22.27,466.0,0.89,0.42,-0.03,-0.21,-0.67,3.67
2024-12-06 12:45:44.983,29.25,439.0,0.87,0.4,-0.04,-0.27,0.62,3.0
2024-12-06 12:45:44.989,27.22,446.0,0.88,0.41,-0.04,-0.27,0.62,3.0
2024-12-06 12:45:44.999,29.7,441.0,0.91,0.42,-0.03,-0.15,0.68,3.73
2024-12-06 12:45:45.5,20.48,454.0,0.91,0.43,-0.04,0.04,0.43,5.02
2024-12-06 12:45:45.13,26.1,438.0,0.9,0.43,-0.04,0.1,0.98,5.81
2024-12-06 12:45:45.21,25.65,449.0,0.9,0.43,-0.04,0.1,0.8,5.63
2024-12-06 12:45:45.29,25.2,442.0,0.87,0.41,-0.04,0.1,0.8,4.77
2024-12-06 12:45:45.36,24.07,466.0,0.89,0.4,-0.04,-0.08,1.16,4.77
2024-12-06 12:45:45.45,20.48,456.0,0.91,0.41,-0.03,-0.33,0.74,4.77
2024-12-06 12:45:45.60,23.62,457.0,0.91,0.41,-0.04,-0.33,-0.97,5.14
2024-12-06 12:45:45.62,20.48,435.0,0.88,0.41,-0.06,-0.57,-1.52,4.47
2024-12-06 12:45:45.67,19.57,431.0,0.88,0.41,-0.06,-0.69,-0.3,3.0
2024-12-06 12:45:45.76,21.6,453.0,0.88,0.41,-0.06,-0.69,-0.3,3.0
2024-12-06 12:45:45.83,18.67,440.0,0.92,0.42,-0.04,-0.69,0.37,2.76
2024-12-06 12:45:45.91,21.82,446.0,0.93,0.42,-0.04,-0.51,-0.67,3.55
2024-12-06 12:45:45.100,18.67,436.0,0.91,0.41,-0.05,-0.51,-0.85,3.79
2024-12-06 12:45:45.109,15.75,434.0,0.89,0.4,-0.06,-0.33,-0.42,2.82
2024-12-06 12:45:45.116,20.48,451.0,0.89,0.4,-0.06,-0.08,-0.3,1.72
2024-12-06 12:45:45.125,19.8,444.0,0.89,0.39,-0.05,0.22,-0.91,1.11
2024-12-06 12:45:45.131,20.7,435.0,0.9,0.39,-0.05,0.22,-0.91,1.11
2024-12-06 12:45:45.146,20.02,496.0,0.91,0.4,-0.06,0.4,-1.09,0.99
2024-12-06 12:45:45.156,18.67,454.0,0.9,0.4,-0.06,0.77,-1.89,1.11
2024-12-06 12:45:45.158,18.9,464.0,0.89,0.39,-0.06,1.01,-1.95,0.62
2024-12-06 12:45:45.162,18.23,444.0,0.89,0.39,-0.06,0.65,-0.85,0.19
2024-12-06 12:45:45.170,17.32,443.0,0.9,0.4,-0.05,0.65,-0.85,0.19
2024-12-06 12:45:45.179,18.67,444.0,0.91,0.42,-0.03,0.47,-0.97,0.74
2024-12-06 12:45:45.189,17.55,470.0,0.9,0.42,-0.04,0.34,-1.4,1.23
2024-12-06 12:45:45.197,15.52,438.0,0.87,0.42,-0.06,0.47,-0.61,0.99
2024-12-06 12:45:45.202,17.77,446.0,0.86,0.41,-0.05,0.53,-0.3,0.01
2024-12-06 12:45:45.209,15.75,448.0,0.86,0.41,-0.05,0.53,0.19,-1.03
2024-12-06 12:45:45.223,15.3,448.0,0.87,0.4,-0.05,0.53,0.19,-1.21
2024-12-06 12:45:45.235,15.3,443.0,0.9,0.4,-0.05,0.83,-0.18,-0.97
2024-12-06 12:45:45.240,15.3,447.0,0.9,0.4,-0.06,0.77,0.31,-0.97
2024-12-06 12:45:45.248,13.27,458.0,0.9,0.4,-0.06,1.08,0.31,-1.15
2024-12-06 12:45:45.281,13.5,443.0,0.89,0.43,-0.07,2.3,-0.54,-2.13
2024-12-06 12:45:45.286,10.8,442.0,0.89,0.43,-0.07,2.85,-1.89,-2.68
2024-12-06 12:45:45.294,12.82,459.0,0.88,0.42,-0.07,2.78,-1.89,-3.71
2024-12-06 12:45:45.301,7.2,445.0,0.86,0.4,-0.06,2.78,-1.89,-3.71
2024-12-06 12:45:45.312,7.2,434.0,0.87,0.4,-0.05,2.72,-1.89,-4.08
2024-12-06 12:45:45.325,10.8,437.0,0.88,0.4,-0.06,2.85,-2.25,-4.02
2024-12-06 12:45:45.332,10.35,442.0,0.89,0.41,-0.06,2.72,0.25,-3.29
2024-12-06 12:45:45.334,7.65,440.0,0.89,0.41,-0.06,3.09,-0.24,-1.82
2024-12-06 12:45:45.340,7.42,448.0,0.9,0.42,-0.05,2.85,0.31,-0.91
2024-12-06 12:45:45.354,9.22,450.0,0.88,0.42,-0.07,2.85,0.31,-0.91
2024-12-06 12:45:45.361,9.0,434.0,0.87,0.41,-0.07,2.66,1.23,-0.78
2024-12-06 12:45:45.369,10.57,433.0,0.86,0.4,-0.05,2.36,0.74,-1.33
2024-12-06 12:45:45.372,8.1,464.0,0.86,0.41,-0.05,1.75,1.47,-1.76
2024-12-06 12:45:45.409,11.7,454.0,0.89,0.42,-0.03,0.28,1.84,-1.52
2024-12-06 12:45:45.413,3.15,446.0,0.9,0.42,-0.04,0.1,1.77,-1.33
2024-12-06 12:45:45.420,9.68,443.0,0.9,0.42,-0.04,-0.08,2.51,-1.15
2024-12-06 12:45:45.427,6.97,445.0,0.91,0.41,-0.04,-0.39,0.98,-0.84
2024-12-06 12:45:45.433,12.15,437.0,0.9,0.4,-0.02,-0.39,0.98,-0.84
2024-12-06 12:45:45.441,8.32,455.0,0.9,0.39,-0.03,-1.18,0.86,-1.45
2024-12-06 12:45:45.449,6.52,452.0,0.91,0.4,-0.01,-1.79,0.8,-1.76
2024-12-06 12:45:45.458,5.62,442.0,0.92,0.41,-0.04,-1.85,-0.24,-1.52
2024-12-06 12:45:45.467,2.7,446.0,0.92,0.41,-0.04,-1.37,1.59,-1.21
2024-12-06 12:45:45.476,-0.9,434.0,0.92,0.41,-0.07,-1.55,0.49,-1.03
2024-12-06 12:45:45.484,2.02,456.0,0.91,0.41,-0.04,-1.55,0.49,-1.03
2024-12-06 12:45:45.490,6.97,439.0,0.91,0.39,-0.04,-1.49,-0.48,-0.66
2024-12-06 12:45:45.498,4.5,454.0,0.9,0.38,-0.04,-1.67,0.31,-0.91
2024-12-06 12:45:45.507,7.42,438.0,0.89,0.4,-0.04,-1.49,-0.06,-1.52
2024-12-06 12:45:45.517,3.82,433.0,0.89,0.4,-0.04,-1.49,0.74,-1.64
2024-12-06 12:45:45.519,3.6,456.0,0.89,0.41,-0.06,-1.49,0.74,-1.64
2024-12-06 12:45:45.530,2.47,438.0,0.89,0.42,-0.06,-1.3,0.74,-1.64
2024-12-06 12:45:45.537,3.82,433.0,0.89,0.42,-0.06,-1.06,1.16,-1.45
2024-12-06 12:45:45.542,3.82,454.0,0.9,0.42,-0.06,-1.06,2.51,-0.66
2024-12-06 12:45:45.558,3.82,446.0,0.93,0.42,-0.05,-0.82,3.18,0.56
2024-12-06 12:45:45.564,0.9,442.0,0.92,0.42,-0.05,-1.12,4.77,2.21
2024-12-06 12:45:45.566,3.38,443.0,0.94,0.41,-0.04,-1.12,4.77,2.21
2024-12-06 12:45:45.574,2.47,443.0,0.92,0.4,-0.03,-1.55,2.26,2.94
2024-12-06 12:45:45.581,1.57,454.0,0.9,0.38,-0.05,-2.04,1.71,1.84
2024-12-06 12:45:45.590,4.28,447.0,0.9,0.39,-0.03,-2.16,2.45,0.68
2024-12-06 12:45:45.599,-3.82,454.0,0.9,0.39,-0.02,-2.28,-0.54,-0.48
2024-12-06 12:45:45.606,2.47,438.0,0.9,0.41,-0.02,-2.4,-1.03,-1.15
2024-12-06 12:45:45.634,-1.12,435.0,0.91,0.42,-0.04,-1.12,-0.67,-0.78
2024-12-06 12:45:45.642,2.02,439.0,0.9,0.4,-0.05,-0.88,-0.85,-1.27
2024-12-06 12:45:45.646,-1.12,434.0,0.9,0.4,-0.05,-0.63,-0.18,-1.76
2024-12-06 12:45:45.655,1.35,456.0,0.9,0.39,-0.03,-0.63,-0.18,-1.76
2024-12-06 12:45:45.669,0.45,442.0,0.85,0.38,-0.01,-0.57,-2.62,-2.98
2024-12-06 12:45:45.672,0.45,442.0,0.84,0.39,-0.03,-1.24,-2.31,-5.24
2024-12-06 12:45:45.809,-2.92,474.0,0.87,0.42,-0.03,-0.57,-2.44,-1.33
2024-12-06 12:45:45.823,2.25,438.0,0.84,0.42,-0.02,-0.45,-3.9,-2.92
2024-12-06 12:45:45.825,-0.9,456.0,0.82,0.41,-0.02,-0.94,-2.92,-4.69
2024-12-06 12:45:45.839,1.8,441.0,0.82,0.41,-0.02,-1.12,-2.01,-6.03
2024-12-06 12:45:45.843,-0.22,438.0,0.82,0.41,-0.03,-1.12,-2.01,-7.44
2024-12-06 12:45:45.849,1.57,465.0,0.8,0.41,-0.04,-1.12,-1.89,-7.44
2024-12-06 12:45:45.862,0.9,445.0,0.8,0.42,-0.04,-1.98,-1.15,-8.78
2024-12-06 12:45:45.894,-0.9,436.0,0.94,0.44,-0.09,-1.61,1.1,-3.35
2024-12-06 12:45:45.905,4.95,442.0,0.9,0.44,-0.09,-1.67,2.02,-2.43
2024-12-06 12:45:45.916,-3.38,447.0,0.88,0.44,-0.08,-1.49,2.63,-2.8
2024-12-06 12:45:45.933,-2.7,447.0,0.88,0.44,-0.08,-1.85,1.65,-3.9
2024-12-06 12:45:45.951,3.15,458.0,0.88,0.4,-0.03,-4.11,0.07,-6.95
2024-12-06 12:45:45.954,4.05,439.0,0.88,0.4,-0.03,-3.75,-0.42,-7.5
2024-12-06 12:45:45.962,1.35,444.0,0.9,0.4,-0.02,-3.75,-0.42,-7.5
2024-12-06 12:45:45.970,-1.35,459.0,0.92,0.41,-0.04,-3.2,0.13,-7.25
2024-12-06 12:45:45.990,2.02,446.0,0.94,0.42,-0.03,-2.4,1.9,-6.4
2024-12-06 12:45:45.993,0.0,448.0,0.95,0.43,-0.03,-1.43,2.57,-5.06
2024-12-06 12:45:45.997,-2.02,479.0,0.95,0.43,-0.03,-0.76,3.36,-4.14
2024-12-06 12:45:46.1,0.0,450.0,0.94,0.43,-0.03,-0.45,3.97,-3.96
2024-12-06 12:45:46.9,-3.38,461.0,0.93,0.43,-0.03,-0.45,3.97,-3.96
2024-12-06 12:45:46.19,0.0,457.0,0.92,0.43,-0.03,-0.27,3.06,-4.08
2024-12-06 12:45:46.30,2.7,433.0,0.92,0.42,-0.04,-0.51,2.14,-4.32
2024-12-06 12:45:46.35,1.12,436.0,0.91,0.42,-0.05,-0.76,0.74,-4.63
2024-12-06 12:45:46.52,2.02,453.0,0.91,0.42,-0.05,-1.24,0.13,-4.57
2024-12-06 12:45:46.54,-1.57,434.0,0.92,0.42,-0.05,-1.24,0.13,-4.57
2024-12-06 12:45:46.56,4.95,444.0,0.92,0.43,-0.05,-1.43,-0.54,-4.2
2024-12-06 12:45:46.62,3.6,443.0,0.91,0.44,-0.04,-1.61,-0.97,-3.59
2024-12-06 12:45:46.94,2.47,458.0,0.9,0.45,-0.03,-1.43,0.31,-1.15
2024-12-06 12:45:46.102,3.82,451.0,0.9,0.45,-0.03,-1.06,0.92,-0.66
2024-12-06 12:45:46.110,2.25,445.0,0.89,0.45,-0.03,-0.82,1.53,-0.84
2024-12-06 12:45:46.117,2.7,451.0,0.89,0.45,-0.03,-0.69,2.2,-1.15
2024-12-06 12:45:46.124,-2.7,436.0,0.89,0.45,-0.03,-0.69,2.14,-1.33
2024-12-06 12:45:46.134,0.9,440.0,0.9,0.44,-0.02,-0.69,2.14,-1.33
2024-12-06 12:45:46.143,-2.7,449.0,0.91,0.43,-0.02,-0.76,1.59,-1.27
2024-12-06 12:45:46.158,2.7,443.0,0.92,0.42,-0.03,-0.82,0.43,-0.84
2024-12-06 12:45:46.172,1.8,441.0,0.92,0.42,-0.03,-0.69,-0.18,-0.66
2024-12-06 12:45:46.183,-0.22,453.0,0.9,0.43,-0.03,-0.63,-0.61,-0.78
2024-12-06 12:45:46.189,-0.67,436.0,0.89,0.43,-0.03,-0.51,-0.97,-1.15
2024-12-06 12:45:46.194,-2.92,463.0,0.89,0.43,-0.03,-0.27,-0.91,-1.58
2024-12-06 12:45:46.202,4.28,439.0,0.88,0.42,-0.04,0.04,-0.79,-1.94
2024-12-06 12:45:46.216,1.35,445.0,0.88,0.42,-0.04,0.16,-0.48,-2.19
2024-12-06 12:45:46.219,4.05,445.0,0.88,0.42,-0.03,0.16,-0.48,-2.19
2024-12-06 12:45:46.226,7.88,442.0,0.89,0.42,-0.03,0.22,-0.36,-2.13
2024-12-06 12:45:46.239,1.8,455.0,0.88,0.42,-0.03,0.34,-0.12,-1.94
2024-12-06 12:45:46.242,2.7,458.0,0.88,0.43,-0.03,0.4,0.25,-2.0
2024-12-06 12:45:46.249,0.22,455.0,0.88,0.43,-0.03,0.28,0.55,-2.06
2024-12-06 12:45:46.257,-1.12,448.0,0.88,0.43,-0.03,0.16,0.8,-2.06
2024-12-06 12:45:46.267,1.8,450.0,0.88,0.43,-0.04,0.16,0.8,-1.94
2024-12-06 12:45:46.273,1.12,446.0,0.89,0.44,-0.03,0.1,0.8,-1.94
2024-12-06 12:45:46.313,3.82,439.0,0.9,0.43,-0.03,-0.33,-0.06,-1.52
2024-12-06 12:45:46.322,2.02,446.0,0.9,0.43,-0.02,-0.51,-0.3,-1.82
2024-12-06 12:45:46.326,-0.45,446.0,0.9,0.43,-0.02,-0.76,-0.73,-1.88
2024-12-06 12:45:46.369,-2.7,441.0,0.89,0.46,-0.03,-0.27,0.13,-1.64
2024-12-06 12:45:46.394,2.47,446.0,0.89,0.46,-0.03,-0.15,0.55,-1.52
2024-12-06 12:45:46.398,0.45,446.0,0.9,0.43,-0.04,0.28,0.49,-1.03
2024-12-06 12:45:46.401,-0.9,444.0,0.9,0.42,-0.04,0.4,0.13,-0.84
2024-12-06 12:45:46.409,-1.57,440.0,0.9,0.42,-0.04,0.47,-0.24,-0.72
2024-12-06 12:45:46.418,4.72,436.0,0.9,0.42,-0.04,0.47,-0.3,-0.72
2024-12-06 12:45:46.425,2.25,451.0,0.9,0.43,-0.04,0.47,-0.3,-0.72
2024-12-06 12:45:46.433,1.8,445.0,0.9,0.43,-0.03,0.4,-0.61,-0.6
2024-12-06 12:45:46.440,3.6,449.0,0.89,0.44,-0.03,0.34,-0.97,-0.54
2024-12-06 12:45:46.449,-0.45,461.0,0.89,0.43,-0.04,0.34,-0.97,-0.72
2024-12-06 12:45:46.457,-1.12,447.0,0.88,0.43,-0.04,0.47,-0.97,-1.03
2024-12-06 12:45:46.464,-3.15,449.0,0.88,0.43,-0.04,0.59,-0.85,-1.21
2024-12-06 12:45:46.478,1.8,442.0,0.89,0.43,-0.04,0.59,-0.85,-1.21
2024-12-06 12:45:46.481,-0.9,443.0,0.89,0.43,-0.03,0.65,-0.67,-1.21
2024-12-06 12:45:46.487,3.82,477.0,0.9,0.43,-0.03,0.71,-0.54,-0.97
2024-12-06 12:45:46.495,-1.35,458.0,0.89,0.44,-0.04,0.77,-0.54,-0.66
2024-12-06 12:45:46.504,-3.15,444.0,0.89,0.44,-0.04,0.77,-0.3,-0.6
2024-12-06 12:45:46.540,0.9,456.0,0.89,0.45,-0.04,0.65,-0.18,-0.72
2024-12-06 12:45:46.542,-2.02,448.0,0.88,0.45,-0.04,0.59,-0.36,-1.45
2024-12-06 12:45:46.549,1.12,441.0,0.88,0.45,-0.04,0.47,-0.42,-1.52
2024-12-06 12:45:46.556,2.7,440.0,0.87,0.44,-0.04,0.47,-0.42,-1.52
2024-12-06 12:45:46.565,-0.9,440.0,0.87,0.44,-0.03,0.22,-0.36,-1.64
2024-12-06 12:45:46.572,0.22,443.0,0.87,0.44,-0.03,0.1,-0.48,-1.76
2024-12-06 12:45:46.583,1.12,471.0,0.87,0.45,-0.03,-0.02,-0.24,-1.88
2024-12-06 12:45:46.590,0.22,442.0,0.87,0.45,-0.03,-0.15,0.07,-2.0
2024-12-06 12:45:46.596,2.92,470.0,0.87,0.46,-0.04,-0.15,0.07,-2.25
2024-12-06 12:45:46.603,-2.92,450.0,0.86,0.46,-0.04,-0.21,0.19,-2.25
2024-12-06 12:45:46.614,2.25,436.0,0.87,0.46,-0.04,-0.21,0.8,-2.49
2024-12-06 12:45:46.619,0.45,478.0,0.87,0.45,-0.04,-0.39,1.23,-2.49
2024-12-06 12:45:46.636,2.7,446.0,0.88,0.44,-0.03,-0.33,1.16,-2.19
2024-12-06 12:45:46.649,2.92,455.0,0.88,0.43,-0.04,-0.33,1.16,-2.19
2024-12-06 12:45:46.652,2.7,434.0,0.88,0.42,-0.05,-0.15,1.35,-2.31
2024-12-06 12:45:46.657,-1.57,446.0,0.88,0.41,-0.05,0.1,1.04,-2.61
2024-12-06 12:45:46.665,-1.12,443.0,0.88,0.41,-0.04,0.16,0.8,-2.92
2024-12-06 12:45:46.673,4.5,449.0,0.88,0.41,-0.04,0.28,0.8,-3.29
2024-12-06 12:45:46.681,2.02,444.0,0.88,0.41,-0.03,0.47,0.68,-3.77
2024-12-06 12:45:46.689,1.35,453.0,0.88,0.42,-0.03,0.47,0.68,-3.77
2024-12-06 12:45:46.715,1.57,437.0,0.88,0.42,-0.04,1.08,0.43,-4.99
2024-12-06 12:45:46.718,2.25,458.0,0.88,0.43,-0.04,1.32,0.55,-5.54
2024-12-06 12:45:46.721,3.15,442.0,0.88,0.43,-0.04,1.26,0.8,-5.97
2024-12-06 12:45:46.728,2.25,443.0,0.88,0.44,-0.03,1.26,0.62,-6.28
2024-12-06 12:45:46.833,3.38,441.0,0.93,0.45,-0.04,-1.3,2.39,-0.29
2024-12-06 12:45:46.843,-0.9,445.0,0.94,0.45,-0.04,-0.88,2.45,0.86
2024-12-06 12:45:46.845,3.15,458.0,0.94,0.45,-0.05,-0.88,2.45,0.86
2024-12-06 12:45:46.848,-0.45,444.0,0.95,0.45,-0.04,-0.39,1.77,2.09
2024-12-06 12:45:46.858,2.02,467.0,0.94,0.44,-0.03,0.1,0.86,3.06
2024-12-06 12:45:46.869,0.0,450.0,0.91,0.42,-0.03,0.53,-0.3,3.0
2024-12-06 12:45:46.871,1.35,451.0,0.91,0.42,-0.03,1.44,-0.67,1.78
2024-12-06 12:45:46.878,-2.02,467.0,0.89,0.41,-0.05,1.44,-0.67,1.78
2024-12-06 12:45:46.890,3.38,473.0,0.91,0.43,-0.04,1.38,0.31,1.05
2024-12-06 12:45:46.895,0.9,472.0,0.94,0.45,-0.02,1.62,-1.09,1.6
2024-12-06 12:45:46.901,4.72,444.0,0.94,0.47,-0.03,1.81,-0.79,2.88
2024-12-06 12:45:46.909,4.72,455.0,0.94,0.47,-0.03,2.24,0.43,3.98
2024-12-06 12:45:46.919,3.15,445.0,0.92,0.48,-0.04,2.66,-0.12,4.4
2024-12-06 12:45:46.925,0.22,455.0,0.89,0.47,-0.04,2.66,-0.12,4.4
2024-12-06 12:45:46.940,3.15,449.0,0.87,0.46,-0.05,2.85,-0.3,4.1
2024-12-06 12:45:46.961,2.47,440.0,0.86,0.44,-0.02,2.42,-0.85,2.51
2024-12-06 12:45:46.993,1.35,454.0,0.87,0.44,-0.01,1.5,1.16,3.86
2024-12-06 12:45:47.1,1.35,455.0,0.87,0.43,-0.01,1.5,1.16,3.86
2024-12-06 12:45:47.8,2.02,455.0,0.88,0.43,-0.0,1.14,1.96,3.98
2024-12-06 12:45:47.26,1.12,465.0,0.89,0.42,-0.01,0.53,1.71,3.79
2024-12-06 12:45:47.32,-3.6,467.0,0.89,0.42,-0.01,0.28,1.59,3.55
2024-12-06 12:45:47.39,4.05,462.0,0.9,0.42,-0.02,0.28,1.59,3.55
2024-12-06 12:45:47.47,1.8,456.0,0.91,0.41,-0.02,0.1,0.92,3.43
2024-12-06 12:45:47.69,1.35,432.0,0.91,0.42,-0.03,0.04,-0.24,3.12
2024-12-06 12:45:47.77,-2.47,466.0,0.91,0.42,-0.03,0.04,-0.3,2.88
2024-12-06 12:45:47.80,-1.12,449.0,0.9,0.43,-0.04,0.04,-0.73,2.63
2024-12-06 12:45:47.86,-1.12,441.0,0.89,0.44,-0.04,0.28,-0.73,2.63
2024-12-06 12:45:47.94,3.6,439.0,0.88,0.44,-0.05,0.89,-0.79,2.09
2024-12-06 12:45:47.100,0.0,453.0,0.86,0.44,-0.06,1.62,0.37,1.48
2024-12-06 12:45:47.107,-2.7,439.0,0.86,0.44,-0.05,2.11,1.04,1.05
2024-12-06 12:45:47.126,-1.35,440.0,0.86,0.44,-0.05,2.17,1.41,1.11
2024-12-06 12:45:47.135,1.8,445.0,0.87,0.45,-0.04,2.17,1.41,1.11
2024-12-06 12:45:47.138,1.57,439.0,0.88,0.45,-0.03,2.3,2.02,1.72
2024-12-06 12:45:47.141,2.47,450.0,0.87,0.44,-0.03,2.48,2.45,2.33
2024-12-06 12:45:47.148,2.7,435.0,0.87,0.44,-0.05,2.48,2.81,2.57
2024-12-06 12:45:47.157,0.67,450.0,0.87,0.44,-0.05,2.3,3.61,2.7
2024-12-06 12:45:47.162,3.38,442.0,0.88,0.44,-0.05,2.3,3.61,2.7
2024-12-06 12:45:47.169,-2.47,451.0,0.89,0.44,-0.03,2.36,2.69,2.76
2024-12-06 12:45:47.179,4.95,433.0,0.89,0.43,-0.03,2.3,2.57,2.63
2024-12-06 12:45:47.185,1.8,438.0,0.91,0.43,-0.03,2.42,2.39,2.57
2024-12-06 12:45:47.215,-2.92,436.0,0.92,0.42,-0.03,2.48,1.35,2.76
2024-12-06 12:45:47.219,-1.12,427.0,0.91,0.42,-0.04,2.6,1.16,2.82
2024-12-06 12:45:47.225,1.8,439.0,0.91,0.43,-0.03,2.78,1.16,2.76
2024-12-06 12:45:47.231,-0.45,449.0,0.91,0.43,-0.02,2.91,1.53,2.7
2024-12-06 12:45:47.243,1.57,434.0,0.91,0.43,-0.02,3.15,1.65,2.63
2024-12-06 12:45:47.248,2.25,445.0,0.9,0.43,-0.02,3.21,1.84,2.57
2024-12-06 12:45:47.256,-2.25,442.0,0.9,0.42,-0.02,3.21,1.84,2.57
2024-12-06 12:45:47.265,0.9,440.0,0.9,0.42,-0.02,3.03,1.9,2.51
2024-12-06 12:45:47.271,-0.67,436.0,0.89,0.4,-0.03,2.85,1.47,2.51
2024-12-06 12:45:47.279,4.5,434.0,0.89,0.4,-0.04,2.66,1.47,2.33
2024-12-06 12:45:47.288,2.47,430.0,0.88,0.4,-0.04,2.48,1.41,2.02
2024-12-06 12:45:47.298,1.57,439.0,0.88,0.4,-0.04,2.3,1.59,1.9
2024-12-06 12:45:47.304,0.45,447.0,0.88,0.4,-0.04,2.3,1.59,1.9
2024-12-06 12:45:47.311,0.22,444.0,0.88,0.4,-0.04,2.17,1.35,1.72
2024-12-06 12:45:47.320,2.7,434.0,0.88,0.41,-0.04,2.11,1.59,1.41
2024-12-06 12:45:47.327,2.92,445.0,0.88,0.41,-0.04,2.17,2.2,1.23
2024-12-06 12:45:47.339,0.67,432.0,0.88,0.4,-0.04,2.54,2.39,1.17
2024-12-06 12:45:47.342,-1.12,431.0,0.88,0.4,-0.04,2.85,2.63,1.29
2024-12-06 12:45:47.350,2.02,437.0,0.89,0.41,-0.04,2.85,2.69,1.84
2024-12-06 12:45:47.371,-2.7,449.0,0.9,0.41,-0.04,3.15,2.69,1.84
2024-12-06 12:45:47.375,-0.45,479.0,0.91,0.41,-0.04,3.27,3.79,3.25
2024-12-06 12:45:47.382,-1.35,439.0,0.91,0.43,-0.04,3.15,3.85,3.61
2024-12-06 12:45:47.390,0.0,450.0,0.91,0.43,-0.04,3.09,3.91,3.86
2024-12-06 12:45:47.397,2.47,439.0,0.91,0.43,-0.04,3.09,3.73,3.92
2024-12-06 12:45:47.406,-0.45,448.0,0.91,0.42,-0.03,2.91,3.73,3.92
2024-12-06 12:45:47.444,-0.22,456.0,0.91,0.42,-0.04,2.97,3.12,3.73
2024-12-06 12:45:47.448,3.15,457.0,0.89,0.42,-0.03,2.85,1.96,2.7
2024-12-06 12:45:47.454,1.8,452.0,0.89,0.43,-0.03,2.97,1.77,2.57
2024-12-06 12:45:47.460,1.57,433.0,0.89,0.44,-0.03,3.03,1.77,2.57
2024-12-06 12:45:47.478,-5.17,452.0,0.89,0.43,-0.02,3.09,2.26,2.94
2024-12-06 12:45:47.483,2.92,440.0,0.89,0.43,-0.02,3.09,2.26,2.94
2024-12-06 12:45:47.489,-0.67,454.0,0.9,0.43,-0.02,3.09,2.81,3.37
2024-12-06 12:45:47.503,3.82,448.0,0.91,0.43,-0.02,3.03,2.87,4.1
2024-12-06 12:45:47.506,4.95,431.0,0.91,0.42,-0.02,2.72,2.69,4.89
2024-12-06 12:45:47.514,2.25,451.0,0.91,0.42,-0.02,2.42,2.45,5.56
2024-12-06 12:45:47.526,2.47,443.0,0.91,0.41,-0.02,2.42,2.45,5.81
2024-12-06 12:45:47.547,1.8,450.0,0.91,0.41,-0.02,1.93,2.26,5.81
2024-12-06 12:45:47.550,2.25,437.0,0.9,0.42,-0.01,0.89,2.14,5.75
2024-12-06 12:45:47.553,1.8,439.0,0.9,0.42,-0.01,0.71,2.51,5.81
2024-12-06 12:45:47.564,3.15,443.0,0.9,0.42,-0.01,0.65,2.51,5.87
2024-12-06 12:45:47.566,-0.22,438.0,0.9,0.42,-0.01,0.65,2.51,5.87
2024-12-06 12:45:47.578,3.6,436.0,0.9,0.41,-0.0,0.65,2.39,5.93
2024-12-06 12:45:47.584,2.7,444.0,0.86,0.39,0.01,0.71,-0.54,4.95
2024-12-06 12:45:47.589,0.67,458.0,0.86,0.36,0.01,0.1,-0.79,2.45
2024-12-06 12:45:47.598,0.0,452.0,0.86,0.36,0.01,-0.02,-2.01,0.44
2024-12-06 12:45:47.605,3.15,442.0,0.89,0.36,0.01,-0.02,-2.01,-15.19
2024-12-06 12:45:47.618,1.57,438.0,0.9,0.36,0.01,-0.39,-3.6,-1.27
2024-12-06 12:45:47.628,1.8,467.0,0.91,0.35,0.0,-0.82,-4.15,-2.98
2024-12-06 12:45:47.630,4.28,456.0,0.9,0.36,0.01,-0.94,-5.79,-4.57
2024-12-06 12:45:47.635,6.07,451.0,0.9,0.36,0.01,-1.12,-6.04,-6.09
2024-12-06 12:45:47.671,3.38,453.0,0.85,0.38,0.0,0.1,-4.94,-8.66
2024-12-06 12:45:47.674,8.32,442.0,0.85,0.38,0.0,0.22,-2.38,-10.73
2024-12-06 12:45:47.682,10.57,456.0,0.84,0.37,-0.03,0.65,0.0,-11.34
2024-12-06 12:45:47.697,9.22,449.0,0.87,0.39,-0.01,0.65,0.0,-11.34
2024-12-06 12:45:47.701,12.6,443.0,0.86,0.39,-0.01,1.2,-3.23,-11.22
2024-12-06 12:45:47.705,10.8,447.0,0.85,0.38,-0.07,1.01,-0.73,-12.26
2024-12-06 12:45:47.714,7.88,458.0,0.9,0.41,-0.03,0.77,2.57,-12.26
2024-12-06 12:45:47.721,13.72,447.0,0.9,0.41,-0.01,1.14,-3.17,-11.28
2024-12-06 12:45:47.729,12.6,464.0,0.89,0.41,-0.01,0.28,-2.07,-12.01
2024-12-06 12:45:47.765,14.85,452.0,0.89,0.42,-0.06,-0.39,-3.35,-12.68
2024-12-06 12:45:47.776,14.17,453.0,0.89,0.42,-0.06,0.1,-2.5,-13.36
2024-12-06 12:45:47.951,30.38,459.0,0.88,0.44,-0.06,0.16,-2.92,-11.71
2024-12-06 12:45:47.954,29.92,452.0,0.89,0.46,-0.04,0.59,-1.22,-10.12
2024-12-06 12:45:47.956,31.95,461.0,0.89,0.46,-0.04,0.28,0.0,-8.72
2024-12-06 12:45:47.964,30.38,426.0,0.91,0.48,-0.04,0.47,-1.95,-7.5
2024-12-06 12:45:47.973,30.6,444.0,0.88,0.48,-0.05,0.47,-1.95,-7.5
2024-12-06 12:45:47.980,35.33,455.0,0.86,0.46,-0.06,0.1,-1.83,-7.68
2024-12-06 12:45:47.987,37.58,459.0,0.88,0.47,-0.04,-0.82,0.0,-7.86
2024-12-06 12:45:47.998,35.55,444.0,0.89,0.48,-0.04,-0.94,-0.97,-7.25
2024-12-06 12:45:48.15,36.22,443.0,0.89,0.48,-0.04,-1.18,-1.58,-6.15
2024-12-06 12:45:48.17,36.9,454.0,0.89,0.47,-0.05,-1.43,-2.5,-5.3
2024-12-06 12:45:48.24,37.58,450.0,0.88,0.46,-0.04,-1.43,-2.5,-5.3
2024-12-06 12:45:48.33,40.05,459.0,0.89,0.46,-0.05,-2.04,-1.89,-4.57
2024-12-06 12:45:48.36,35.55,460.0,0.9,0.48,-0.03,-2.46,-0.85,-3.29
2024-12-06 12:45:48.44,36.22,454.0,0.89,0.49,-0.01,-2.77,-3.17,-1.76
2024-12-06 12:45:48.50,41.62,454.0,0.89,0.49,-0.01,-3.01,-5.85,-1.09
2024-12-06 12:45:48.58,43.88,468.0,0.87,0.47,-0.03,-3.26,-4.45,-1.76
2024-12-06 12:45:48.71,42.08,444.0,0.86,0.46,-0.05,-3.26,-4.45,-1.76
2024-12-06 12:45:48.83,39.6,471.0,0.87,0.46,-0.03,-3.93,-0.97,-2.61
2024-12-06 12:45:48.87,40.5,460.0,0.89,0.46,-0.01,-4.17,0.07,-2.55
2024-12-06 12:45:48.90,37.58,452.0,0.89,0.46,-0.03,-4.36,-1.09,-2.13
2024-12-06 12:45:48.117,40.95,463.0,0.88,0.45,-0.05,-4.97,-3.78,-2.8
2024-12-06 12:45:48.125,42.52,455.0,0.89,0.48,-0.04,-5.7,-4.39,-2.68
2024-12-06 12:45:48.130,44.55,471.0,0.87,0.49,-0.03,-5.76,-5.67,-2.31
2024-12-06 12:45:48.137,47.92,451.0,0.87,0.49,-0.03,-5.76,-5.61,-2.68
2024-12-06 12:45:48.147,44.55,458.0,0.85,0.48,-0.03,-5.64,-4.45,-3.1
2024-12-06 12:45:48.152,46.35,459.0,0.86,0.48,-0.03,-5.64,-4.45,-3.1
2024-12-06 12:45:48.161,45.67,460.0,0.88,0.5,-0.02,-6.07,-3.6,-2.37
2024-12-06 12:45:48.168,44.1,457.0,0.87,0.49,-0.02,-6.19,-4.88,-1.27
2024-12-06 12:45:48.176,49.05,455.0,0.84,0.45,-0.03,-6.13,-5.37,-1.64
2024-12-06 12:45:48.185,42.75,444.0,0.87,0.45,-0.03,-6.25,-3.54,-2.74
2024-12-06 12:45:48.191,47.7,458.0,0.85,0.45,-0.03,-6.55,-2.19,-2.92
2024-12-06 12:45:48.204,48.6,459.0,0.87,0.47,-0.03,-6.55,-2.19,-2.92
2024-12-06 12:45:48.209,45.22,470.0,0.87,0.48,-0.02,-6.55,-3.29,-2.98
2024-12-06 12:45:48.214,51.97,452.0,0.86,0.47,-0.04,-6.07,-5.06,-3.77
2024-12-06 12:45:48.227,49.5,453.0,0.88,0.48,-0.04,-6.19,-3.11,-4.45
2024-12-06 12:45:48.231,49.5,447.0,0.88,0.51,-0.03,-6.13,-2.92,-4.14
2024-12-06 12:45:48.239,50.85,471.0,0.88,0.5,-0.03,-5.82,-3.96,-4.38
2024-12-06 12:45:48.246,52.42,447.0,0.85,0.48,-0.04,-5.82,-3.96,-4.38
2024-12-06 12:45:48.255,46.12,472.0,0.87,0.47,-0.05,-5.39,-3.23,-5.06
2024-12-06 12:45:48.263,55.35,459.0,0.89,0.48,-0.05,-5.15,-3.47,-4.99
2024-12-06 12:45:48.283,51.97,470.0,0.87,0.47,-0.05,-4.97,-5.73,-4.75
2024-12-06 12:45:48.287,53.77,453.0,0.85,0.45,-0.05,-4.91,-7.08,-5.24
2024-12-06 12:45:48.290,55.12,458.0,0.85,0.45,-0.05,-5.46,-6.28,-5.73
2024-12-06 12:45:48.302,51.07,467.0,0.87,0.45,-0.04,-5.46,-6.28,-5.73
2024-12-06 12:45:48.314,55.8,452.0,0.88,0.47,-0.03,-5.76,-6.53,-5.3
2024-12-06 12:45:48.317,53.77,463.0,0.87,0.47,-0.05,-5.88,-7.99,-4.93
2024-12-06 12:45:48.319,56.47,460.0,0.87,0.48,-0.06,-6.0,-6.71,-4.69
2024-12-06 12:45:48.330,58.72,465.0,0.87,0.48,-0.06,-6.19,-5.37,-3.83
2024-12-06 12:45:48.335,58.27,488.0,0.87,0.5,-0.06,-5.76,-5.49,-3.47
2024-12-06 12:45:48.340,60.75,467.0,0.84,0.49,-0.06,-5.76,-5.49,-3.47
2024-12-06 12:45:48.348,58.5,465.0,0.84,0.48,-0.05,-5.58,-4.88,-4.02
2024-12-06 12:45:48.357,60.3,474.0,0.87,0.51,-0.04,-5.76,-4.76,-3.47
2024-12-06 12:45:48.365,62.32,464.0,0.86,0.5,-0.06,-5.94,-5.06,-2.37
2024-12-06 12:45:48.379,61.42,489.0,0.84,0.46,-0.07,-5.76,-4.69,-2.55
2024-12-06 12:45:48.409,60.52,476.0,0.88,0.48,-0.06,-6.31,-7.5,-0.97
2024-12-06 12:45:48.411,61.88,488.0,0.87,0.47,-0.06,-6.07,-7.44,-1.64
2024-12-06 12:45:48.419,62.77,492.0,0.87,0.47,-0.06,-6.25,-6.04,-2.13
2024-12-06 12:45:48.429,64.8,473.0,0.88,0.5,-0.05,-6.25,-6.89,-1.45
2024-12-06 12:45:48.434,67.5,501.0,0.88,0.54,-0.04,-6.25,-6.89,-1.45
2024-12-06 12:45:48.442,62.1,494.0,0.86,0.53,-0.02,-6.13,-9.33,-1.09
2024-12-06 12:45:48.450,63.45,488.0,0.85,0.51,-0.04,-5.94,-8.97,-1.82
2024-12-06 12:45:48.458,63.22,497.0,0.85,0.51,-0.05,-5.88,-6.95,-2.61
2024-12-06 12:45:48.467,60.3,479.0,0.85,0.51,-0.05,-5.52,-7.44,-2.49
2024-12-06 12:45:48.481,67.5,495.0,0.86,0.51,-0.05,-5.39,-7.44,-2.31
2024-12-06 12:45:48.484,64.35,487.0,0.86,0.49,-0.06,-5.39,-7.44,-2.31
2024-12-06 12:45:48.489,70.2,514.0,0.86,0.48,-0.06,-5.21,-7.44,-2.8
2024-12-06 12:45:48.497,68.4,479.0,0.86,0.5,-0.06,-4.78,-7.81,-2.98
2024-12-06 12:45:48.506,69.53,492.0,0.85,0.5,-0.07,-4.66,-7.62,-2.86
2024-12-06 12:45:48.513,67.5,486.0,0.85,0.5,-0.07,-4.36,-6.53,-3.04
2024-12-06 12:45:48.522,69.07,492.0,0.83,0.49,-0.05,-4.3,-5.73,-3.77
2024-12-06 12:45:48.543,69.3,488.0,0.83,0.49,-0.05,-4.3,-5.73,-3.77
2024-12-06 12:45:48.574,69.3,497.0,0.85,0.5,-0.06,-3.75,-5.43,-3.59
2024-12-06 12:45:48.583,72.0,496.0,0.85,0.49,-0.06,-3.93,-5.73,-3.53
2024-12-06 12:45:48.585,75.15,499.0,0.85,0.49,-0.06,-3.81,-5.98,-3.59
2024-12-06 12:45:48.591,71.78,520.0,0.85,0.48,-0.07,-3.87,-6.1,-3.59
2024-12-06 12:45:48.606,68.85,530.0,0.86,0.48,-0.07,-4.36,-5.67,-3.29
2024-12-06 12:45:48.614,73.8,504.0,0.87,0.5,-0.07,-4.36,-5.67,-3.29
2024-12-06 12:45:48.622,73.12,561.0,0.87,0.51,-0.07,-4.17,-5.85,-2.55
2024-12-06 12:45:48.632,76.05,508.0,0.87,0.5,-0.06,-3.69,-5.61,-1.64
2024-12-06 12:45:48.640,73.35,557.0,0.85,0.49,-0.07,-3.38,-4.88,-1.09
2024-12-06 12:45:48.646,74.25,541.0,0.85,0.49,-0.07,-3.07,-4.57,-0.97
2024-12-06 12:45:48.654,65.47,518.0,0.85,0.49,-0.07,-2.95,-4.39,-1.15
2024-12-06 12:45:48.666,67.05,522.0,0.85,0.48,-0.07,-2.95,-4.39,-1.15
2024-12-06 12:45:48.678,75.15,538.0,0.86,0.49,-0.07,-3.2,-4.51,-1.03
2024-12-06 12:45:48.681,72.22,513.0,0.87,0.49,-0.06,-3.5,-4.88,-0.66
2024-12-06 12:45:48.685,72.0,529.0,0.87,0.5,-0.06,-3.93,-4.69,-0.23
2024-12-06 12:45:48.694,73.12,535.0,0.87,0.5,-0.06,-4.11,-4.63,0.19
2024-12-06 12:45:48.700,72.9,525.0,0.87,0.5,-0.06,-4.3,-4.51,0.44
2024-12-06 12:45:48.709,78.07,525.0,0.86,0.5,-0.06,-4.3,-4.51,0.44
2024-12-06 12:45:48.716,74.03,518.0,0.86,0.49,-0.06,-4.23,-4.21,0.38
2024-12-06 12:45:48.725,76.05,527.0,0.86,0.48,-0.06,-4.17,-4.08,0.32
2024-12-06 12:45:48.732,78.07,531.0,0.86,0.47,-0.05,-4.05,-4.69,0.38
2024-12-06 12:45:48.742,78.07,541.0,0.86,0.47,-0.05,-3.87,-4.82,0.38
2024-12-06 12:45:48.747,72.0,552.0,0.87,0.46,-0.06,-3.99,-4.63,0.38
2024-12-06 12:45:48.759,72.0,537.0,0.88,0.47,-0.06,-3.99,-4.63,0.38
2024-12-06 12:45:48.766,72.67,548.0,0.88,0.47,-0.06,-4.05,-4.76,0.44
2024-12-06 12:45:48.797,77.85,529.0,0.87,0.48,-0.06,-4.23,-4.39,0.44
2024-12-06 12:45:48.812,77.4,538.0,0.85,0.49,-0.06,-4.11,-3.66,0.38
2024-12-06 12:45:48.814,81.0,553.0,0.85,0.48,-0.07,-3.81,-2.92,0.32
2024-12-06 12:45:48.817,77.85,542.0,0.85,0.48,-0.08,-3.5,-2.86,0.25
2024-12-06 12:45:48.824,79.2,540.0,0.85,0.48,-0.08,-3.32,-2.74,0.25
2024-12-06 12:45:48.832,77.4,549.0,0.86,0.48,-0.09,-3.32,-3.05,0.56
2024-12-06 12:45:48.931,81.9,562.0,0.86,0.49,-0.08,-3.14,-3.11,1.41
2024-12-06 12:45:48.939,81.67,570.0,0.86,0.5,-0.08,-3.14,-2.8,1.66
2024-12-06 12:45:48.949,82.12,587.0,0.86,0.5,-0.08,-3.01,-3.29,1.6
2024-12-06 12:45:48.956,79.2,563.0,0.86,0.51,-0.08,-3.01,-3.29,1.6
2024-12-06 12:45:48.965,83.25,567.0,0.86,0.5,-0.08,-3.14,-3.11,1.6
2024-12-06 12:45:48.972,82.35,562.0,0.86,0.49,-0.08,-2.89,-3.47,1.48
2024-12-06 12:45:48.978,83.47,575.0,0.86,0.49,-0.08,-2.95,-3.66,1.48
2024-12-06 12:45:48.986,84.6,561.0,0.86,0.5,-0.08,-3.01,-3.6,1.66
2024-12-06 12:45:48.994,83.47,585.0,0.87,0.5,-0.08,-3.2,-3.54,2.27
2024-12-06 12:45:49.26,77.85,586.0,0.87,0.51,-0.07,-2.89,-3.23,3.37
2024-12-06 12:45:49.36,82.8,583.0,0.87,0.51,-0.07,-2.95,-4.51,3.55
2024-12-06 12:45:49.43,83.7,626.0,0.85,0.48,-0.07,-3.07,-2.86,2.88
2024-12-06 12:45:49.48,78.75,578.0,0.85,0.46,-0.07,-3.07,-2.86,2.88
2024-12-06 12:45:49.56,83.25,596.0,0.86,0.48,-0.07,-2.95,-3.11,2.7
2024-12-06 12:45:49.76,80.78,581.0,0.87,0.48,-0.07,-2.65,-2.86,2.33
2024-12-06 12:45:49.81,83.7,585.0,0.87,0.48,-0.07,-2.1,-3.35,1.96
2024-12-06 12:45:49.98,78.75,570.0,0.86,0.47,-0.07,-2.1,-3.35,1.96
2024-12-06 12:45:49.105,86.85,578.0,0.86,0.46,-0.08,-1.85,-2.56,1.23
2024-12-06 12:45:49.108,84.15,579.0,0.85,0.45,-0.08,-1.37,-2.19,0.07
2024-12-06 12:45:49.110,81.0,572.0,0.85,0.46,-0.08,-0.94,-1.22,-1.33
2024-12-06 12:45:49.117,83.7,573.0,0.85,0.46,-0.08,-0.27,-0.97,-2.68
2024-12-06 12:45:49.125,79.42,601.0,0.85,0.48,-0.08,0.4,-0.42,-3.77
2024-12-06 12:45:49.144,82.35,577.0,0.84,0.49,-0.08,0.4,-0.42,-3.77
2024-12-06 12:45:49.155,83.92,576.0,0.85,0.5,-0.09,1.26,-0.42,-4.45
2024-12-06 12:45:49.162,83.7,583.0,0.86,0.5,-0.1,2.05,-1.7,-4.02
2024-12-06 12:45:49.165,82.8,575.0,0.86,0.5,-0.1,1.26,-1.34,-3.41
2024-12-06 12:45:49.171,81.0,584.0,0.85,0.49,-0.1,1.26,-1.34,-3.41
2024-12-06 12:45:49.199,87.52,572.0,0.84,0.46,-0.08,0.04,-2.8,-1.88
2024-12-06 12:45:49.202,82.57,569.0,0.84,0.47,-0.09,-0.63,-2.5,-1.27
2024-12-06 12:45:49.204,85.95,566.0,0.84,0.47,-0.08,-1.18,-1.4,-0.6
2024-12-06 12:45:49.214,83.7,573.0,0.85,0.5,-0.08,-1.06,-0.91,0.13
2024-12-06 12:45:49.246,84.6,584.0,0.86,0.5,-0.07,-1.06,-0.91,0.13
2024-12-06 12:45:49.253,85.05,577.0,0.89,0.48,-0.07,-0.82,-0.97,0.07
2024-12-06 12:45:49.257,84.6,571.0,0.89,0.48,-0.07,-0.82,-0.97,0.07
2024-12-06 12:45:49.267,82.12,592.0,0.88,0.48,-0.07,-1.0,-1.46,-0.66
2024-12-06 12:45:49.275,84.38,584.0,0.87,0.48,-0.07,-1.06,-1.7,-1.45
2024-12-06 12:45:49.280,79.65,575.0,0.87,0.48,-0.07,-0.82,-1.89,-2.0
2024-12-06 12:45:49.289,79.65,561.0,0.87,0.48,-0.08,-0.39,-2.01,-2.25
2024-12-06 12:45:49.296,81.45,590.0,0.88,0.48,-0.08,0.04,-2.5,-2.19
2024-12-06 12:45:49.304,86.4,575.0,0.88,0.48,-0.08,0.04,-2.68,-2.06
2024-12-06 12:45:49.316,85.5,565.0,0.87,0.48,-0.09,0.16,-2.68,-2.06
2024-12-06 12:45:49.324,85.72,569.0,0.86,0.47,-0.09,0.16,-2.5,-2.13
2024-12-06 12:45:49.327,84.15,544.0,0.86,0.47,-0.09,-0.02,-2.13,-2.13
2024-12-06 12:45:49.337,85.05,570.0,0.85,0.48,-0.09,-0.02,-1.7,-2.13
2024-12-06 12:45:49.353,81.22,592.0,0.85,0.48,-0.09,-0.02,-1.28,-2.06
2024-12-06 12:45:49.363,86.85,574.0,0.84,0.48,-0.09,0.04,-0.48,-1.88
2024-12-06 12:45:49.367,83.03,581.0,0.85,0.48,-0.08,0.28,-0.12,-1.52
2024-12-06 12:45:49.376,84.38,567.0,0.86,0.48,-0.09,0.47,0.07,-0.97
2024-12-06 12:45:49.388,83.92,579.0,0.87,0.48,-0.09,0.4,0.37,-0.48
2024-12-06 12:45:49.390,79.88,583.0,0.87,0.48,-0.09,0.28,0.13,-0.23
2024-12-06 12:45:49.399,83.92,565.0,0.87,0.48,-0.09,0.28,-0.12,0.07
2024-12-06 12:45:49.413,81.9,591.0,0.87,0.48,-0.09,0.16,-0.12,0.07
2024-12-06 12:45:49.415,81.22,574.0,0.87,0.48,-0.08,0.1,-0.48,0.01
2024-12-06 12:45:49.421,84.38,588.0,0.87,0.48,-0.08,0.04,-0.67,-0.11
2024-12-06 12:45:49.432,86.4,579.0,0.87,0.49,-0.08,0.04,-0.73,-0.42
2024-12-06 12:45:49.445,83.47,572.0,0.87,0.49,-0.08,0.1,-0.85,-0.54
2024-12-06 12:45:49.473,86.62,565.0,0.86,0.49,-0.08,0.47,-1.7,-0.42
2024-12-06 12:45:49.476,83.25,574.0,0.86,0.49,-0.08,0.28,-1.83,-0.48
2024-12-06 12:45:49.491,84.38,574.0,0.86,0.49,-0.08,0.22,-1.95,-0.66
2024-12-06 12:45:49.495,84.38,602.0,0.85,0.49,-0.08,0.22,-1.95,-0.66
2024-12-06 12:45:49.501,85.72,564.0,0.84,0.49,-0.08,0.04,-1.7,-0.84
2024-12-06 12:45:49.514,81.67,578.0,0.84,0.5,-0.08,0.04,-1.22,-1.03
2024-12-06 12:45:49.517,85.28,568.0,0.83,0.5,-0.08,0.28,-0.73,-1.09
2024-12-06 12:45:49.522,80.32,571.0,0.83,0.5,-0.08,0.59,-0.36,-1.09
2024-12-06 12:45:49.534,82.35,573.0,0.84,0.49,-0.08,0.59,-0.06,-1.03
2024-12-06 12:45:49.545,80.78,557.0,0.84,0.49,-0.08,0.77,-0.06,-1.03
2024-12-06 12:45:49.547,84.6,567.0,0.85,0.49,-0.09,0.77,0.0,-1.03
2024-12-06 12:45:49.554,84.38,574.0,0.85,0.49,-0.09,0.65,0.0,-1.15
2024-12-06 12:45:49.569,79.88,573.0,0.85,0.49,-0.09,0.47,-0.12,-1.27
2024-12-06 12:45:49.589,84.6,559.0,0.85,0.49,-0.09,0.4,-0.3,-1.33
2024-12-06 12:45:49.596,86.85,582.0,0.86,0.5,-0.09,0.77,-0.3,-1.39
2024-12-06 12:45:49.599,85.5,568.0,0.85,0.5,-0.09,0.95,-0.06,-1.33
2024-12-06 12:45:49.614,85.72,569.0,0.85,0.5,-0.09,1.2,0.19,-1.33
2024-12-06 12:45:49.617,83.03,571.0,0.85,0.5,-0.09,1.2,0.19,-1.33
2024-12-06 12:45:49.622,84.6,573.0,0.85,0.5,-0.09,1.38,0.19,-1.33
2024-12-06 12:45:49.631,84.82,538.0,0.86,0.49,-0.09,1.5,0.07,-1.39
2024-12-06 12:45:49.650,80.1,565.0,0.85,0.49,-0.1,1.44,-0.54,-1.58
2024-12-06 12:45:49.662,86.62,570.0,0.85,0.48,-0.1,1.44,-0.54,-1.82
2024-12-06 12:45:49.665,80.55,567.0,0.85,0.48,-0.09,1.32,-0.54,-1.82
2024-12-06 12:45:49.670,86.4,605.0,0.85,0.49,-0.09,1.2,-0.54,-2.0
2024-12-06 12:45:49.703,81.22,573.0,0.85,0.49,-0.09,1.2,-0.48,-1.94
2024-12-06 12:45:49.707,85.72,627.0,0.85,0.48,-0.09,1.01,-0.18,-1.94
2024-12-06 12:45:49.715,85.72,568.0,0.85,0.48,-0.09,0.77,0.13,-1.88
2024-12-06 12:45:49.723,86.4,569.0,0.85,0.48,-0.09,0.65,0.13,-1.76
2024-12-06 12:45:49.731,85.05,582.0,0.85,0.48,-0.09,0.47,0.25,-1.64
2024-12-06 12:45:49.740,85.72,567.0,0.85,0.48,-0.09,0.34,0.43,-1.45
2024-12-06 12:45:49.746,85.05,569.0,0.86,0.48,-0.09,0.34,0.43,-1.45
2024-12-06 12:45:49.756,82.35,567.0,0.86,0.49,-0.09,0.28,0.43,-1.39
2024-12-06 12:45:49.764,86.4,580.0,0.86,0.49,-0.09,0.22,0.49,-1.45
2024-12-06 12:45:49.773,85.95,565.0,0.86,0.49,-0.09,0.1,0.49,-1.58
2024-12-06 12:45:49.778,79.65,566.0,0.86,0.49,-0.09,0.04,0.62,-1.82
2024-12-06 12:45:49.786,81.22,574.0,0.86,0.49,-0.09,0.04,0.86,-2.13
2024-12-06 12:45:49.802,78.53,569.0,0.86,0.49,-0.09,0.04,0.86,-2.13
2024-12-06 12:45:49.807,85.72,555.0,0.86,0.48,-0.09,0.16,0.49,-2.25
2024-12-06 12:45:49.825,73.8,567.0,0.86,0.48,-0.1,0.28,0.55,-2.19
2024-12-06 12:45:49.828,84.38,571.0,0.86,0.48,-0.1,0.59,-0.06,-2.06
2024-12-06 12:45:49.831,85.72,567.0,0.86,0.49,-0.1,0.59,-0.06,-2.06
2024-12-06 12:45:49.839,84.6,566.0,0.86,0.49,-0.09,0.47,-0.36,-2.19
2024-12-06 12:45:49.847,85.28,569.0,0.85,0.49,-0.08,0.28,-0.79,-2.68
2024-12-06 12:45:49.858,83.47,581.0,0.84,0.49,-0.07,-0.02,-0.73,-3.29
2024-12-06 12:45:49.875,85.28,594.0,0.84,0.49,-0.07,-0.02,-0.54,-3.83
2024-12-06 12:45:49.881,84.6,594.0,0.84,0.49,-0.07,0.22,0.07,-4.38
2024-12-06 12:45:49.973,87.52,593.0,0.83,0.49,-0.07,0.22,0.07,-4.38
2024-12-06 12:45:49.978,81.67,573.0,0.86,0.51,-0.1,1.26,1.23,-3.04
2024-12-06 12:45:49.983,83.7,581.0,0.87,0.51,-0.1,1.44,1.53,-2.49
2024-12-06 12:45:49.991,80.55,577.0,0.87,0.51,-0.1,1.44,1.53,-2.49
2024-12-06 12:45:50.2,81.67,580.0,0.87,0.5,-0.1,1.38,1.59,-2.06
2024-12-06 12:45:50.8,83.92,575.0,0.87,0.5,-0.09,1.2,1.16,-1.7
2024-12-06 12:45:50.35,82.57,584.0,0.88,0.49,-0.08,0.83,0.37,-1.45
2024-12-06 12:45:50.39,84.15,578.0,0.87,0.49,-0.08,0.77,-0.06,-1.45
2024-12-06 12:45:50.45,83.7,576.0,0.87,0.48,-0.08,0.89,-0.24,-1.58
2024-12-06 12:45:50.53,84.38,580.0,0.86,0.48,-0.08,1.14,-0.18,-1.82
2024-12-06 12:45:50.62,81.9,578.0,0.86,0.49,-0.09,1.32,-0.12,-1.94
2024-12-06 12:45:50.69,85.95,580.0,0.86,0.49,-0.09,1.56,-0.12,-2.0
2024-12-06 12:45:50.77,84.38,599.0,0.86,0.49,-0.1,1.56,-0.12,-2.0
2024-12-06 12:45:50.86,85.72,593.0,0.85,0.5,-0.1,1.62,0.31,-1.88
2024-12-06 12:45:50.95,80.1,577.0,0.85,0.5,-0.09,1.56,0.25,-1.64
2024-12-06 12:45:50.101,83.92,571.0,0.85,0.49,-0.09,1.38,0.0,-1.45
2024-12-06 12:45:50.109,83.7,575.0,0.85,0.49,-0.09,1.08,0.07,-1.45
2024-12-06 12:45:50.118,75.6,576.0,0.85,0.49,-0.09,0.95,0.0,-1.39
2024-12-06 12:45:50.125,84.15,585.0,0.85,0.49,-0.09,0.95,0.0,-1.39
2024-12-06 12:45:50.136,84.82,567.0,0.85,0.49,-0.09,1.01,0.0,-1.39
2024-12-06 12:45:50.145,87.3,582.0,0.85,0.5,-0.09,1.2,0.74,-1.52
2024-12-06 12:45:50.151,84.38,564.0,0.85,0.51,-0.09,1.56,1.47,-1.45
2024-12-06 12:45:50.158,77.4,581.0,0.86,0.52,-0.09,2.24,1.59,-1.27
2024-12-06 12:45:50.194,86.62,557.0,0.85,0.48,-0.09,3.09,1.53,-2.13
2024-12-06 12:45:50.207,83.7,568.0,0.85,0.48,-0.09,3.03,1.41,-2.31
2024-12-06 12:45:50.228,84.38,559.0,0.85,0.49,-0.1,3.09,1.47,-2.31
2024-12-06 12:45:50.230,78.75,543.0,0.85,0.5,-0.1,3.27,1.23,-1.94
2024-12-06 12:45:50.235,85.05,549.0,0.85,0.51,-0.09,3.33,1.04,-1.58
