Timestamp,PosIsDeg,ForceIs,AccX,AccY,AccZ,GyroX,GyroY,GyroZ
2024-12-06 12:43:41.302,53.32,479.0,0.76,0.63,-0.03,-1.0,0.68,-2.06
2024-12-06 12:43:41.337,46.57,472.0,0.77,0.63,-0.04,-1.49,1.23,-3.1
2024-12-06 12:43:41.359,44.77,476.0,0.86,0.77,-0.02,-1.98,3.42,4.34
2024-12-06 12:43:41.384,42.97,495.0,0.81,0.7,-0.07,-3.2,3.48,14.66
2024-12-06 12:43:41.419,45.0,478.0,0.77,0.59,-0.08,-6.13,-1.64,13.8
2024-12-06 12:43:41.441,40.72,480.0,0.75,0.57,-0.05,-5.27,-6.1,10.63
2024-12-06 12:43:41.468,39.38,481.0,0.77,0.59,-0.03,-0.63,-0.73,11.36
2024-12-06 12:43:41.495,35.77,483.0,0.78,0.58,-0.03,3.33,2.87,11.42
2024-12-06 12:43:41.529,35.77,491.0,0.83,0.59,-0.04,4.01,0.49,10.08
2024-12-06 12:43:41.564,35.1,487.0,0.84,0.59,-0.03,3.52,-2.62,10.14
2024-12-06 12:43:41.580,36.67,485.0,0.81,0.59,-0.03,2.78,-4.15,10.75
2024-12-06 12:43:41.606,33.3,471.0,0.79,0.58,-0.01,1.14,-0.79,12.64
2024-12-06 12:43:41.642,37.8,489.0,0.79,0.57,-0.02,0.04,1.1,14.23
2024-12-06 12:43:41.679,33.52,489.0,0.81,0.54,-0.03,-0.51,2.26,13.01
2024-12-06 12:43:41.689,34.2,485.0,0.86,0.56,-0.05,0.77,0.0,14.54
2024-12-06 12:43:41.717,31.5,474.0,0.88,0.54,-0.07,2.54,0.13,17.89
2024-12-06 12:43:41.744,31.72,476.0,0.87,0.55,-0.06,3.94,0.98,18.57
2024-12-06 12:43:41.780,31.27,460.0,0.88,0.53,-0.05,3.88,2.26,20.64
2024-12-06 12:43:41.801,24.52,465.0,0.87,0.54,-0.02,3.82,1.23,20.88
2024-12-06 12:43:41.830,21.6,468.0,0.86,0.52,-0.03,4.01,0.31,20.52
2024-12-06 12:43:41.873,22.72,487.0,0.82,0.49,-0.03,3.94,-0.91,19.6
2024-12-06 12:43:41.886,23.85,471.0,0.81,0.49,-0.04,4.37,0.0,16.37
2024-12-06 12:43:41.912,21.82,476.0,0.85,0.5,-0.05,5.16,1.35,18.38
2024-12-06 12:43:42.18,23.85,478.0,0.84,0.47,-0.03,2.91,2.39,14.84
2024-12-06 12:43:42.21,15.3,476.0,0.82,0.43,-0.03,2.42,0.74,9.47
2024-12-06 12:43:42.49,15.52,480.0,0.81,0.41,-0.03,1.75,-0.85,4.53
2024-12-06 12:43:42.93,14.85,485.0,0.85,0.43,-0.02,1.87,0.68,3.92
2024-12-06 12:43:42.104,19.35,467.0,0.82,0.43,-0.04,1.26,2.93,2.33
2024-12-06 12:43:42.132,16.65,474.0,0.83,0.43,-0.05,-0.21,3.54,0.07
2024-12-06 12:43:42.160,13.95,469.0,0.86,0.44,-0.05,-1.3,2.26,-0.6
2024-12-06 12:43:42.210,15.75,489.0,0.87,0.47,-0.03,-1.43,1.23,1.96
2024-12-06 12:43:42.215,11.7,495.0,0.85,0.44,-0.04,-1.18,0.74,3.12
2024-12-06 12:43:42.242,8.55,470.0,0.82,0.48,-0.02,-0.45,-0.73,7.95
2024-12-06 12:43:42.280,14.4,466.0,1.03,0.26,-0.12,-2.46,6.72,-1.58
2024-12-06 12:43:42.315,7.42,451.0,0.96,0.46,-0.0,-1.55,3.67,3.92
2024-12-06 12:43:42.332,10.35,469.0,0.97,0.44,-0.05,-3.69,0.86,4.95
2024-12-06 12:43:42.360,8.32,466.0,0.94,0.43,-0.05,-2.16,-0.67,7.15
2024-12-06 12:43:42.383,6.3,482.0,0.91,0.44,-0.04,-0.88,0.98,7.27
2024-12-06 12:43:42.449,4.72,485.0,0.9,0.42,-0.02,0.4,0.62,8.49
2024-12-06 12:43:42.452,2.02,470.0,0.88,0.4,-0.02,0.04,-0.3,7.4
2024-12-06 12:43:42.468,0.9,468.0,0.9,0.42,-0.0,-1.0,-0.36,6.85
2024-12-06 12:43:43.820,2.02,476.0,0.88,0.41,-0.02,-1.24,-0.85,-2.19
2024-12-06 12:43:43.822,1.57,474.0,0.9,0.43,-0.02,-1.12,0.43,-1.7
2024-12-06 12:43:43.825,2.7,493.0,0.9,0.43,-0.02,-1.12,0.19,-1.82
2024-12-06 12:43:43.840,-1.35,489.0,0.9,0.42,-0.02,-1.12,0.19,-1.82
2024-12-06 12:43:43.858,0.22,486.0,0.91,0.42,-0.03,-0.94,0.49,-1.94
2024-12-06 12:43:43.862,1.35,482.0,0.92,0.42,-0.03,-0.45,-0.36,-1.39
2024-12-06 12:43:43.872,0.9,491.0,0.92,0.43,-0.03,-0.08,-0.18,-1.03
2024-12-06 12:43:43.904,3.82,502.0,0.92,0.43,-0.04,-0.08,-0.18,-1.03
2024-12-06 12:43:43.907,2.47,465.0,0.9,0.45,-0.03,0.28,-0.12,-0.42
2024-12-06 12:43:43.912,2.92,491.0,0.9,0.44,-0.03,0.28,-0.12,-0.42
2024-12-06 12:43:43.916,-1.12,488.0,0.9,0.44,-0.03,0.1,-0.18,-0.36
2024-12-06 12:43:43.928,1.12,484.0,0.9,0.43,-0.02,0.04,-0.42,-0.11
2024-12-06 12:43:43.953,2.25,470.0,0.89,0.42,-0.02,0.16,0.31,-0.05
2024-12-06 12:43:43.956,1.8,475.0,0.89,0.42,-0.03,0.47,0.37,0.01
2024-12-06 12:43:43.962,-1.35,471.0,0.89,0.42,-0.03,0.89,0.55,0.01
2024-12-06 12:43:43.973,-0.22,471.0,0.88,0.41,-0.03,1.38,0.55,-0.17
2024-12-06 12:43:43.977,1.57,486.0,0.88,0.41,-0.03,1.81,0.74,-0.78
2024-12-06 12:43:43.989,4.72,471.0,0.88,0.41,-0.04,1.81,0.74,-1.39
2024-12-06 12:43:43.998,2.92,483.0,0.88,0.41,-0.03,2.11,0.98,-1.39
2024-12-06 12:43:44.1,4.5,471.0,0.88,0.41,-0.03,2.24,0.55,-1.88
2024-12-06 12:43:44.141,1.57,476.0,0.89,0.41,-0.03,-0.57,0.25,-0.97
2024-12-06 12:43:44.150,1.8,466.0,0.9,0.42,-0.03,-0.51,0.55,-0.6
2024-12-06 12:43:44.154,3.15,483.0,0.9,0.42,-0.03,-0.45,0.74,-0.29
2024-12-06 12:43:44.160,3.38,467.0,0.9,0.42,-0.03,-0.45,0.8,-0.05
2024-12-06 12:43:44.172,4.28,484.0,0.9,0.42,-0.03,-0.39,0.86,0.13
2024-12-06 12:43:44.176,2.25,467.0,0.9,0.42,-0.03,-0.39,0.86,0.25
2024-12-06 12:43:44.183,4.05,470.0,0.91,0.41,-0.03,-0.27,0.86,0.25
2024-12-06 12:43:44.190,2.92,470.0,0.91,0.41,-0.03,-0.21,0.74,0.25
2024-12-06 12:43:44.207,3.6,483.0,0.91,0.41,-0.02,-0.15,0.49,0.38
2024-12-06 12:43:44.243,2.47,469.0,0.91,0.43,-0.03,0.16,0.37,0.25
2024-12-06 12:43:44.250,-3.82,478.0,0.91,0.42,-0.02,0.59,0.07,0.19
2024-12-06 12:43:44.258,2.25,464.0,0.9,0.41,-0.02,0.59,0.07,0.19
2024-12-06 12:43:44.270,0.0,489.0,0.9,0.41,-0.03,0.77,0.19,-0.11
2024-12-06 12:43:44.281,-0.22,469.0,0.9,0.41,-0.03,0.95,0.62,-0.36
2024-12-06 12:43:44.287,-1.12,478.0,0.91,0.42,-0.02,0.95,0.19,-0.23
2024-12-06 12:43:44.296,1.12,467.0,0.91,0.42,-0.02,0.95,0.07,0.01
2024-12-06 12:43:44.300,-5.4,485.0,0.9,0.43,-0.02,0.95,0.31,0.19
2024-12-06 12:43:44.311,2.25,466.0,0.9,0.43,-0.02,0.89,0.31,0.19
2024-12-06 12:43:44.313,0.22,475.0,0.89,0.43,-0.02,0.95,0.55,0.25
2024-12-06 12:43:44.321,1.8,467.0,0.9,0.42,-0.02,0.95,0.74,0.32
2024-12-06 12:43:44.363,2.7,462.0,0.91,0.41,-0.02,1.08,0.74,0.74
2024-12-06 12:43:44.365,6.3,466.0,0.91,0.41,-0.02,1.2,0.8,1.23
2024-12-06 12:43:44.373,-1.35,471.0,0.92,0.42,-0.02,1.32,1.35,1.84
2024-12-06 12:43:44.381,2.02,483.0,0.92,0.43,-0.03,1.32,1.35,1.84
2024-12-06 12:43:44.391,0.9,477.0,0.93,0.44,-0.02,1.32,1.84,2.51
2024-12-06 12:43:44.399,0.45,472.0,0.93,0.43,-0.01,1.14,1.71,3.18
2024-12-06 12:43:44.409,-2.92,472.0,0.93,0.42,-0.01,0.83,1.53,3.67
2024-12-06 12:43:44.412,-1.12,483.0,0.93,0.42,-0.01,0.47,1.1,3.92
2024-12-06 12:43:44.423,-0.45,482.0,0.92,0.42,-0.01,0.47,1.1,3.98
2024-12-06 12:43:44.427,4.5,493.0,0.92,0.41,-0.01,0.16,0.92,3.98
2024-12-06 12:43:44.435,-6.07,472.0,0.92,0.42,-0.02,0.04,0.07,4.04
2024-12-06 12:43:44.444,2.25,483.0,0.91,0.42,-0.03,-0.02,-0.24,4.1
2024-12-06 12:43:44.481,-1.8,463.0,0.9,0.41,-0.01,-0.02,-0.12,4.53
2024-12-06 12:43:44.488,0.22,474.0,0.9,0.41,-0.01,0.04,-0.18,4.65
2024-12-06 12:43:44.510,4.28,479.0,0.9,0.41,-0.02,0.28,0.25,4.77
2024-12-06 12:43:44.513,4.72,482.0,0.9,0.41,-0.02,0.53,0.74,4.89
2024-12-06 12:43:44.529,1.8,493.0,0.91,0.41,-0.02,0.83,0.68,5.44
2024-12-06 12:43:44.536,2.25,473.0,0.91,0.4,-0.02,0.95,0.62,5.5
2024-12-06 12:43:44.555,4.05,482.0,0.91,0.4,-0.03,1.08,0.68,5.38
2024-12-06 12:43:44.585,0.67,490.0,0.92,0.39,-0.02,0.59,-0.18,6.11
2024-12-06 12:43:44.587,3.6,470.0,0.91,0.39,-0.02,0.34,-0.67,6.18
2024-12-06 12:43:44.595,2.47,486.0,0.91,0.39,-0.02,0.22,-0.24,5.93
2024-12-06 12:43:44.612,4.95,487.0,0.91,0.4,-0.01,0.28,0.19,5.81
2024-12-06 12:43:44.620,4.72,474.0,0.91,0.4,-0.01,0.34,0.49,5.99
2024-12-06 12:43:44.623,2.47,463.0,0.91,0.4,-0.01,0.34,0.49,6.42
2024-12-06 12:43:44.629,3.82,484.0,0.92,0.4,-0.01,0.4,0.62,6.42
2024-12-06 12:43:44.634,3.38,477.0,0.92,0.39,-0.02,0.47,1.04,6.91
2024-12-06 12:43:44.641,2.7,467.0,0.91,0.38,-0.01,0.34,0.98,7.21
2024-12-06 12:43:44.652,-0.9,461.0,0.91,0.38,-0.02,0.22,0.92,7.09
2024-12-06 12:43:44.656,3.15,467.0,0.91,0.38,-0.02,0.1,1.35,6.97
2024-12-06 12:43:44.665,0.67,480.0,0.91,0.38,-0.02,0.1,1.35,6.97
2024-12-06 12:43:44.694,3.15,471.0,0.93,0.38,-0.02,-0.69,0.25,8.07
2024-12-06 12:43:44.705,-1.12,480.0,0.93,0.38,-0.02,-0.69,0.25,8.07
2024-12-06 12:43:44.711,1.35,479.0,0.93,0.38,-0.02,-1.06,-0.3,8.68
2024-12-06 12:43:44.717,4.05,473.0,0.92,0.37,-0.02,-1.37,-0.06,8.86
2024-12-06 12:43:44.729,3.15,457.0,0.91,0.37,-0.01,-1.55,-0.18,8.92
2024-12-06 12:43:44.734,5.4,468.0,0.91,0.37,-0.01,-1.73,-0.12,8.98
2024-12-06 12:43:44.742,-0.67,468.0,0.91,0.37,-0.01,-1.79,-0.24,8.98
2024-12-06 12:43:44.758,-1.35,467.0,0.92,0.37,-0.02,-1.79,-0.24,8.98
2024-12-06 12:43:44.767,-1.12,475.0,0.92,0.37,-0.01,-1.85,0.13,8.92
2024-12-06 12:43:44.778,-2.92,456.0,0.92,0.37,-0.01,-1.92,-0.12,8.8
2024-12-06 12:43:44.796,-6.07,475.0,0.9,0.37,-0.0,-1.61,-3.29,6.6
2024-12-06 12:43:44.799,5.62,467.0,0.83,0.34,-0.05,-1.73,-0.97,2.57
2024-12-06 12:43:44.802,0.45,478.0,0.87,0.35,-0.01,-1.3,0.62,0.19
2024-12-06 12:43:44.814,4.72,470.0,0.88,0.35,0.01,-0.69,-3.11,-0.91
2024-12-06 12:43:44.822,5.17,457.0,0.88,0.35,0.01,-0.76,-2.07,-2.43
2024-12-06 12:43:44.825,9.68,445.0,0.87,0.33,-0.03,-0.76,-2.07,-3.96
2024-12-06 12:43:44.835,6.97,467.0,0.86,0.33,-0.02,-0.45,-1.58,-3.96
2024-12-06 12:43:44.841,5.17,457.0,0.87,0.34,-0.01,-0.02,-2.13,-5.42
2024-12-06 12:43:44.851,8.55,458.0,0.88,0.35,-0.03,0.16,-0.91,-6.4
2024-12-06 12:43:44.862,7.88,481.0,0.89,0.36,-0.02,0.65,-0.61,-6.95
2024-12-06 12:43:44.880,6.07,462.0,0.85,0.35,-0.06,1.26,-1.34,-9.88
2024-12-06 12:43:44.889,6.75,461.0,0.89,0.36,-0.04,1.44,1.16,-11.16
2024-12-06 12:43:44.924,11.92,459.0,0.92,0.37,-0.04,1.44,1.1,-12.68
2024-12-06 12:43:44.926,12.82,463.0,0.92,0.39,0.0,2.54,-2.99,-11.83
2024-12-06 12:43:44.937,15.75,472.0,0.88,0.38,-0.05,2.85,-4.02,-12.26
2024-12-06 12:43:44.945,15.07,478.0,0.9,0.38,-0.04,2.42,0.74,-13.3
2024-12-06 12:43:44.950,18.0,472.0,0.9,0.38,-0.04,3.39,-2.68,-12.99
2024-12-06 12:43:44.959,16.2,477.0,0.91,0.4,0.0,3.64,-3.54,-13.05
2024-12-06 12:43:44.967,19.12,479.0,0.9,0.39,-0.05,3.64,-3.54,-13.05
2024-12-06 12:43:44.977,18.0,464.0,0.9,0.39,-0.04,3.64,-0.3,-13.6
2024-12-06 12:43:44.984,15.75,485.0,0.88,0.38,-0.01,4.25,-3.35,-14.21
2024-12-06 12:43:44.995,20.02,470.0,0.88,0.38,-0.05,3.76,-2.74,-15.25
2024-12-06 12:43:44.999,16.88,468.0,0.88,0.38,-0.05,3.76,-0.36,-15.37
2024-12-06 12:43:45.10,22.72,502.0,0.91,0.4,-0.02,4.43,-3.9,-14.58
2024-12-06 12:43:45.14,18.0,482.0,0.92,0.4,-0.02,4.43,-3.9,-14.58
2024-12-06 12:43:45.23,21.6,473.0,0.91,0.38,-0.04,4.19,-4.33,-14.27
2024-12-06 12:43:45.35,21.15,475.0,0.9,0.39,-0.02,4.55,-5.0,-14.27
2024-12-06 12:43:45.40,23.62,486.0,0.9,0.39,-0.04,4.62,-6.04,-14.7
2024-12-06 12:43:45.45,20.92,463.0,0.9,0.41,-0.04,4.07,-5.0,-14.82
2024-12-06 12:43:45.55,25.88,474.0,0.91,0.41,-0.04,4.62,-5.98,-14.58
2024-12-06 12:43:45.62,20.92,490.0,0.91,0.42,-0.03,4.62,-5.98,-14.39
2024-12-06 12:43:45.169,28.12,471.0,0.91,0.42,-0.04,4.62,-4.94,-14.39
2024-12-06 12:43:45.197,34.88,492.0,0.89,0.44,-0.05,0.28,-0.97,-11.77
2024-12-06 12:43:45.201,35.77,496.0,0.92,0.45,-0.04,-0.15,-1.28,-10.79
2024-12-06 12:43:45.207,35.33,479.0,0.92,0.46,-0.04,-0.45,-2.8,-9.08
2024-12-06 12:43:45.219,33.75,483.0,0.92,0.46,-0.04,-0.82,-3.54,-8.41
2024-12-06 12:43:45.222,32.85,483.0,0.9,0.44,-0.06,-0.82,-3.54,-8.41
2024-12-06 12:43:45.230,38.47,495.0,0.91,0.45,-0.05,-1.24,-1.83,-8.23
2024-12-06 12:43:45.238,38.02,493.0,0.93,0.48,-0.03,-1.49,-2.62,-7.01
2024-12-06 12:43:45.246,34.88,511.0,0.91,0.47,-0.03,-1.73,-3.47,-6.15
2024-12-06 12:43:45.259,35.55,512.0,0.89,0.46,-0.03,-2.22,-1.95,-6.46
2024-12-06 12:43:45.261,33.75,488.0,0.89,0.46,-0.03,-2.4,-2.31,-6.64
2024-12-06 12:43:45.285,40.05,483.0,0.9,0.45,-0.02,-2.71,-2.68,-6.34
2024-12-06 12:43:45.288,38.7,487.0,0.91,0.45,-0.02,-3.07,-2.31,-6.03
2024-12-06 12:43:45.292,38.02,490.0,0.91,0.46,-0.02,-3.14,-3.05,-5.48
2024-12-06 12:43:45.326,41.62,485.0,0.91,0.46,-0.02,-3.75,-3.29,-5.18
2024-12-06 12:43:45.332,42.3,504.0,0.91,0.47,-0.03,-4.17,-5.12,-4.08
2024-12-06 12:43:45.367,40.95,511.0,0.88,0.47,-0.05,-4.54,-4.45,-3.71
2024-12-06 12:43:45.370,42.75,502.0,0.87,0.45,-0.06,-5.09,-2.8,-2.92
2024-12-06 12:43:45.390,41.85,569.0,0.88,0.46,-0.06,-4.91,-4.76,-1.7
2024-12-06 12:43:45.402,44.55,501.0,0.89,0.48,-0.06,-4.84,-4.69,-1.21
2024-12-06 12:43:45.406,47.47,535.0,0.88,0.48,-0.07,-4.84,-4.69,-1.21
2024-12-06 12:43:45.415,45.67,518.0,0.88,0.48,-0.05,-5.03,-4.08,-1.09
2024-12-06 12:43:45.418,42.75,503.0,0.87,0.47,-0.05,-4.84,-4.88,-1.15
2024-12-06 12:43:45.424,41.62,519.0,0.86,0.46,-0.06,-5.15,-3.9,-1.76
2024-12-06 12:43:45.433,46.35,531.0,0.86,0.46,-0.06,-5.09,-3.47,-2.19
2024-12-06 12:43:45.439,43.88,518.0,0.87,0.46,-0.06,-4.54,-4.21,-2.0
2024-12-06 12:43:45.453,47.47,507.0,0.88,0.47,-0.06,-4.54,-4.21,-2.0
2024-12-06 12:43:45.457,45.0,507.0,0.88,0.48,-0.06,-4.11,-4.27,-1.76
2024-12-06 12:43:45.470,42.52,512.0,0.86,0.48,-0.05,-3.44,-5.18,-1.82
2024-12-06 12:43:45.472,44.32,515.0,0.84,0.47,-0.06,-3.01,-5.06,-2.86
2024-12-06 12:43:45.478,46.57,516.0,0.84,0.47,-0.06,-2.95,-3.72,-4.26
2024-12-06 12:43:45.489,51.52,509.0,0.85,0.46,-0.06,-2.71,-3.41,-4.87
2024-12-06 12:43:45.496,49.5,518.0,0.87,0.48,-0.05,-2.71,-3.41,-4.87
2024-12-06 12:43:45.503,49.27,528.0,0.86,0.49,-0.05,-2.46,-3.11,-4.93
2024-12-06 12:43:45.512,49.95,515.0,0.85,0.49,-0.06,-1.92,-2.68,-5.06
2024-12-06 12:43:45.525,51.07,531.0,0.84,0.48,-0.06,-1.3,-3.17,-5.42
2024-12-06 12:43:45.528,50.62,531.0,0.84,0.48,-0.06,-1.06,-2.99,-5.97
2024-12-06 12:43:45.535,46.8,535.0,0.84,0.46,-0.06,-1.06,-1.83,-6.46
2024-12-06 12:43:45.544,49.72,534.0,0.85,0.46,-0.06,-1.06,-1.83,-6.46
2024-12-06 12:43:45.549,48.38,520.0,0.86,0.47,-0.06,-0.76,-1.46,-6.15
2024-12-06 12:43:45.557,50.4,546.0,0.86,0.48,-0.07,-0.33,-1.15,-5.6
2024-12-06 12:43:45.611,55.8,531.0,0.85,0.48,-0.07,-0.08,-0.91,-5.24
2024-12-06 12:43:45.615,55.35,532.0,0.87,0.48,-0.06,0.34,2.93,-4.26
2024-12-06 12:43:45.629,53.77,557.0,0.88,0.48,-0.06,0.34,2.93,-4.26
2024-12-06 12:43:45.634,55.8,547.0,0.86,0.44,-0.06,0.59,3.12,-4.57
2024-12-06 12:43:45.645,56.7,551.0,0.88,0.45,-0.05,0.47,4.09,-4.99
2024-12-06 12:43:45.650,55.35,546.0,0.88,0.48,-0.05,0.71,4.16,-4.38
2024-12-06 12:43:45.657,56.25,541.0,0.9,0.48,-0.05,1.2,4.28,-3.59
2024-12-06 12:43:45.666,54.45,567.0,0.9,0.49,-0.05,1.2,4.28,-3.47
2024-12-06 12:43:45.677,58.72,540.0,0.88,0.48,-0.04,1.75,3.36,-3.47
2024-12-06 12:43:45.684,55.8,541.0,0.88,0.47,-0.05,1.56,3.18,-3.71
2024-12-06 12:43:45.690,56.92,565.0,0.9,0.46,-0.05,1.14,3.48,-3.35
2024-12-06 12:43:45.697,56.47,554.0,0.91,0.46,-0.05,1.08,3.18,-2.74
2024-12-06 12:43:45.716,57.38,561.0,0.91,0.46,-0.05,1.08,2.75,-2.19
2024-12-06 12:43:45.720,59.17,548.0,0.9,0.47,-0.04,1.01,2.02,-1.94
2024-12-06 12:43:45.722,58.72,549.0,0.88,0.46,-0.04,1.01,2.02,-1.94
2024-12-06 12:43:45.729,62.32,541.0,0.87,0.46,-0.04,0.89,1.84,-2.31
2024-12-06 12:43:45.737,61.2,562.0,0.88,0.47,-0.03,0.71,1.65,-2.74
2024-12-06 12:43:45.744,61.2,556.0,0.89,0.48,-0.04,0.53,1.71,-2.61
2024-12-06 12:43:45.756,62.1,564.0,0.89,0.48,-0.04,0.59,1.41,-2.13
2024-12-06 12:43:45.762,59.4,574.0,0.88,0.48,-0.03,0.59,1.41,-2.31
2024-12-06 12:43:45.767,60.07,569.0,0.86,0.47,-0.03,0.59,0.86,-2.31
2024-12-06 12:43:45.775,65.7,547.0,0.85,0.45,-0.03,0.34,0.86,-3.29
2024-12-06 12:43:45.786,61.2,575.0,0.87,0.45,-0.03,-0.21,1.29,-3.77
2024-12-06 12:43:45.819,60.97,574.0,0.89,0.46,-0.02,-0.51,0.8,-3.35
2024-12-06 12:43:45.821,62.32,580.0,0.86,0.43,-0.03,-1.37,-1.58,-3.22
2024-12-06 12:43:45.833,65.03,573.0,0.88,0.44,-0.03,-2.16,-0.91,-3.04
2024-12-06 12:43:45.837,67.5,569.0,0.88,0.44,-0.03,-2.65,-0.97,-2.25
2024-12-06 12:43:45.847,61.2,573.0,0.88,0.45,-0.02,-3.26,-0.91,-1.58
2024-12-06 12:43:45.853,66.82,589.0,0.88,0.46,-0.02,-3.26,-0.91,-1.58
2024-12-06 12:43:45.862,69.07,614.0,0.87,0.47,-0.02,-3.87,-0.73,-1.27
2024-12-06 12:43:45.869,69.97,563.0,0.87,0.46,-0.03,-4.23,-0.67,-0.91
2024-12-06 12:43:45.877,67.28,584.0,0.88,0.45,-0.04,-4.48,0.25,-0.29
2024-12-06 12:43:45.887,71.1,573.0,0.88,0.45,-0.04,-4.05,0.19,0.19
2024-12-06 12:43:45.907,68.17,578.0,0.9,0.45,-0.06,-3.93,0.74,0.99
2024-12-06 12:43:45.913,67.28,593.0,0.9,0.46,-0.04,-3.44,-1.09,1.29
2024-12-06 12:43:45.920,69.3,598.0,0.89,0.48,-0.05,-3.81,-2.5,0.99
2024-12-06 12:43:45.929,70.65,569.0,0.89,0.48,-0.04,-4.36,-2.25,0.74
2024-12-06 12:43:45.941,71.1,571.0,0.89,0.48,-0.04,-4.05,-3.11,0.56
2024-12-06 12:43:45.943,70.2,586.0,0.89,0.47,-0.04,-4.05,-3.11,0.56
2024-12-06 12:43:45.949,66.82,584.0,0.88,0.47,-0.05,-4.05,-2.8,0.01
2024-12-06 12:43:45.956,73.8,590.0,0.87,0.49,-0.05,-3.99,-3.23,-0.54
2024-12-06 12:43:45.964,71.55,603.0,0.87,0.5,-0.05,-4.05,-3.6,-0.91
2024-12-06 12:43:45.974,68.85,586.0,0.86,0.49,-0.05,-3.75,-3.72,-1.09
2024-12-06 12:43:45.979,72.0,583.0,0.86,0.49,-0.05,-3.32,-4.02,-1.21
2024-12-06 12:43:45.986,66.15,571.0,0.85,0.49,-0.03,-3.32,-4.02,-1.27
2024-12-06 12:43:45.995,74.25,581.0,0.85,0.48,-0.03,-3.38,-3.41,-1.27
2024-12-06 12:43:46.2,72.67,586.0,0.86,0.47,-0.03,-3.32,-3.35,-1.21
2024-12-06 12:43:46.10,70.2,593.0,0.85,0.47,-0.04,-3.2,-3.54,-1.52
2024-12-06 12:43:46.20,74.92,576.0,0.86,0.49,-0.05,-3.5,-3.05,-1.64
2024-12-06 12:43:46.45,71.78,578.0,0.87,0.49,-0.05,-3.14,-2.74,-1.21
2024-12-06 12:43:46.53,74.7,594.0,0.87,0.5,-0.05,-2.71,-2.5,-1.03
2024-12-06 12:43:46.56,74.25,582.0,0.86,0.5,-0.04,-2.53,-2.31,-0.97
2024-12-06 12:43:46.65,73.8,596.0,0.87,0.49,-0.03,-2.65,-2.13,-0.78
2024-12-06 12:43:46.73,73.12,592.0,0.87,0.49,-0.03,-2.53,-2.74,-0.6
2024-12-06 12:43:46.84,74.92,588.0,0.88,0.48,-0.04,-2.53,-2.74,-0.54
2024-12-06 12:43:46.92,73.57,583.0,0.88,0.47,-0.05,-2.53,-2.74,-0.54
2024-12-06 12:43:46.98,70.88,604.0,0.89,0.47,-0.05,-2.46,-2.74,-0.17
2024-12-06 12:43:46.105,72.45,581.0,0.89,0.47,-0.05,-2.34,-2.74,0.19
2024-12-06 12:43:46.114,75.38,600.0,0.88,0.48,-0.05,-2.16,-2.44,0.32
2024-12-06 12:43:46.209,76.28,599.0,0.88,0.48,-0.05,-1.79,-2.01,0.44
2024-12-06 12:43:46.220,79.88,623.0,0.87,0.47,-0.03,-2.34,-1.34,-0.42
2024-12-06 12:43:46.235,76.95,604.0,0.87,0.46,-0.02,-2.34,-0.85,-0.17
2024-12-06 12:43:46.241,77.85,617.0,0.87,0.46,-0.02,-2.1,0.07,0.13
2024-12-06 12:43:46.243,77.62,612.0,0.87,0.46,-0.02,-1.92,0.8,0.56
2024-12-06 12:43:46.251,77.17,616.0,0.88,0.46,-0.02,-1.92,0.8,1.17
2024-12-06 12:43:46.261,77.17,615.0,0.89,0.46,-0.03,-1.73,1.59,1.17
2024-12-06 12:43:46.291,79.88,619.0,0.89,0.46,-0.08,-0.94,0.13,1.96
2024-12-06 12:43:46.296,75.82,638.0,0.88,0.45,-0.07,-0.94,0.13,1.96
2024-12-06 12:43:46.305,79.2,618.0,0.87,0.45,-0.06,-1.3,-1.09,1.6
2024-12-06 12:43:46.312,82.12,618.0,0.86,0.46,-0.04,-1.92,-1.95,1.05
2024-12-06 12:43:46.322,81.9,619.0,0.87,0.47,-0.04,-2.53,-2.62,0.99
2024-12-06 12:43:46.329,77.17,618.0,0.87,0.47,-0.04,-2.77,-2.86,1.11
2024-12-06 12:43:46.338,80.1,618.0,0.87,0.47,-0.04,-2.83,-3.23,1.29
2024-12-06 12:43:46.344,82.57,625.0,0.88,0.47,-0.05,-2.83,-3.23,1.29
2024-12-06 12:43:46.352,80.32,617.0,0.88,0.47,-0.06,-2.95,-3.17,1.96
2024-12-06 12:43:46.360,71.32,627.0,0.89,0.47,-0.06,-2.77,-3.11,3.0
2024-12-06 12:43:46.369,78.53,642.0,0.88,0.47,-0.07,-2.34,-3.96,3.79
2024-12-06 12:43:46.378,76.28,630.0,0.88,0.47,-0.07,-2.22,-4.57,3.98
2024-12-06 12:43:46.385,80.55,638.0,0.87,0.47,-0.07,-2.53,-5.43,3.92
2024-12-06 12:43:46.394,81.0,643.0,0.87,0.48,-0.06,-2.53,-5.43,3.92
2024-12-06 12:43:46.402,83.7,640.0,0.87,0.47,-0.05,-3.32,-6.34,3.73
2024-12-06 12:43:46.413,81.67,644.0,0.88,0.45,-0.05,-3.93,-6.59,3.61
2024-12-06 12:43:46.416,81.45,642.0,0.89,0.44,-0.05,-4.36,-7.69,3.37
2024-12-06 12:43:46.425,83.03,637.0,0.9,0.44,-0.06,-4.84,-8.36,3.0
2024-12-06 12:43:46.431,79.2,638.0,0.9,0.44,-0.06,-5.21,-8.85,3.0
2024-12-06 12:43:46.442,83.92,630.0,0.9,0.44,-0.06,-5.21,-8.85,2.88
2024-12-06 12:43:46.449,83.7,648.0,0.89,0.45,-0.05,-5.09,-8.85,2.88
2024-12-06 12:43:46.457,82.12,644.0,0.87,0.46,-0.04,-4.72,-8.97,2.63
2024-12-06 12:43:46.463,79.88,662.0,0.86,0.46,-0.04,-4.11,-8.17,1.78
2024-12-06 12:43:46.477,82.35,662.0,0.86,0.46,-0.04,-3.87,-7.44,1.23
2024-12-06 12:43:46.508,85.05,673.0,0.86,0.46,-0.04,-3.99,-6.59,1.23
2024-12-06 12:43:46.512,80.32,681.0,0.87,0.44,-0.06,-3.62,-5.55,2.02
2024-12-06 12:43:46.517,83.25,651.0,0.87,0.44,-0.06,-3.75,-5.43,1.96
2024-12-06 12:43:46.525,85.95,658.0,0.87,0.45,-0.07,-3.75,-6.04,1.84
2024-12-06 12:43:46.533,84.6,664.0,0.87,0.46,-0.07,-3.75,-6.04,1.84
2024-12-06 12:43:46.544,80.55,643.0,0.87,0.47,-0.06,-3.93,-5.79,1.66
2024-12-06 12:43:46.549,84.15,656.0,0.86,0.47,-0.06,-3.93,-6.77,1.35
2024-12-06 12:43:46.572,81.9,624.0,0.87,0.47,-0.05,-4.11,-6.22,0.74
2024-12-06 12:43:46.581,84.38,664.0,0.87,0.47,-0.06,-3.75,-5.85,0.01
2024-12-06 12:43:46.586,85.72,673.0,0.88,0.46,-0.06,-3.75,-5.85,0.01
2024-12-06 12:43:46.588,84.6,646.0,0.88,0.46,-0.06,-3.26,-5.92,-0.05
2024-12-06 12:43:46.596,82.35,658.0,0.88,0.47,-0.06,-2.83,-5.18,-0.17
2024-12-06 12:43:46.604,85.05,666.0,0.87,0.49,-0.07,-2.28,-4.82,0.01
2024-12-06 12:43:46.618,84.6,654.0,0.87,0.49,-0.07,-1.73,-4.69,0.07
2024-12-06 12:43:46.623,85.5,692.0,0.85,0.49,-0.08,-1.73,-4.69,0.07
2024-12-06 12:43:46.639,79.65,682.0,0.87,0.48,-0.07,-0.88,-4.39,-0.48
2024-12-06 12:43:46.641,84.6,669.0,0.87,0.5,-0.07,-1.37,-5.37,-0.23
2024-12-06 12:43:46.649,84.82,653.0,0.87,0.5,-0.07,-1.79,-5.12,-0.23
2024-12-06 12:43:46.657,81.45,665.0,0.86,0.49,-0.06,-1.55,-4.27,-0.17
2024-12-06 12:43:46.665,86.62,652.0,0.86,0.47,-0.07,-1.55,-4.27,-0.17
2024-12-06 12:43:46.676,83.7,668.0,0.87,0.45,-0.08,-0.69,-3.72,-0.23
2024-12-06 12:43:46.684,82.57,668.0,0.88,0.44,-0.09,0.1,-3.17,-0.42
2024-12-06 12:43:46.688,84.82,662.0,0.88,0.46,-0.1,0.4,-3.29,-0.36
2024-12-06 12:43:46.701,80.78,657.0,0.88,0.49,-0.09,0.71,-3.41,-0.23
2024-12-06 12:43:46.705,85.72,660.0,0.88,0.47,-0.09,1.2,-3.66,-0.11
2024-12-06 12:43:46.715,84.6,653.0,0.88,0.47,-0.07,1.2,-3.66,-0.11
2024-12-06 12:43:46.743,81.9,672.0,0.89,0.45,-0.09,1.01,-4.45,0.32
2024-12-06 12:43:46.748,86.4,651.0,0.89,0.45,-0.09,1.08,-4.33,0.5
2024-12-06 12:43:46.750,83.25,649.0,0.9,0.45,-0.09,1.08,-4.33,0.93
2024-12-06 12:43:46.758,79.2,632.0,0.89,0.45,-0.08,1.5,-4.08,0.93
2024-12-06 12:43:46.770,84.6,676.0,0.88,0.46,-0.07,1.93,-4.33,1.17
2024-12-06 12:43:46.778,79.88,676.0,0.87,0.47,-0.06,1.99,-3.66,1.17
2024-12-06 12:43:46.782,83.7,681.0,0.87,0.47,-0.06,1.87,-3.29,1.35
2024-12-06 12:43:46.790,86.4,674.0,0.87,0.47,-0.06,1.56,-3.23,1.54
2024-12-06 12:43:46.799,81.45,665.0,0.87,0.47,-0.06,1.01,-2.62,1.84
2024-12-06 12:43:46.806,85.05,667.0,0.88,0.46,-0.06,1.01,-2.62,1.84
2024-12-06 12:43:46.820,78.53,675.0,0.88,0.45,-0.07,0.65,-2.25,2.21
2024-12-06 12:43:46.824,80.78,660.0,0.88,0.45,-0.09,0.34,-1.95,2.63
2024-12-06 12:43:46.830,84.15,685.0,0.88,0.45,-0.09,0.28,-1.95,3.12
2024-12-06 12:43:46.840,86.62,671.0,0.88,0.45,-0.1,0.53,-1.64,3.55
2024-12-06 12:43:46.848,86.4,677.0,0.88,0.45,-0.1,0.83,-2.38,3.37
2024-12-06 12:43:46.854,85.5,674.0,0.86,0.46,-0.09,0.83,-2.38,3.37
2024-12-06 12:43:46.863,86.4,669.0,0.86,0.46,-0.08,0.71,-2.31,2.82
2024-12-06 12:43:46.870,79.42,680.0,0.86,0.45,-0.08,0.65,-2.68,2.27
2024-12-06 12:43:46.877,85.05,685.0,0.87,0.44,-0.08,0.59,-2.68,1.78
2024-12-06 12:43:46.886,85.95,697.0,0.87,0.41,-0.09,0.59,-3.05,1.35
2024-12-06 12:43:46.894,80.55,680.0,0.87,0.44,-0.09,0.4,-2.92,0.93
2024-12-06 12:43:46.901,86.85,746.0,0.88,0.44,-0.08,0.4,-2.92,0.93
2024-12-06 12:43:46.917,85.5,677.0,0.88,0.44,-0.08,0.34,-3.66,0.93
2024-12-06 12:43:46.920,84.82,691.0,0.88,0.44,-0.08,0.34,-2.99,0.8
2024-12-06 12:43:46.955,84.38,691.0,0.86,0.44,-0.08,0.89,-1.58,-0.05
2024-12-06 12:43:46.960,84.6,687.0,0.87,0.43,-0.08,0.95,-1.34,-0.29
2024-12-06 12:43:46.964,86.17,690.0,0.87,0.43,-0.08,1.08,-0.91,-0.48
2024-12-06 12:43:46.972,84.82,695.0,0.88,0.42,-0.08,1.14,-0.79,-0.48
2024-12-06 12:43:46.979,80.55,674.0,0.88,0.42,-0.08,1.08,-0.91,-0.48
2024-12-06 12:43:47.2,87.07,670.0,0.89,0.42,-0.08,1.01,-1.28,-0.48
2024-12-06 12:43:47.8,79.42,687.0,0.89,0.42,-0.09,1.01,-1.83,-0.48
2024-12-06 12:43:47.11,84.38,673.0,0.88,0.43,-0.09,0.89,-2.5,-0.54
2024-12-06 12:43:47.20,82.35,677.0,0.88,0.43,-0.09,0.59,-2.68,-0.6
2024-12-06 12:43:47.29,83.7,677.0,0.88,0.43,-0.09,0.28,-2.8,-0.6
2024-12-06 12:43:47.37,84.6,675.0,0.88,0.43,-0.09,0.28,-2.8,-0.6
2024-12-06 12:43:47.55,86.85,680.0,0.87,0.43,-0.07,-0.45,-2.31,-0.29
2024-12-06 12:43:47.62,81.67,662.0,0.88,0.43,-0.07,-0.69,-1.64,-0.17
2024-12-06 12:43:47.67,82.35,668.0,0.88,0.43,-0.07,-0.63,-0.97,0.19
2024-12-06 12:43:47.77,83.92,682.0,0.88,0.43,-0.08,-0.51,-0.18,0.56
2024-12-06 12:43:47.101,84.38,672.0,0.88,0.44,-0.08,-0.51,-0.18,0.56
2024-12-06 12:43:47.106,85.05,660.0,0.89,0.44,-0.09,-0.94,0.49,1.11
2024-12-06 12:43:47.111,84.82,676.0,0.89,0.44,-0.09,-0.94,-0.06,1.11
2024-12-06 12:43:47.128,83.92,684.0,0.89,0.44,-0.08,-0.88,-0.36,0.99
2024-12-06 12:43:47.136,84.6,676.0,0.89,0.45,-0.09,-0.76,-0.73,0.8
2024-12-06 12:43:47.142,84.82,690.0,0.89,0.45,-0.1,-0.45,-0.97,0.62
2024-12-06 12:43:47.272,83.7,684.0,0.87,0.45,-0.09,1.69,-0.18,-2.0
2024-12-06 12:43:47.277,81.45,677.0,0.88,0.44,-0.09,1.81,-0.06,-2.0
2024-12-06 12:43:47.285,84.38,668.0,0.88,0.44,-0.09,1.81,-0.12,-2.13
2024-12-06 12:43:47.294,84.6,696.0,0.88,0.44,-0.09,1.69,-0.12,-2.25
2024-12-06 12:43:47.300,84.38,670.0,0.88,0.44,-0.09,1.62,-0.3,-2.49
2024-12-06 12:43:47.308,84.82,668.0,0.88,0.44,-0.09,1.44,-0.67,-2.86
2024-12-06 12:43:47.320,81.45,659.0,0.87,0.44,-0.09,1.44,-0.67,-2.86
2024-12-06 12:43:47.328,86.4,670.0,0.87,0.44,-0.09,1.2,-0.79,-3.29
2024-12-06 12:43:47.334,84.15,672.0,0.87,0.44,-0.08,0.83,-0.61,-3.59
2024-12-06 12:43:47.340,85.28,653.0,0.87,0.43,-0.09,0.65,-0.79,-3.83
2024-12-06 12:43:47.348,86.85,662.0,0.88,0.43,-0.09,0.47,-0.54,-3.77
2024-12-06 12:43:47.357,82.8,670.0,0.88,0.43,-0.09,0.4,-0.67,-3.53
2024-12-06 12:43:47.366,85.5,658.0,0.88,0.43,-0.09,0.4,-0.67,-3.53
2024-12-06 12:43:47.373,86.85,657.0,0.88,0.44,-0.1,0.28,-0.54,-3.1
2024-12-06 12:43:47.399,84.6,662.0,0.87,0.45,-0.1,-0.15,-0.36,-1.88
2024-12-06 12:43:47.404,81.45,659.0,0.87,0.46,-0.1,-0.27,-0.48,-1.82
2024-12-06 12:43:47.411,84.6,655.0,0.87,0.45,-0.09,-0.27,-0.48,-1.82
2024-12-06 12:43:47.419,82.12,663.0,0.87,0.45,-0.09,-0.45,-0.36,-1.88
2024-12-06 12:43:47.430,82.35,660.0,0.88,0.45,-0.08,-0.63,-0.06,-1.82
2024-12-06 12:43:47.438,84.15,654.0,0.88,0.44,-0.08,-0.63,-0.06,-1.94
2024-12-06 12:43:47.443,82.8,668.0,0.88,0.44,-0.08,-0.63,0.13,-2.06
2024-12-06 12:43:47.451,83.03,654.0,0.88,0.45,-0.09,-0.45,0.19,-2.19
2024-12-06 12:43:47.462,87.07,675.0,0.87,0.45,-0.09,-0.45,0.19,-2.19
2024-12-06 12:43:47.473,84.15,666.0,0.87,0.46,-0.09,-0.21,-0.36,-2.49
2024-12-06 12:43:47.482,85.5,664.0,0.87,0.45,-0.09,-0.45,-0.36,-2.74
2024-12-06 12:43:47.489,83.92,650.0,0.87,0.45,-0.09,-0.57,-0.42,-2.86
2024-12-06 12:43:47.500,84.15,655.0,0.87,0.45,-0.09,-0.51,-0.54,-2.86
2024-12-06 12:43:47.504,80.32,661.0,0.88,0.45,-0.09,-0.51,-0.54,-2.86
2024-12-06 12:43:47.512,80.55,666.0,0.88,0.45,-0.09,-0.39,-0.36,-2.74
2024-12-06 12:43:47.520,84.82,654.0,0.88,0.45,-0.1,-0.15,-0.12,-2.49
2024-12-06 12:43:47.529,80.55,655.0,0.88,0.46,-0.1,0.16,0.13,-2.19
2024-12-06 12:43:47.540,80.78,647.0,0.88,0.46,-0.1,0.4,0.07,-1.94
2024-12-06 12:43:47.548,83.92,644.0,0.87,0.46,-0.11,0.4,0.13,-1.64
2024-12-06 12:43:47.552,84.15,658.0,0.88,0.47,-0.11,0.4,0.13,-1.64
2024-12-06 12:43:47.559,81.45,677.0,0.87,0.47,-0.1,0.22,0.13,-1.45
2024-12-06 12:43:47.568,85.05,667.0,0.88,0.46,-0.09,0.16,0.13,-1.52
2024-12-06 12:43:47.578,84.6,649.0,0.88,0.46,-0.09,0.1,0.13,-1.58
2024-12-06 12:43:47.583,83.7,685.0,0.88,0.46,-0.09,0.28,0.19,-1.52
2024-12-06 12:43:47.592,85.72,696.0,0.88,0.46,-0.09,15.91,0.25,-1.52
2024-12-06 12:43:47.631,84.15,646.0,0.86,0.45,-0.09,-0.02,0.43,-2.0
2024-12-06 12:43:47.640,85.05,659.0,0.86,0.45,-0.09,-0.02,0.43,-2.0
2024-12-06 12:43:47.644,85.28,653.0,0.86,0.45,-0.09,-0.15,0.68,-2.13
2024-12-06 12:43:47.654,87.3,654.0,0.86,0.45,-0.09,-0.08,0.49,-2.25
2024-12-06 12:43:47.665,84.82,662.0,0.86,0.45,-0.09,-0.08,0.74,-2.31
2024-12-06 12:43:47.667,84.15,652.0,0.86,0.45,-0.09,-0.02,0.86,-2.25
2024-12-06 12:43:47.677,84.38,649.0,0.86,0.45,-0.1,-0.02,0.86,-2.25
2024-12-06 12:43:47.683,84.82,658.0,0.87,0.45,-0.1,0.1,0.98,-2.25
2024-12-06 12:43:47.691,81.0,651.0,0.87,0.45,-0.1,0.16,0.74,-2.31
2024-12-06 12:43:47.700,81.45,652.0,0.87,0.46,-0.1,0.04,0.55,-2.43
2024-12-06 12:43:47.707,87.07,661.0,0.87,0.46,-0.09,-0.21,0.31,-2.68
2024-12-06 12:43:47.715,85.5,664.0,0.87,0.46,-0.09,-0.45,0.43,-2.92
2024-12-06 12:43:47.724,76.95,670.0,0.87,0.46,-0.09,-0.45,0.13,-3.16
2024-12-06 12:43:47.736,83.7,666.0,0.87,0.46,-0.09,-0.45,0.13,-3.16
2024-12-06 12:43:47.744,79.88,652.0,0.88,0.46,-0.09,-0.51,0.25,-3.22
2024-12-06 12:43:47.750,83.92,650.0,0.88,0.45,-0.09,-0.45,0.49,-3.1
2024-12-06 12:43:47.756,80.78,658.0,0.88,0.45,-0.09,-0.39,0.62,-2.98
2024-12-06 12:43:47.763,85.28,646.0,0.88,0.45,-0.09,-0.39,0.55,-2.86
2024-12-06 12:43:47.771,85.5,650.0,0.88,0.45,-0.09,-0.51,0.43,-2.74
2024-12-06 12:43:47.781,87.75,649.0,0.88,0.45,-0.09,-0.51,0.43,-2.74
2024-12-06 12:43:47.787,86.62,650.0,0.88,0.46,-0.09,-0.63,0.25,-2.55
2024-12-06 12:43:47.794,83.25,659.0,0.88,0.46,-0.09,-0.63,0.25,-2.37
2024-12-06 12:43:47.802,83.92,658.0,0.88,0.46,-0.1,-0.51,0.49,-2.0
2024-12-06 12:43:47.810,82.35,641.0,0.84,0.46,-0.1,-0.21,0.68,-1.76
2024-12-06 12:43:47.819,85.28,650.0,0.87,0.46,-0.1,0.04,0.68,-1.64
2024-12-06 12:43:47.850,86.17,652.0,0.87,0.46,-0.1,0.04,0.68,-1.64
2024-12-06 12:43:47.852,80.55,643.0,0.87,0.46,-0.08,-0.08,0.31,-2.25
2024-12-06 12:43:47.856,82.35,649.0,0.87,0.46,-0.08,-0.27,0.19,-2.55
2024-12-06 12:43:47.864,85.28,665.0,0.87,0.46,-0.08,-0.27,0.19,-2.68
2024-12-06 12:43:47.872,82.57,631.0,0.87,0.46,-0.08,-0.39,0.25,-2.68
2024-12-06 12:43:47.882,83.92,643.0,0.87,0.46,-0.09,-0.33,0.55,-2.61
2024-12-06 12:43:47.892,85.28,650.0,0.87,0.46,-0.09,-0.08,0.62,-2.43
2024-12-06 12:43:47.900,86.4,656.0,0.87,0.46,-0.1,0.1,0.74,-2.13
2024-12-06 12:43:47.910,81.22,634.0,0.87,0.46,-0.1,0.16,0.68,-1.7
2024-12-06 12:43:47.919,87.3,640.0,0.87,0.46,-0.1,0.22,0.49,-1.39
2024-12-06 12:43:47.922,82.8,635.0,0.88,0.46,-0.09,0.22,0.49,-1.39
2024-12-06 12:43:47.932,82.8,658.0,0.88,0.46,-0.09,0.1,0.31,-1.21
2024-12-06 12:43:47.938,85.05,634.0,0.88,0.46,-0.09,-0.08,0.19,-1.21
2024-12-06 12:43:47.945,86.17,641.0,0.88,0.46,-0.09,-0.15,-0.06,-1.33
2024-12-06 12:43:47.954,81.45,638.0,0.88,0.46,-0.09,-0.21,-0.12,-1.45
2024-12-06 12:43:47.961,86.17,647.0,0.88,0.47,-0.09,-0.15,-0.24,-1.45
2024-12-06 12:43:47.968,85.72,642.0,0.88,0.47,-0.08,-0.15,-0.24,-1.45
2024-12-06 12:43:47.980,83.92,664.0,0.88,0.47,-0.09,-0.08,-0.3,-1.45
2024-12-06 12:43:47.984,81.9,634.0,0.88,0.47,-0.09,-0.08,-0.24,-1.33
2024-12-06 12:43:47.991,84.82,638.0,0.87,0.46,-0.09,-0.15,-0.3,-1.21
2024-12-06 12:43:47.999,84.15,658.0,0.87,0.46,-0.09,-0.21,-0.24,-1.21
2024-12-06 12:43:48.10,79.42,647.0,0.87,0.46,-0.09,-0.33,-0.12,-1.09
2024-12-06 12:43:48.14,82.35,667.0,0.87,0.46,-0.08,-0.33,-0.12,-1.09
2024-12-06 12:43:48.24,80.1,646.0,0.87,0.46,-0.08,-0.33,0.07,-0.91
2024-12-06 12:43:48.32,84.15,654.0,0.87,0.46,-0.09,-0.21,0.37,-0.84
2024-12-06 12:43:48.38,84.82,653.0,0.87,0.46,-0.1,0.16,0.68,-0.78
2024-12-06 12:43:48.45,85.05,647.0,0.87,0.46,-0.1,0.53,0.49,-0.66
2024-12-06 12:43:48.83,86.85,648.0,0.87,0.46,-0.09,0.28,-0.42,-0.78
2024-12-06 12:43:48.85,82.35,683.0,0.87,0.46,-0.09,0.1,-0.54,-0.97
2024-12-06 12:43:48.91,85.5,638.0,0.87,0.46,-0.08,0.04,-0.48,-0.97
2024-12-06 12:43:48.102,82.8,638.0,0.87,0.47,-0.08,0.04,-0.48,-0.97
2024-12-06 12:43:48.107,84.6,643.0,0.87,0.47,-0.08,0.22,-0.3,-1.03
2024-12-06 12:43:48.124,80.1,665.0,0.87,0.47,-0.09,0.53,-0.12,-0.91
2024-12-06 12:43:48.131,85.5,649.0,0.87,0.47,-0.09,0.83,0.0,-0.78
2024-12-06 12:43:48.135,79.65,666.0,0.87,0.47,-0.09,0.89,0.0,-0.78
2024-12-06 12:43:48.138,82.12,638.0,0.87,0.47,-0.1,0.89,0.0,-0.78
2024-12-06 12:43:48.152,86.4,656.0,0.87,0.47,-0.09,0.71,0.0,-0.84
2024-12-06 12:43:48.260,79.42,661.0,0.87,0.45,-0.07,-0.57,0.92,-1.15
2024-12-06 12:43:48.269,87.52,647.0,0.87,0.45,-0.09,-0.39,1.47,-1.03
2024-12-06 12:43:48.278,83.7,644.0,0.87,0.46,-0.1,-0.27,1.71,-1.03
2024-12-06 12:43:48.291,79.88,648.0,0.87,0.46,-0.1,-0.08,1.35,-1.09
2024-12-06 12:43:48.301,84.38,655.0,0.87,0.47,-0.1,0.16,0.8,-1.33
2024-12-06 12:43:48.307,86.4,671.0,0.87,0.47,-0.1,0.16,0.8,-1.33
2024-12-06 12:43:48.343,81.9,651.0,0.87,0.45,-0.08,0.34,-0.73,-3.04
2024-12-06 12:43:48.345,84.38,638.0,0.88,0.45,-0.07,0.34,-0.73,-3.04
2024-12-06 12:43:48.353,82.35,652.0,0.88,0.45,-0.07,0.4,-0.61,-3.41
2024-12-06 12:43:48.365,86.85,634.0,0.88,0.45,-0.08,0.34,-0.73,-3.71
2024-12-06 12:43:48.370,82.8,658.0,0.88,0.45,-0.08,0.1,-0.48,-3.65
2024-12-06 12:43:48.377,85.05,655.0,0.88,0.45,-0.08,-0.02,-0.73,-3.47
2024-12-06 12:43:48.385,83.92,657.0,0.88,0.45,-0.08,-0.21,-0.79,-3.1
2024-12-06 12:43:48.397,82.12,656.0,0.88,0.45,-0.09,-0.21,-0.61,-2.68
2024-12-06 12:43:48.406,86.4,658.0,0.88,0.45,-0.09,-0.27,-0.61,-2.68
2024-12-06 12:43:48.414,84.15,639.0,0.88,0.45,-0.09,-0.45,-0.42,-2.25
2024-12-06 12:43:48.418,84.6,643.0,0.87,0.45,-0.09,-0.39,-0.91,-2.06
2024-12-06 12:43:48.424,84.15,656.0,0.87,0.46,-0.1,-0.45,-0.85,-2.13
2024-12-06 12:43:48.436,85.28,646.0,0.87,0.46,-0.1,-0.45,-1.03,-2.13
2024-12-06 12:43:48.445,86.85,645.0,0.87,0.47,-0.09,-0.45,-1.03,-2.13
2024-12-06 12:43:48.448,86.85,650.0,0.87,0.47,-0.09,-0.57,-0.97,-2.37
2024-12-06 12:43:48.467,79.42,661.0,0.86,0.47,-0.09,-0.63,-0.85,-2.92
2024-12-06 12:43:48.472,81.67,659.0,0.86,0.47,-0.09,-0.51,-0.61,-3.35
2024-12-06 12:43:48.479,81.9,644.0,0.86,0.47,-0.09,-0.27,-0.18,-3.77
2024-12-06 12:43:48.490,82.8,629.0,0.85,0.47,-0.09,-0.27,-0.18,-3.77
2024-12-06 12:43:48.496,79.88,646.0,0.85,0.47,-0.1,0.04,0.31,-4.02
2024-12-06 12:43:48.503,85.5,625.0,0.85,0.47,-0.1,0.34,0.62,-4.2
2024-12-06 12:43:48.512,84.15,636.0,0.85,0.47,-0.09,0.53,0.98,-4.32
2024-12-06 12:43:48.549,82.57,621.0,0.86,0.46,-0.08,0.77,2.45,-5.3
2024-12-06 12:43:48.552,83.47,630.0,0.86,0.45,-0.08,1.01,2.69,-5.6
2024-12-06 12:43:48.559,86.4,609.0,0.87,0.45,-0.09,1.38,3.0,-5.91
2024-12-06 12:43:48.567,84.15,591.0,0.87,0.45,-0.09,1.87,3.12,-6.15
2024-12-06 12:43:48.579,83.03,602.0,0.87,0.45,-0.1,1.87,3.12,-6.15
2024-12-06 12:43:48.589,85.05,592.0,0.87,0.46,-0.1,2.24,3.12,-6.34
2024-12-06 12:43:48.592,87.75,590.0,0.87,0.47,-0.1,2.66,3.36,-6.52
2024-12-06 12:43:48.595,83.03,588.0,0.87,0.47,-0.1,2.85,3.67,-6.64
2024-12-06 12:43:48.612,86.4,590.0,0.86,0.48,-0.09,3.03,3.85,-6.95
2024-12-06 12:43:48.646,84.82,572.0,0.86,0.47,-0.08,2.78,4.34,-7.13
2024-12-06 12:43:48.663,81.22,569.0,0.86,0.47,-0.08,3.03,4.64,-6.95
2024-12-06 12:43:48.668,85.05,566.0,0.86,0.47,-0.08,3.33,4.77,-6.83
2024-12-06 12:43:48.671,81.22,563.0,0.86,0.47,-0.08,3.46,4.89,-6.64
2024-12-06 12:43:48.680,84.6,563.0,0.86,0.47,-0.08,3.39,5.01,-6.52
2024-12-06 12:43:48.688,82.35,558.0,0.86,0.47,-0.08,3.52,5.01,-6.46
2024-12-06 12:43:48.696,87.75,556.0,0.87,0.46,-0.07,3.52,5.01,-6.4
2024-12-06 12:43:48.705,83.7,561.0,0.87,0.45,-0.07,3.39,4.89,-6.4
2024-12-06 12:43:48.729,86.4,613.0,0.87,0.45,-0.08,3.27,4.77,-6.46
2024-12-06 12:43:48.732,84.15,560.0,0.87,0.46,-0.09,3.64,4.89,-6.76
2024-12-06 12:43:48.767,80.32,546.0,0.86,0.52,-0.07,4.55,4.89,-6.4
2024-12-06 12:43:48.771,85.5,557.0,0.86,0.52,-0.07,4.13,4.77,-6.28
2024-12-06 12:43:48.782,81.22,553.0,0.86,0.52,-0.07,4.13,4.77,-6.28
2024-12-06 12:43:48.790,80.78,544.0,0.86,0.52,-0.07,3.64,4.7,-6.15
2024-12-06 12:43:48.796,85.72,533.0,0.86,0.51,-0.08,3.33,4.28,-5.79
2024-12-06 12:43:48.802,81.0,551.0,0.86,0.49,-0.08,3.27,3.61,-5.54
2024-12-06 12:43:48.820,85.05,546.0,0.86,0.48,-0.09,3.7,2.32,-5.73
2024-12-06 12:43:48.830,78.75,529.0,0.85,0.47,-0.09,3.7,2.32,-5.73
2024-12-06 12:43:48.835,85.05,549.0,0.85,0.47,-0.09,4.19,2.32,-6.03
2024-12-06 12:43:48.845,84.82,538.0,0.85,0.48,-0.08,4.62,2.57,-6.4
2024-12-06 12:43:48.852,83.7,533.0,0.85,0.48,-0.07,5.04,3.67,-6.7
2024-12-06 12:43:48.868,80.1,540.0,0.85,0.48,-0.07,5.59,3.85,-7.13
2024-12-06 12:43:48.872,82.35,536.0,0.84,0.49,-0.07,6.02,4.58,-7.56
2024-12-06 12:43:48.875,84.38,550.0,0.83,0.49,-0.07,6.02,4.58,-7.56
2024-12-06 12:43:48.882,84.15,541.0,0.83,0.5,-0.07,6.14,5.62,-8.05
2024-12-06 12:43:48.889,81.9,533.0,0.83,0.51,-0.07,6.39,5.99,-8.29
2024-12-06 12:43:48.896,84.82,528.0,0.83,0.52,-0.08,6.32,6.96,-8.47
2024-12-06 12:43:48.904,80.32,540.0,0.83,0.52,-0.08,6.39,7.33,-8.47
2024-12-06 12:43:48.912,83.7,550.0,0.83,0.52,-0.08,6.39,7.27,-8.17
2024-12-06 12:43:49.12,85.5,523.0,0.86,0.51,-0.07,5.16,3.85,-6.7
2024-12-06 12:43:49.18,84.38,519.0,0.86,0.48,-0.06,5.16,4.4,-7.92
2024-12-06 12:43:49.28,80.32,522.0,0.88,0.49,-0.06,5.29,4.83,-9.14
2024-12-06 12:43:49.35,81.67,521.0,0.88,0.51,-0.07,5.29,4.83,-9.14
2024-12-06 12:43:49.43,83.7,540.0,0.86,0.58,-0.07,5.35,5.13,-8.6
2024-12-06 12:43:49.55,82.8,531.0,0.81,0.63,-0.08,5.23,4.28,-5.97
2024-12-06 12:43:49.61,82.57,514.0,0.78,0.61,-0.08,4.43,4.7,-3.71
2024-12-06 12:43:49.66,84.6,514.0,0.78,0.58,-0.08,3.7,5.74,-1.7
2024-12-06 12:43:49.95,83.03,525.0,0.79,0.56,-0.08,2.36,6.9,2.21
2024-12-06 12:43:49.97,80.55,534.0,0.8,0.56,-0.07,1.75,6.6,4.1
2024-12-06 12:43:49.104,77.4,529.0,0.8,0.55,-0.07,1.2,7.76,5.75
2024-12-06 12:43:49.119,76.95,522.0,0.8,0.55,-0.07,1.32,9.34,6.97
2024-12-06 12:43:49.123,79.42,509.0,0.82,0.54,-0.07,1.32,9.34,6.97
2024-12-06 12:43:49.127,76.05,501.0,0.84,0.56,-0.08,1.56,9.65,8.31
2024-12-06 12:43:49.138,75.15,509.0,0.84,0.55,-0.08,1.26,9.77,9.41
2024-12-06 12:43:49.144,74.03,511.0,0.83,0.52,-0.07,0.95,10.01,9.35
2024-12-06 12:43:49.152,75.38,523.0,0.86,0.51,-0.07,0.71,9.71,9.29
2024-12-06 12:43:49.160,73.35,528.0,0.86,0.51,-0.07,0.53,8.73,9.65
2024-12-06 12:43:49.173,72.22,497.0,0.88,0.5,-0.07,0.53,8.73,9.65
2024-12-06 12:43:49.177,69.97,515.0,0.88,0.48,-0.08,0.16,8.06,9.1
2024-12-06 12:43:49.205,75.15,509.0,0.89,0.47,-0.08,0.28,7.94,8.68
2024-12-06 12:43:49.209,73.12,502.0,0.89,0.47,-0.07,1.08,6.96,7.7
2024-12-06 12:43:49.232,66.15,501.0,0.89,0.46,-0.06,1.5,6.96,7.7
2024-12-06 12:43:49.235,65.03,492.0,0.89,0.47,-0.04,2.97,5.56,7.09
2024-12-06 12:43:49.248,68.85,511.0,0.88,0.47,-0.05,3.76,6.96,6.36
2024-12-06 12:43:49.251,66.82,514.0,0.85,0.43,-0.04,3.76,6.96,6.36
2024-12-06 12:43:49.260,68.4,502.0,0.85,0.43,-0.02,3.88,7.08,4.83
2024-12-06 12:43:49.267,69.07,497.0,0.9,0.47,-0.03,3.76,4.83,5.2
2024-12-06 12:43:49.376,61.2,502.0,0.87,0.5,-0.04,2.54,2.26,3.31
2024-12-06 12:43:49.379,59.4,504.0,0.85,0.48,-0.04,2.91,0.68,3.67
2024-12-06 12:43:49.387,59.85,512.0,0.85,0.47,-0.05,2.85,2.32,2.94
2024-12-06 12:43:49.396,59.17,496.0,0.85,0.47,-0.05,2.78,2.63,2.51
2024-12-06 12:43:49.403,55.57,500.0,0.85,0.47,-0.04,2.78,2.14,1.54
2024-12-06 12:43:49.441,58.95,518.0,0.84,0.48,-0.06,2.78,2.14,1.54
2024-12-06 12:43:49.446,59.62,468.0,0.84,0.46,-0.05,2.42,3.61,-0.84
2024-12-06 12:43:49.448,58.95,492.0,0.86,0.47,-0.05,2.42,3.61,-0.84
2024-12-06 12:43:49.457,56.7,497.0,0.87,0.48,-0.05,2.66,3.79,-0.11
2024-12-06 12:43:49.471,53.32,498.0,0.86,0.47,-0.05,2.85,4.4,0.8
2024-12-06 12:43:49.477,58.27,489.0,0.84,0.45,-0.05,3.09,5.38,1.05
2024-12-06 12:43:49.490,57.82,498.0,0.84,0.45,-0.05,3.15,5.93,0.32
2024-12-06 12:43:49.494,56.47,499.0,0.83,0.44,-0.04,2.78,6.96,0.01
2024-12-06 12:43:49.500,54.45,499.0,0.86,0.46,-0.04,2.78,6.96,0.01
2024-12-06 12:43:49.508,55.12,514.0,0.88,0.49,-0.04,2.42,7.27,0.74
2024-12-06 12:43:49.516,55.35,499.0,0.88,0.49,-0.03,2.17,6.96,1.78
2024-12-06 12:43:49.523,53.1,498.0,0.86,0.48,-0.04,2.05,6.23,1.9
2024-12-06 12:43:49.527,50.4,504.0,0.86,0.48,-0.04,1.5,6.84,0.74
2024-12-06 12:43:49.536,53.32,499.0,0.84,0.47,-0.05,0.95,6.41,-0.29
2024-12-06 12:43:49.572,51.07,493.0,0.88,0.49,-0.05,0.59,3.18,-0.48
2024-12-06 12:43:49.580,52.2,496.0,0.85,0.47,-0.05,0.28,4.03,-1.33
2024-12-06 12:43:49.582,50.4,493.0,0.86,0.47,-0.05,0.28,4.03,-1.33
2024-12-06 12:43:49.589,50.4,510.0,0.89,0.49,-0.04,0.22,4.03,-1.03
2024-12-06 12:43:49.597,50.62,494.0,0.9,0.48,-0.03,0.28,2.57,0.25
2024-12-06 12:43:49.610,47.02,499.0,0.87,0.46,-0.04,0.34,1.96,0.62
2024-12-06 12:43:49.612,45.67,508.0,0.87,0.46,-0.04,0.22,2.45,0.01
2024-12-06 12:43:49.629,48.38,504.0,0.85,0.46,-0.04,-0.27,3.0,-0.05
2024-12-06 12:43:49.633,48.15,507.0,0.88,0.48,-0.03,-0.27,3.0,-0.05
2024-12-06 12:43:49.636,49.72,496.0,0.91,0.5,-0.01,-0.51,2.87,1.29
2024-12-06 12:43:49.643,44.32,500.0,0.9,0.49,-0.02,-0.76,1.35,2.57
2024-12-06 12:43:49.674,43.65,507.0,0.9,0.48,-0.01,-1.67,0.92,3.67
2024-12-06 12:43:49.700,44.77,514.0,0.92,0.48,-0.0,-1.98,0.92,3.67
2024-12-06 12:43:49.704,45.67,510.0,0.86,0.45,-0.02,-3.14,-0.06,1.84
2024-12-06 12:43:49.711,39.15,503.0,0.87,0.46,-0.01,-3.14,-15.68,1.54
2024-12-06 12:43:49.717,42.3,503.0,0.89,0.47,-0.01,-3.38,-0.61,1.54
2024-12-06 12:43:49.720,37.12,512.0,0.91,0.48,-0.02,-3.38,-1.4,2.27
2024-12-06 12:43:49.730,37.8,508.0,0.9,0.48,-0.05,-3.01,-0.79,3.06
2024-12-06 12:43:49.752,42.75,499.0,0.89,0.49,-0.04,-1.85,1.84,3.73
2024-12-06 12:43:49.783,40.5,501.0,0.89,0.48,-0.03,-1.43,1.29,4.4
2024-12-06 12:43:49.789,38.25,504.0,0.87,0.45,-0.02,-1.24,0.55,3.49
2024-12-06 12:43:49.792,37.58,512.0,0.86,0.45,-0.03,-1.24,0.55,3.49
2024-12-06 12:43:49.796,37.8,528.0,0.87,0.46,-0.04,-1.37,0.62,3.0
2024-12-06 12:43:49.815,38.92,493.0,0.89,0.48,-0.05,-1.3,0.43,3.25
2024-12-06 12:43:49.823,38.7,502.0,0.89,0.48,-0.05,-1.12,-0.42,3.86
2024-12-06 12:43:49.827,34.42,505.0,0.89,0.48,-0.05,-1.0,-0.79,4.28
2024-12-06 12:43:49.830,33.52,506.0,0.89,0.48,-0.05,-1.0,-0.79,4.53
2024-12-06 12:43:49.838,37.12,498.0,0.89,0.47,-0.04,-1.0,-0.73,4.53
2024-12-06 12:43:49.870,37.8,494.0,0.87,0.46,-0.02,-0.82,-2.13,3.67
2024-12-06 12:43:49.873,36.0,491.0,0.88,0.47,-0.02,-0.82,-2.13,3.67
2024-12-06 12:43:49.887,36.67,514.0,0.88,0.49,-0.01,-0.69,-1.03,4.34
2024-12-06 12:43:49.889,29.92,495.0,0.88,0.49,-0.02,-0.45,-0.18,5.08
2024-12-06 12:43:49.897,36.0,495.0,0.88,0.48,-0.02,-0.27,1.1,5.75
2024-12-06 12:43:49.906,34.42,502.0,0.88,0.48,-0.02,-0.02,0.92,5.63
2024-12-06 12:43:49.913,37.58,487.0,0.87,0.47,-0.03,-0.08,1.47,5.08
2024-12-06 12:43:49.923,34.65,490.0,0.88,0.46,-0.03,-0.08,1.47,5.08
2024-12-06 12:43:49.937,35.77,490.0,0.89,0.45,-0.03,-0.02,0.07,5.32
2024-12-06 12:43:49.945,27.45,509.0,0.89,0.45,-0.04,0.34,-0.48,5.2
2024-12-06 12:43:49.957,29.25,505.0,0.89,0.45,-0.02,-0.21,0.13,5.14
2024-12-06 12:43:49.961,32.62,491.0,0.89,0.46,-0.02,-0.39,-1.03,5.32
2024-12-06 12:43:49.971,33.08,490.0,0.89,0.45,-0.03,-0.39,-1.03,5.38
2024-12-06 12:43:50.7,31.95,491.0,0.9,0.44,-0.04,-0.57,-1.15,5.38
2024-12-06 12:43:50.13,30.82,536.0,0.9,0.44,-0.02,-0.51,-2.99,5.32
2024-12-06 12:43:50.22,30.6,490.0,0.85,0.42,-0.03,-0.63,-2.8,4.22
2024-12-06 12:43:50.35,29.47,501.0,0.86,0.42,-0.02,-0.88,-2.31,3.37
2024-12-06 12:43:50.38,31.27,507.0,0.86,0.42,-0.02,-1.12,-2.31,3.61
2024-12-06 12:43:50.47,27.45,513.0,0.88,0.43,-0.02,-1.55,-1.28,4.4
2024-12-06 12:43:50.60,23.85,506.0,0.88,0.44,-0.03,-1.55,-1.28,4.4
2024-12-06 12:43:50.68,29.25,489.0,0.88,0.45,-0.04,-1.61,0.0,5.26
2024-12-06 12:43:50.70,24.52,503.0,0.88,0.45,-0.05,-1.79,0.62,5.56
2024-12-06 12:43:50.82,27.9,493.0,0.91,0.45,-0.04,-2.28,1.41,6.11
2024-12-06 12:43:50.85,27.0,490.0,0.91,0.45,-0.04,-2.28,-0.12,6.79
2024-12-06 12:43:50.92,26.32,512.0,0.91,0.43,-0.04,-2.4,-0.79,6.6
2024-12-06 12:43:50.102,26.1,490.0,0.89,0.41,-0.05,-2.4,-0.79,6.6
2024-12-06 12:43:50.114,25.2,500.0,0.86,0.39,-0.05,-2.22,-2.38,5.2
2024-12-06 12:43:50.117,25.42,495.0,0.87,0.4,-0.05,-2.16,-2.38,3.55
2024-12-06 12:43:50.124,22.5,494.0,0.9,0.43,-0.04,-1.85,-2.19,3.61
2024-12-06 12:43:50.132,22.72,501.0,0.9,0.43,-0.04,-0.94,-3.41,4.53
2024-12-06 12:43:50.139,20.92,506.0,0.89,0.44,-0.04,-0.45,-2.62,4.53
2024-12-06 12:43:50.154,20.7,492.0,0.85,0.44,-0.07,-0.45,-2.62,4.53
2024-12-06 12:43:50.160,20.92,497.0,0.85,0.44,-0.06,-0.33,-0.12,3.92
2024-12-06 12:43:50.163,17.1,496.0,0.87,0.45,-0.02,-0.39,0.62,4.22
2024-12-06 12:43:50.172,21.82,489.0,0.86,0.44,-0.04,-0.33,-0.06,4.77
2024-12-06 12:43:50.199,23.17,507.0,0.82,0.43,-0.07,-0.76,3.97,2.51
2024-12-06 12:43:50.229,20.48,498.0,0.87,0.42,-0.06,0.53,2.75,2.51
2024-12-06 12:43:50.235,18.0,489.0,0.88,0.41,-0.03,0.53,2.75,2.51
2024-12-06 12:43:50.241,19.8,489.0,0.87,0.4,-0.02,0.77,0.74,1.66
2024-12-06 12:43:50.248,18.9,485.0,0.87,0.4,-0.02,0.65,1.04,0.13
2024-12-06 12:43:50.267,15.75,490.0,0.89,0.42,-0.01,0.89,0.74,-1.09
2024-12-06 12:43:50.273,18.23,527.0,0.91,0.44,-0.02,1.01,-0.12,-1.39
2024-12-06 12:43:50.281,16.42,506.0,0.93,0.45,-0.03,1.14,0.0,-0.84
2024-12-06 12:43:50.297,16.2,501.0,0.89,0.4,-0.02,0.89,-2.19,-1.7
2024-12-06 12:43:50.301,19.57,494.0,0.89,0.4,-0.02,0.28,-1.89,-2.61
2024-12-06 12:43:50.317,19.12,477.0,0.9,0.4,-0.01,0.1,-2.07,-2.74
2024-12-06 12:43:50.326,15.97,491.0,0.91,0.41,-0.01,0.1,-2.07,-2.74
2024-12-06 12:43:50.421,14.85,462.0,0.86,0.4,-0.02,-1.0,-0.18,-4.93
2024-12-06 12:43:50.424,13.05,488.0,0.87,0.41,-0.03,-1.0,-0.18,-4.93
2024-12-06 12:43:50.453,9.9,513.0,0.9,0.44,-0.05,-2.1,-0.06,-1.58
2024-12-06 12:43:50.459,13.5,479.0,0.9,0.44,-0.04,-2.1,-0.06,-1.58
2024-12-06 12:43:50.474,13.5,473.0,0.89,0.43,-0.03,-2.46,0.68,-0.97
2024-12-06 12:43:50.476,16.42,479.0,0.87,0.42,-0.02,-2.65,-0.54,-1.09
2024-12-06 12:43:50.483,8.55,495.0,0.88,0.43,-0.03,-2.89,0.13,-1.7
2024-12-06 12:43:50.491,13.72,492.0,0.9,0.43,-0.0,-3.07,0.37,-1.45
2024-12-06 12:43:50.504,11.02,477.0,0.9,0.43,-0.0,-2.77,-2.74,-2.25
2024-12-06 12:43:50.507,14.17,482.0,0.85,0.41,-0.0,-2.77,12.88,-4.69
2024-12-06 12:43:50.515,13.27,482.0,0.84,0.4,-0.02,-3.38,0.43,-4.69
2024-12-06 12:43:50.524,11.7,489.0,0.89,0.43,-0.01,-2.83,1.04,-5.36
2024-12-06 12:43:50.532,14.17,478.0,0.93,0.47,-0.04,-1.79,0.55,-4.38
2024-12-06 12:43:50.541,7.88,498.0,0.95,0.49,-0.05,-1.67,2.39,-2.8
2024-12-06 12:43:50.550,12.38,488.0,0.95,0.47,-0.01,-1.61,0.49,-1.15
2024-12-06 12:43:50.555,15.3,499.0,0.95,0.47,-0.01,-1.85,-0.3,-0.6
2024-12-06 12:43:50.572,10.8,545.0,0.91,0.44,-0.02,-1.85,-0.3,-0.6
2024-12-06 12:43:50.576,13.95,485.0,0.89,0.42,-0.03,-2.22,-0.12,-1.7
2024-12-06 12:43:50.580,16.2,498.0,0.9,0.43,-0.02,-2.65,-0.67,-2.8
2024-12-06 12:43:50.587,12.82,489.0,0.89,0.44,-0.02,-2.89,-1.83,-3.16
2024-12-06 12:43:50.605,13.5,484.0,0.89,0.45,-0.02,-2.77,-2.44,-3.41
2024-12-06 12:43:50.607,13.27,493.0,0.88,0.45,-0.02,-2.46,-0.48,-3.29
2024-12-06 12:43:50.613,14.4,490.0,0.88,0.46,-0.03,-2.46,-0.48,-3.29
2024-12-06 12:43:50.625,17.1,492.0,0.88,0.46,-0.02,-1.79,-0.42,-2.55
2024-12-06 12:43:50.631,14.4,500.0,0.87,0.45,-0.03,-1.37,-0.61,-2.13
2024-12-06 12:43:50.634,11.47,492.0,0.88,0.44,-0.03,-1.3,0.37,-2.19
2024-12-06 12:43:50.653,12.15,487.0,0.88,0.44,-0.04,-1.0,0.37,-1.88
2024-12-06 12:43:50.677,11.25,506.0,0.88,0.44,-0.03,-0.94,-1.34,-3.83
2024-12-06 12:43:50.684,14.85,513.0,0.88,0.47,-0.03,-0.88,-2.38,-4.63
2024-12-06 12:43:50.688,13.5,516.0,0.88,0.44,-0.03,-0.88,-2.19,-4.99
2024-12-06 12:43:50.696,11.25,491.0,0.88,0.45,-0.03,-0.88,-2.19,-4.99
2024-12-06 12:43:50.703,13.5,496.0,0.88,0.47,-0.04,-0.69,-1.46,-4.63
2024-12-06 12:43:50.717,11.92,496.0,0.87,0.46,-0.04,-0.45,-1.34,-4.14
2024-12-06 12:43:50.720,14.17,481.0,0.87,0.46,-0.04,-0.39,-0.18,-3.47
2024-12-06 12:43:50.726,15.75,493.0,0.87,0.46,-0.03,-0.33,0.07,-2.61
2024-12-06 12:43:50.744,18.45,505.0,0.87,0.45,-0.03,-0.57,0.49,-2.19
2024-12-06 12:43:50.748,9.68,486.0,0.87,0.45,-0.04,-0.57,0.49,-2.19
2024-12-06 12:43:50.752,11.92,499.0,0.88,0.45,-0.04,-0.82,1.16,-2.0
2024-12-06 12:43:50.760,11.25,502.0,0.88,0.46,-0.04,-0.94,0.62,-1.82
2024-12-06 12:43:50.768,13.72,485.0,0.88,0.46,-0.05,-1.06,0.74,-1.82
2024-12-06 12:43:50.774,14.62,486.0,0.88,0.46,-0.05,-0.94,0.49,-1.88
2024-12-06 12:43:50.783,13.05,473.0,0.88,0.45,-0.05,-0.57,-0.61,-2.0
2024-12-06 12:43:50.789,7.2,489.0,0.88,0.44,-0.05,-0.57,-0.61,-2.0
2024-12-06 12:43:50.802,13.95,474.0,0.88,0.44,-0.06,-0.27,-0.12,-2.37
2024-12-06 12:43:50.805,13.05,494.0,0.91,0.44,-0.04,0.04,0.0,-2.06
2024-12-06 12:43:50.812,16.2,484.0,0.9,0.44,-0.02,0.1,-0.91,-1.45
2024-12-06 12:43:50.821,13.05,480.0,0.9,0.44,-0.02,0.04,-1.52,-1.58
2024-12-06 12:43:50.828,16.42,484.0,0.88,0.43,-0.03,0.04,-1.15,-2.43
2024-12-06 12:43:50.839,10.12,503.0,0.86,0.42,-0.04,0.04,-1.15,-2.43
2024-12-06 12:43:50.850,10.8,503.0,0.84,0.43,-0.03,-0.08,-1.4,-3.71
2024-12-06 12:43:50.852,13.5,477.0,0.84,0.44,-0.01,-0.82,-1.03,-4.69
2024-12-06 12:43:50.862,13.95,484.0,0.86,0.46,-0.0,-1.73,-0.67,-5.18
2024-12-06 12:43:50.868,11.25,498.0,0.87,0.48,-0.01,-2.22,1.04,-4.57
2024-12-06 12:43:50.878,15.3,485.0,0.87,0.48,-0.01,-2.53,0.92,-3.77
2024-12-06 12:43:50.888,12.82,486.0,0.87,0.48,-0.01,-2.53,0.92,-3.77
2024-12-06 12:43:50.906,14.17,483.0,0.87,0.47,-0.03,-3.01,1.53,-3.35
2024-12-06 12:43:50.925,9.9,482.0,0.91,0.44,-0.04,-2.95,2.39,-1.39
2024-12-06 12:43:50.944,13.5,484.0,0.89,0.43,-0.02,-3.5,-0.3,1.11
2024-12-06 12:43:50.953,13.27,476.0,0.88,0.42,-0.01,-3.87,-1.15,0.74
2024-12-06 12:43:50.959,15.3,486.0,0.88,0.42,-0.01,-4.36,-1.7,-0.23
2024-12-06 12:43:50.964,13.5,479.0,0.87,0.43,-0.0,-3.81,-1.4,-0.29
2024-12-06 12:43:50.972,10.12,493.0,0.88,0.45,-0.03,-3.81,-1.4,-0.29
2024-12-06 12:43:50.977,13.27,494.0,0.89,0.46,-0.05,-2.22,-1.46,0.68
2024-12-06 12:43:50.984,14.4,481.0,0.89,0.45,-0.04,-1.24,-1.95,1.11
2024-12-06 12:43:50.991,15.97,492.0,0.9,0.42,-0.03,-0.63,-0.79,0.25
2024-12-06 12:43:51.0,15.75,484.0,0.9,0.42,-0.03,-0.57,1.04,-1.45
2024-12-06 12:43:51.8,14.17,483.0,0.89,0.4,-0.01,-0.33,2.51,-3.04
2024-12-06 12:43:51.16,13.27,489.0,0.9,0.41,0.01,-0.33,2.51,-3.04
2024-12-06 12:43:51.24,14.62,491.0,0.9,0.42,-0.01,-0.27,2.32,-3.16
2024-12-06 12:43:51.34,13.27,486.0,0.88,0.43,-0.03,-0.57,1.53,-3.35
2024-12-06 12:43:51.45,15.3,487.0,0.87,0.42,-0.04,-0.94,0.49,-4.08
2024-12-06 12:43:51.58,11.92,482.0,0.87,0.42,-0.03,-1.06,-0.3,-5.06
2024-12-06 12:43:51.60,14.4,480.0,0.87,0.42,-0.03,-1.12,-0.24,-5.67
2024-12-06 12:43:51.62,14.85,479.0,0.87,0.43,-0.02,-1.12,-0.24,-5.67
2024-12-06 12:43:51.70,13.72,500.0,0.88,0.45,-0.01,-1.37,-0.24,-5.85
2024-12-06 12:43:51.80,15.75,478.0,0.89,0.47,-0.02,-1.49,0.13,-5.42
2024-12-06 12:43:51.87,16.2,472.0,0.9,0.47,-0.02,-1.55,0.62,-4.69
2024-12-06 12:43:51.97,17.1,504.0,0.89,0.48,-0.02,-1.55,1.1,-4.02
2024-12-06 12:43:51.131,11.47,493.0,0.89,0.48,-0.02,-1.61,1.53,-3.59
2024-12-06 12:43:51.136,14.62,488.0,0.87,0.46,-0.02,-1.55,1.41,-4.99
2024-12-06 12:43:51.144,11.92,483.0,0.87,0.46,-0.02,-1.85,0.68,-5.12
2024-12-06 12:43:51.149,16.42,496.0,0.89,0.46,-0.01,-2.16,0.68,-4.81
2024-12-06 12:43:51.164,10.35,488.0,0.9,0.46,-0.01,-2.16,0.68,-4.81
2024-12-06 12:43:51.166,13.95,492.0,0.9,0.46,-0.01,-2.16,1.29,-4.32
2024-12-06 12:43:51.172,15.07,484.0,0.91,0.46,-0.02,-1.92,0.8,-3.77
2024-12-06 12:43:51.186,14.4,482.0,0.92,0.47,-0.04,-1.55,1.23,-3.16
2024-12-06 12:43:51.189,11.92,480.0,0.92,0.47,-0.04,-1.06,0.86,-2.49
2024-12-06 12:43:51.199,11.47,476.0,0.92,0.47,-0.03,-1.06,0.86,-2.49
2024-12-06 12:43:51.206,15.07,516.0,0.91,0.46,-0.02,-0.63,0.62,-2.13
2024-12-06 12:43:51.211,15.3,482.0,0.9,0.46,-0.02,-0.39,0.68,-2.06
2024-12-06 12:43:51.220,10.57,496.0,0.9,0.45,-0.01,-0.15,0.13,-2.19
2024-12-06 12:43:51.226,13.72,482.0,0.89,0.44,-0.01,-0.08,-0.12,-2.43
2024-12-06 12:43:51.237,15.3,493.0,0.89,0.44,-0.01,-0.08,-0.48,-2.8
2024-12-06 12:43:51.242,11.92,505.0,0.89,0.44,-0.01,-0.08,-0.48,-2.8
2024-12-06 12:43:51.250,13.27,488.0,0.88,0.44,-0.02,-0.02,-0.85,-3.22
2024-12-06 12:43:51.259,15.52,487.0,0.88,0.44,-0.02,0.04,-0.54,-3.47
2024-12-06 12:43:51.267,13.95,488.0,0.88,0.45,-0.02,0.16,-0.54,-3.65
2024-12-06 12:43:51.273,16.2,482.0,0.88,0.45,-0.02,0.1,-0.3,-3.65
2024-12-06 12:43:51.282,14.85,496.0,0.88,0.45,-0.02,0.04,0.07,-3.53
2024-12-06 12:43:51.359,13.05,478.0,0.88,0.46,-0.01,-0.15,0.25,-3.29
2024-12-06 12:43:51.490,16.42,484.0,0.88,0.46,-0.02,0.22,-0.61,-1.58
2024-12-06 12:43:51.498,11.25,489.0,0.87,0.46,-0.02,0.28,-0.54,-1.58
2024-12-06 12:43:51.501,14.62,486.0,0.87,0.46,-0.02,0.34,-0.54,-1.64
2024-12-06 12:43:51.508,14.62,495.0,0.87,0.47,-0.02,0.4,-0.42,-1.7
2024-12-06 12:43:51.519,14.85,482.0,0.87,0.47,-0.02,0.4,-0.42,-1.7
2024-12-06 12:43:51.523,14.17,479.0,0.87,0.47,-0.01,0.34,-0.06,-1.7
2024-12-06 12:43:51.532,16.88,476.0,0.87,0.47,-0.01,0.22,0.25,-1.64
2024-12-06 12:43:51.539,13.27,483.0,0.87,0.47,-0.0,0.04,0.55,-1.64
2024-12-06 12:43:51.548,16.2,497.0,0.87,0.47,-0.0,-0.21,0.74,-1.64
2024-12-06 12:43:51.560,14.85,480.0,0.87,0.46,-0.01,-0.33,0.68,-1.58
2024-12-06 12:43:51.563,14.62,498.0,0.87,0.46,-0.01,-0.33,0.68,-1.58
2024-12-06 12:43:51.573,14.17,477.0,0.87,0.45,-0.02,-0.39,0.62,-1.64
2024-12-06 12:43:51.579,17.77,483.0,0.87,0.45,-0.02,-0.39,0.31,-1.76
2024-12-06 12:43:51.615,13.72,488.0,0.87,0.45,-0.02,-0.39,0.07,-1.94
2024-12-06 12:43:51.619,16.88,486.0,0.87,0.47,-0.02,-0.51,-0.36,-2.49
2024-12-06 12:43:51.624,12.38,493.0,0.88,0.48,-0.03,-0.51,-0.36,-2.37
2024-12-06 12:43:51.632,9.68,497.0,0.88,0.48,-0.03,-0.39,-0.3,-2.25
2024-12-06 12:43:51.639,15.07,505.0,0.87,0.48,-0.03,-0.27,-0.18,-2.19
2024-12-06 12:43:51.650,8.77,485.0,0.87,0.48,-0.03,-0.27,-0.18,-2.19
2024-12-06 12:43:51.655,14.85,501.0,0.87,0.47,-0.03,-0.15,0.0,-2.31
2024-12-06 12:43:51.673,12.82,485.0,0.86,0.47,-0.02,-0.15,-0.06,-2.49
2024-12-06 12:43:51.676,13.72,482.0,0.86,0.47,-0.02,-0.27,0.13,-2.61
2024-12-06 12:43:51.679,10.12,498.0,0.86,0.47,-0.02,-0.27,0.25,-2.68
2024-12-06 12:43:51.687,11.25,480.0,0.87,0.47,-0.02,-0.39,0.37,-2.55
2024-12-06 12:43:51.696,12.82,533.0,0.87,0.48,-0.02,-0.39,0.37,-2.55
2024-12-06 12:43:51.707,4.05,481.0,0.88,0.48,-0.02,-0.45,0.62,-2.31
2024-12-06 12:43:51.711,14.17,485.0,0.87,0.48,-0.02,-0.57,0.68,-2.13
2024-12-06 12:43:51.720,14.17,503.0,0.87,0.47,-0.01,-0.76,0.43,-2.0
2024-12-06 12:43:51.732,10.35,488.0,0.86,0.47,-0.01,-0.82,0.25,-2.31
2024-12-06 12:43:51.738,10.12,494.0,0.86,0.47,-0.01,-0.88,0.19,-2.68
2024-12-06 12:43:51.743,13.95,484.0,0.87,0.47,-0.02,-0.88,0.19,-2.86
2024-12-06 12:43:51.751,14.17,487.0,0.87,0.48,-0.01,-1.0,0.31,-2.86
2024-12-06 12:43:51.759,11.47,490.0,0.88,0.49,-0.02,-0.76,-0.18,-2.61
2024-12-06 12:43:51.767,14.4,495.0,0.88,0.5,-0.03,-0.57,0.43,-2.25
2024-12-06 12:43:51.775,9.68,487.0,0.87,0.49,-0.01,-0.57,0.49,-2.06
2024-12-06 12:43:51.783,13.72,513.0,0.87,0.49,-0.01,-0.69,0.19,-2.13
2024-12-06 12:43:51.813,16.88,485.0,0.86,0.49,-0.01,-0.88,0.74,-2.43
2024-12-06 12:43:51.816,10.12,504.0,0.87,0.47,-0.02,-0.76,0.74,-2.61
2024-12-06 12:43:51.820,16.42,501.0,0.87,0.47,-0.02,-0.45,1.1,-2.43
2024-12-06 12:43:51.829,13.5,478.0,0.87,0.47,-0.03,-0.02,0.98,-1.94
2024-12-06 12:43:51.840,11.92,487.0,0.88,0.47,-0.03,-0.02,0.98,-1.94
2024-12-06 12:43:51.848,12.82,484.0,0.89,0.47,-0.02,0.1,1.04,-1.27
2024-12-06 12:43:51.856,14.62,489.0,0.89,0.47,-0.01,-0.02,1.1,-0.78
2024-12-06 12:43:51.860,14.4,484.0,0.89,0.46,-0.01,-0.21,1.29,-0.54
2024-12-06 12:43:51.872,14.4,484.0,0.89,0.46,-0.01,-0.33,1.29,-0.29
2024-12-06 12:43:51.878,13.5,483.0,0.88,0.46,-0.01,-0.45,0.98,-0.17
2024-12-06 12:43:51.883,14.4,489.0,0.88,0.45,-0.02,-0.45,0.98,-0.17
2024-12-06 12:43:51.891,16.2,478.0,0.88,0.45,-0.02,-0.45,0.86,-0.11
2024-12-06 12:43:51.903,15.3,485.0,0.89,0.45,-0.02,-0.45,0.68,-0.05
2024-12-06 12:43:51.909,15.97,486.0,0.89,0.46,-0.01,-0.51,0.43,0.01
2024-12-06 12:43:51.918,12.82,476.0,0.89,0.46,-0.01,-0.57,0.13,-0.05
2024-12-06 12:43:51.944,14.62,486.0,0.88,0.46,-0.02,-0.21,0.0,-0.6
2024-12-06 12:43:51.964,12.6,501.0,0.88,0.47,-0.03,0.16,-0.42,-0.97
2024-12-06 12:43:51.966,13.5,486.0,0.88,0.49,-0.03,0.53,-0.61,-0.84
2024-12-06 12:43:51.969,11.7,489.0,0.88,0.51,-0.03,0.53,-0.61,-0.84
2024-12-06 12:43:51.976,15.3,484.0,0.88,0.51,-0.02,0.71,-0.42,-0.54
2024-12-06 12:43:51.984,15.07,487.0,0.87,0.5,-0.02,0.71,-0.36,-0.29
2024-12-06 12:43:51.996,11.7,483.0,0.86,0.49,-0.02,0.59,-0.42,-0.11
2024-12-06 12:43:52.5,11.47,474.0,0.86,0.49,-0.01,0.34,-0.24,-0.05
2024-12-06 12:43:52.8,14.85,484.0,0.86,0.48,-0.01,0.04,-0.18,0.01
2024-12-06 12:43:52.42,13.05,481.0,0.86,0.46,-0.01,0.04,1.04,0.07
2024-12-06 12:43:52.46,14.62,496.0,0.86,0.46,-0.01,0.65,1.41,0.13
2024-12-06 12:43:52.54,9.45,471.0,0.87,0.47,-0.02,0.65,1.41,0.13
2024-12-06 12:43:52.61,9.68,490.0,0.87,0.47,-0.01,0.47,0.55,0.07
2024-12-06 12:43:52.69,15.07,504.0,0.86,0.47,-0.0,0.1,-0.18,-0.36
2024-12-06 12:43:52.79,13.95,480.0,0.86,0.46,-0.01,-0.39,0.25,-1.03
2024-12-06 12:43:52.85,10.8,486.0,0.86,0.46,-0.01,-0.76,0.19,-1.39
2024-12-06 12:43:52.97,13.5,486.0,0.87,0.46,-0.0,-0.69,-0.61,-1.33
2024-12-06 12:43:52.104,13.27,480.0,0.88,0.46,-0.01,-0.69,-0.61,-1.33
2024-12-06 12:43:52.109,11.7,489.0,0.87,0.46,-0.02,-0.76,-0.06,-1.09
2024-12-06 12:43:52.118,14.17,481.0,0.87,0.46,-0.01,-0.63,-0.24,-0.91
2024-12-06 12:43:52.125,13.72,496.0,0.87,0.47,-0.01,-0.51,0.0,-0.66
2024-12-06 12:43:52.134,16.65,476.0,0.87,0.47,-0.01,-0.21,1.04,-0.48
2024-12-06 12:43:52.141,12.82,482.0,0.87,0.47,-0.01,0.1,1.71,-0.23
2024-12-06 12:43:52.150,13.72,485.0,0.87,0.47,-0.01,0.1,1.71,-0.23
2024-12-06 12:43:52.158,15.52,488.0,0.88,0.47,-0.02,0.34,2.02,0.01
2024-12-06 12:43:52.173,15.07,486.0,0.88,0.47,-0.02,0.53,1.84,0.13
2024-12-06 12:43:52.176,8.77,483.0,0.88,0.47,-0.02,0.71,1.53,0.01
2024-12-06 12:43:52.181,15.3,478.0,0.88,0.47,-0.02,0.77,0.92,-0.29
2024-12-06 12:43:52.187,14.4,486.0,0.88,0.47,-0.02,0.65,0.19,-0.78
2024-12-06 12:43:52.194,11.7,502.0,0.88,0.46,-0.02,0.65,0.19,-0.78
2024-12-06 12:43:52.202,16.2,499.0,0.88,0.47,-0.02,0.4,-0.36,-1.21
2024-12-06 12:43:52.229,4.28,508.0,0.88,0.47,-0.01,0.22,-1.09,-1.52
2024-12-06 12:43:52.263,15.07,484.0,0.86,0.48,-0.02,0.47,0.37,-1.64
2024-12-06 12:43:52.265,11.47,476.0,0.86,0.48,-0.02,0.4,0.98,-1.27
2024-12-06 12:43:52.272,11.92,486.0,0.86,0.48,-0.01,0.4,0.98,-1.27
2024-12-06 12:43:52.278,9.22,488.0,0.86,0.48,-0.01,0.28,1.29,-1.03
2024-12-06 12:43:52.286,10.57,496.0,0.87,0.48,-0.02,0.1,1.59,-0.84
2024-12-06 12:43:52.295,11.02,493.0,0.87,0.48,-0.02,-0.15,1.47,-0.72
2024-12-06 12:43:52.302,14.17,489.0,0.88,0.47,-0.02,-0.51,1.1,-0.6
2024-12-06 12:43:52.311,11.25,493.0,0.88,0.47,-0.02,-0.76,0.68,-0.54
2024-12-06 12:43:52.319,14.17,488.0,0.88,0.46,-0.01,-0.76,0.68,-0.54
2024-12-06 12:43:52.326,14.4,480.0,0.89,0.46,-0.01,-1.0,0.19,-0.54
2024-12-06 12:43:52.337,13.5,494.0,0.89,0.47,-0.01,-1.12,-0.18,-0.48
2024-12-06 12:43:52.343,14.62,489.0,0.89,0.48,-0.02,-1.12,-0.36,-0.42
2024-12-06 12:43:52.350,13.27,489.0,0.88,0.48,-0.02,-1.06,-0.54,-0.29
2024-12-06 12:43:52.364,14.62,505.0,0.88,0.48,-0.02,-0.76,-0.73,-0.23
2024-12-06 12:43:52.374,12.82,497.0,0.87,0.48,-0.01,-0.76,-0.73,-0.23
2024-12-06 12:43:52.384,12.82,489.0,0.87,0.48,-0.01,-0.45,-0.3,-0.36
2024-12-06 12:43:52.391,14.17,475.0,0.87,0.47,-0.01,-0.15,0.07,-0.29
2024-12-06 12:43:52.394,8.77,497.0,0.87,0.47,-0.01,0.16,0.31,-0.29
2024-12-06 12:43:52.397,11.02,517.0,0.87,0.47,-0.01,0.28,0.74,-0.42
2024-12-06 12:43:52.404,14.17,499.0,0.87,0.47,-0.01,0.28,0.74,-0.42
2024-12-06 12:43:52.413,12.82,487.0,0.87,0.48,-0.01,0.4,1.16,-0.42
2024-12-06 12:43:52.509,13.72,481.0,0.87,0.48,-0.01,0.47,1.29,-0.42
2024-12-06 12:43:52.526,10.8,528.0,0.87,0.47,-0.0,0.53,0.13,-1.09
2024-12-06 12:43:52.532,14.4,482.0,0.87,0.47,0.0,0.59,0.55,-1.09
2024-12-06 12:43:52.536,10.8,491.0,0.87,0.47,0.0,0.65,0.68,-1.09
2024-12-06 12:43:52.541,10.12,494.0,0.87,0.46,-0.0,0.71,0.8,-1.15
2024-12-06 12:43:52.551,11.02,503.0,0.87,0.46,-0.0,0.71,0.86,-1.09
2024-12-06 12:43:52.555,14.62,483.0,0.87,0.46,-0.01,0.71,0.68,-1.03
2024-12-06 12:43:52.563,14.4,483.0,0.87,0.46,-0.01,0.71,0.68,-1.03
2024-12-06 12:43:52.573,13.95,486.0,0.88,0.47,-0.02,0.77,0.86,-0.97
2024-12-06 12:43:52.582,11.25,481.0,0.88,0.48,-0.02,0.95,0.98,-0.72
2024-12-06 12:43:52.594,10.57,485.0,0.89,0.48,-0.02,1.2,1.16,-0.36
2024-12-06 12:43:52.597,13.72,486.0,0.89,0.48,-0.02,1.38,1.35,0.07
2024-12-06 12:43:52.603,11.47,498.0,0.89,0.48,-0.02,1.44,1.41,0.62
2024-12-06 12:43:52.614,14.62,501.0,0.89,0.48,-0.02,1.44,1.41,0.62
2024-12-06 12:43:52.620,13.95,495.0,0.89,0.48,-0.01,1.38,1.35,1.17
2024-12-06 12:43:52.632,13.05,489.0,0.89,0.48,-0.02,1.56,1.47,1.78
2024-12-06 12:43:52.636,14.62,495.0,0.9,0.49,-0.02,1.62,2.45,2.76
2024-12-06 12:43:52.647,15.3,495.0,0.9,0.49,-0.02,1.69,2.81,4.28
2024-12-06 12:43:52.651,17.77,473.0,0.92,0.5,-0.02,1.81,2.81,5.87
2024-12-06 12:43:52.662,10.12,495.0,0.92,0.5,-0.01,1.81,2.81,5.87
2024-12-06 12:43:52.668,14.85,483.0,0.91,0.5,-0.01,1.81,3.36,7.15
2024-12-06 12:43:52.672,14.62,497.0,0.9,0.5,-0.01,1.81,3.36,7.82
2024-12-06 12:43:52.681,11.7,479.0,0.89,0.49,-0.01,1.99,3.3,8.07
2024-12-06 12:43:52.719,14.62,480.0,0.9,0.46,-0.01,2.05,2.14,8.62
2024-12-06 12:43:52.722,10.57,495.0,0.9,0.46,-0.01,2.05,1.9,9.04
2024-12-06 12:43:52.728,13.5,496.0,0.9,0.46,-0.01,1.87,1.16,9.53
2024-12-06 12:43:52.736,13.5,483.0,0.9,0.46,-0.0,1.87,1.1,9.78
2024-12-06 12:43:52.750,11.47,490.0,0.89,0.45,0.0,1.62,1.1,9.78
2024-12-06 12:43:52.758,14.62,482.0,0.89,0.45,0.01,1.2,0.62,10.02
2024-12-06 12:43:52.765,11.7,487.0,0.88,0.45,0.0,0.95,0.49,9.96
2024-12-06 12:43:52.773,13.5,493.0,0.88,0.45,0.0,0.89,0.31,9.78
2024-12-06 12:43:52.781,12.38,478.0,0.88,0.45,0.0,0.89,-0.18,9.47
2024-12-06 12:43:52.790,11.25,499.0,0.88,0.44,0.01,0.65,-0.18,9.47
2024-12-06 12:43:52.797,16.42,474.0,0.89,0.43,0.01,0.28,-0.48,9.47
2024-12-06 12:43:52.806,12.6,477.0,0.89,0.43,0.0,0.1,0.13,9.41
2024-12-06 12:43:52.814,14.17,484.0,0.89,0.42,0.0,0.22,0.0,9.41
2024-12-06 12:43:52.823,14.62,478.0,0.89,0.42,0.0,0.47,-0.18,9.47
2024-12-06 12:43:52.840,14.17,483.0,0.88,0.42,-0.01,0.65,-0.42,9.23
2024-12-06 12:43:52.844,11.25,487.0,0.87,0.41,-0.01,0.71,-0.85,8.37
2024-12-06 12:43:52.853,15.52,481.0,0.86,0.41,-0.01,1.01,-0.91,7.4
2024-12-06 12:43:52.860,15.75,486.0,0.87,0.42,-0.0,1.2,-1.22,6.3
2024-12-06 12:43:52.870,14.85,492.0,0.87,0.42,-0.0,1.32,-1.28,5.32
2024-12-06 12:43:52.879,12.38,475.0,0.87,0.42,-0.01,1.32,-1.28,5.32
2024-12-06 12:43:52.884,8.32,501.0,0.87,0.42,-0.01,1.62,-1.34,4.47
2024-12-06 12:43:52.890,8.77,495.0,0.87,0.42,-0.02,1.99,-1.15,3.73
2024-12-06 12:43:52.900,14.17,483.0,0.86,0.43,-0.03,2.42,-0.54,3.12
2024-12-06 12:43:52.908,10.35,491.0,0.86,0.43,-0.03,2.85,-0.12,2.82
2024-12-06 12:43:52.943,15.07,509.0,0.85,0.45,-0.04,3.33,1.53,2.45
2024-12-06 12:43:52.945,16.88,483.0,0.86,0.44,-0.03,2.66,2.51,2.57
2024-12-06 12:43:52.954,15.3,491.0,0.86,0.44,-0.03,2.36,2.45,3.49
2024-12-06 12:43:52.965,16.65,479.0,0.89,0.44,-0.03,2.36,2.45,4.22
2024-12-06 12:43:52.968,15.3,499.0,0.88,0.44,-0.03,1.99,2.14,4.22
2024-12-06 12:43:52.976,15.3,488.0,0.88,0.44,-0.02,1.38,2.32,4.4
2024-12-06 12:43:52.993,15.07,498.0,0.89,0.43,-0.01,1.08,2.08,4.28
2024-12-06 12:43:52.995,17.55,484.0,0.9,0.43,-0.01,0.77,2.02,4.28
2024-12-06 12:43:52.999,13.5,482.0,0.9,0.43,-0.01,0.4,1.65,4.22
2024-12-06 12:43:53.7,16.42,487.0,0.91,0.43,-0.01,0.4,1.65,4.22
2024-12-06 12:43:53.17,16.42,486.0,0.91,0.44,-0.01,0.04,0.8,4.1
2024-12-06 12:43:53.36,13.95,508.0,0.91,0.43,-0.01,-0.27,0.55,3.92
2024-12-06 12:43:53.44,10.12,483.0,0.91,0.43,-0.01,-0.39,0.0,3.79
2024-12-06 12:43:53.47,14.4,497.0,0.91,0.42,-0.01,-0.39,-0.18,3.86
2024-12-06 12:43:53.55,14.17,479.0,0.91,0.42,-0.01,-0.45,-0.18,3.86
2024-12-06 12:43:53.64,11.47,485.0,0.91,0.42,-0.01,-0.63,-0.48,4.22
2024-12-06 12:43:53.69,13.5,489.0,0.91,0.42,-0.01,-0.69,-0.36,4.83
2024-12-06 12:43:53.77,14.85,478.0,0.9,0.42,-0.01,-0.69,-0.18,5.38
2024-12-06 12:43:53.88,12.82,468.0,0.9,0.42,-0.01,-0.76,0.25,6.18
2024-12-06 12:43:53.93,16.88,473.0,0.9,0.43,-0.01,-0.76,0.43,7.21
2024-12-06 12:43:53.104,11.25,481.0,0.9,0.43,-0.01,-0.76,0.43,7.21
2024-12-06 12:43:53.113,14.62,485.0,0.92,0.42,-0.02,-0.94,1.16,7.88
2024-12-06 12:43:53.120,15.52,471.0,0.92,0.42,-0.01,-1.18,1.59,8.8
2024-12-06 12:43:53.125,18.23,469.0,0.91,0.42,-0.01,-1.3,1.1,9.59
2024-12-06 12:43:53.133,13.27,483.0,0.91,0.43,-0.01,-1.79,1.35,10.2
2024-12-06 12:43:53.146,15.3,481.0,0.92,0.43,-0.01,-2.16,0.62,10.94
2024-12-06 12:43:53.149,14.62,476.0,0.93,0.43,0.01,-2.16,0.62,11.67
2024-12-06 12:43:53.165,14.17,470.0,0.93,0.43,0.01,-2.59,-0.12,11.67
2024-12-06 12:43:53.169,11.47,489.0,0.93,0.43,0.0,-2.89,-0.12,12.03
2024-12-06 12:43:53.172,15.97,478.0,0.93,0.42,0.01,-3.01,-0.3,12.4
2024-12-06 12:43:53.192,13.05,468.0,0.93,0.42,0.01,-3.07,-1.4,12.64
2024-12-06 12:43:53.200,13.05,479.0,0.93,0.41,0.01,-3.07,-1.4,12.64
2024-12-06 12:43:53.210,14.17,484.0,0.93,0.41,0.02,-2.95,-1.83,12.77
2024-12-06 12:43:53.213,8.77,482.0,0.93,0.41,0.02,-2.59,-2.56,12.77
2024-12-06 12:43:53.220,12.15,482.0,0.92,0.4,0.01,-2.16,-2.56,12.46
2024-12-06 12:43:53.253,11.7,470.0,0.83,0.32,-0.02,-0.63,-11.47,6.85
2024-12-06 12:43:53.286,13.5,485.0,0.84,0.3,-0.05,-0.69,-6.77,2.33
2024-12-06 12:43:53.288,13.95,483.0,0.85,0.34,0.0,1.08,-8.11,-4.2
2024-12-06 12:43:53.300,18.0,478.0,0.82,0.34,-0.02,2.17,-7.44,-6.28
2024-12-06 12:43:53.304,14.4,469.0,0.83,0.36,-0.03,2.97,-2.8,-8.6
2024-12-06 12:43:53.312,17.32,475.0,0.83,0.36,-0.03,3.82,0.62,-9.69
2024-12-06 12:43:53.324,21.82,466.0,0.86,0.38,-0.02,4.98,-1.09,-10.43
2024-12-06 12:43:53.328,20.48,474.0,0.84,0.37,-0.02,4.98,-1.09,-10.43
2024-12-06 12:43:53.339,22.5,486.0,0.84,0.35,-0.06,5.78,0.55,-12.26
2024-12-06 12:43:53.344,19.8,471.0,0.89,0.36,-0.03,5.59,4.46,-12.93
2024-12-06 12:43:53.357,21.82,486.0,0.88,0.36,-0.01,6.02,-0.12,-12.81
2024-12-06 12:43:53.364,18.0,474.0,0.88,0.36,-0.01,5.53,-1.52,-13.6
2024-12-06 12:43:53.388,25.2,476.0,0.88,0.37,-0.01,5.29,-1.89,-15.31
2024-12-06 12:43:53.393,26.77,454.0,0.9,0.38,-0.0,4.25,-1.46,-15.8
2024-12-06 12:43:53.399,28.35,488.0,0.91,0.39,-0.01,5.35,-1.89,-16.22
2024-12-06 12:43:53.407,27.67,491.0,0.91,0.39,-0.01,4.43,1.1,-16.77
2024-12-06 12:43:53.413,29.25,486.0,0.91,0.38,-0.04,4.43,3.3,-17.14
2024-12-06 12:43:53.421,30.6,476.0,0.92,0.38,-0.01,5.47,3.3,-17.14
2024-12-06 12:43:53.430,32.4,492.0,0.92,0.38,0.0,5.04,-0.18,-17.38
2024-12-06 12:43:53.437,31.72,480.0,0.91,0.38,0.0,5.53,-2.92,-17.45
2024-12-06 12:43:53.446,27.9,477.0,0.91,0.39,-0.02,5.9,-5.06,-17.69
2024-12-06 12:43:53.453,30.15,485.0,0.91,0.39,-0.02,5.23,-6.04,-17.2
2024-12-06 12:43:53.468,32.62,489.0,0.93,0.42,-0.01,6.08,-7.08,-16.71
2024-12-06 12:43:53.587,45.67,485.0,0.91,0.47,-0.0,0.77,-3.72,-9.76
2024-12-06 12:43:53.590,41.85,474.0,0.89,0.46,-0.04,0.04,-2.68,-9.45
2024-12-06 12:43:53.598,44.55,486.0,0.86,0.45,-0.01,-0.33,-1.58,-10.12
2024-12-06 12:43:53.608,46.57,481.0,0.87,0.45,-0.01,-0.57,-2.07,-10.67
2024-12-06 12:43:53.615,44.32,484.0,0.88,0.46,-0.03,-1.18,-1.09,-10.61
2024-12-06 12:43:53.623,47.02,480.0,0.88,0.46,-0.03,-1.49,-2.68,-10.18
2024-12-06 12:43:53.637,51.07,492.0,0.87,0.47,-0.02,-1.61,-2.19,-10.0
2024-12-06 12:43:53.675,45.9,478.0,0.9,0.49,-0.05,-1.98,-0.06,-8.41
2024-12-06 12:43:53.682,49.72,519.0,0.91,0.51,-0.03,-2.1,-1.58,-6.46
2024-12-06 12:43:53.685,51.07,489.0,0.88,0.5,-0.04,-2.22,-2.8,-5.42
2024-12-06 12:43:53.691,54.22,475.0,0.87,0.48,-0.05,-2.65,-1.52,-5.73
2024-12-06 12:43:53.739,54.45,485.0,0.89,0.47,-0.04,-2.28,-3.05,-5.79
2024-12-06 12:43:53.753,52.88,551.0,0.87,0.46,-0.04,-2.34,-2.99,-6.7
2024-12-06 12:43:53.755,55.57,486.0,0.87,0.46,-0.03,-2.34,-2.99,-6.7
2024-12-06 12:43:53.760,51.52,489.0,0.87,0.48,-0.02,-2.46,-3.05,-6.76
2024-12-06 12:43:53.770,50.85,512.0,0.87,0.49,-0.03,-2.83,-2.99,-6.76
2024-12-06 12:43:53.786,51.75,494.0,0.86,0.49,-0.02,-3.26,-2.86,-6.89
2024-12-06 12:43:53.788,54.9,498.0,0.85,0.47,-0.02,-3.32,-3.23,-7.37
2024-12-06 12:43:53.795,51.97,506.0,0.85,0.47,-0.02,-3.44,-3.29,-8.23
2024-12-06 12:43:53.802,57.82,494.0,0.84,0.45,-0.03,-3.44,-2.68,-9.02
2024-12-06 12:43:53.809,54.67,493.0,0.86,0.45,-0.03,-3.69,-2.68,-9.02
2024-12-06 12:43:53.826,57.38,505.0,0.87,0.46,-0.02,-3.81,-3.05,-8.9
2024-12-06 12:43:53.952,57.15,501.0,0.87,0.46,-0.02,-3.87,-3.23,-8.47
2024-12-06 12:43:53.962,63.67,528.0,0.88,0.51,-0.04,-2.46,-5.61,-5.54
2024-12-06 12:43:53.968,66.38,525.0,0.87,0.49,-0.03,-2.28,-6.04,-5.79
2024-12-06 12:43:53.985,62.55,512.0,0.87,0.49,-0.03,-2.1,-6.34,-5.91
2024-12-06 12:43:53.988,67.95,522.0,0.88,0.5,-0.04,-2.4,-5.43,-5.3
2024-12-06 12:43:53.993,67.05,526.0,0.88,0.5,-0.04,-2.59,-4.94,-4.45
2024-12-06 12:43:53.999,63.9,549.0,0.87,0.51,-0.04,-2.34,-4.76,-3.83
2024-12-06 12:43:54.19,64.57,525.0,0.87,0.51,-0.04,-2.34,-4.76,-3.83
2024-12-06 12:43:54.25,65.47,534.0,0.86,0.51,-0.05,-2.16,-4.76,-3.22
2024-12-06 12:43:54.30,67.5,551.0,0.85,0.5,-0.05,-2.1,-4.63,-2.61
2024-12-06 12:43:54.42,69.53,521.0,0.85,0.5,-0.06,-2.34,-3.84,-1.88
2024-12-06 12:43:54.44,69.75,544.0,0.85,0.5,-0.06,-2.34,-3.72,-1.09
2024-12-06 12:43:54.47,65.47,518.0,0.86,0.5,-0.06,-2.34,-3.72,-1.09
2024-12-06 12:43:54.54,65.7,524.0,0.86,0.51,-0.06,-2.4,-3.54,-0.72
2024-12-06 12:43:54.61,64.8,535.0,0.85,0.51,-0.06,-2.28,-3.84,-0.48
2024-12-06 12:43:54.68,69.75,537.0,0.84,0.51,-0.06,-2.34,-4.27,-0.42
2024-12-06 12:43:54.77,65.25,565.0,0.84,0.5,-0.06,-2.46,-4.39,-0.97
2024-12-06 12:43:54.85,68.17,585.0,0.84,0.5,-0.06,-2.59,-4.21,-1.64
2024-12-06 12:43:54.94,67.05,543.0,0.85,0.5,-0.05,-2.59,-4.21,-1.64
2024-12-06 12:43:54.113,69.07,545.0,0.87,0.51,-0.05,-2.59,-4.21,-1.94
2024-12-06 12:43:54.129,71.78,537.0,0.87,0.51,-0.04,-2.59,-4.57,-1.82
2024-12-06 12:43:54.140,69.53,553.0,0.85,0.52,-0.03,-2.65,-4.08,-2.13
2024-12-06 12:43:54.144,74.03,540.0,0.85,0.52,-0.03,-2.65,-4.08,-2.13
2024-12-06 12:43:54.149,64.8,568.0,0.86,0.52,-0.04,-2.4,-4.63,-2.0
2024-12-06 12:43:54.168,69.3,567.0,0.85,0.53,-0.06,-2.16,-4.69,-1.58
2024-12-06 12:43:54.170,75.15,549.0,0.85,0.54,-0.07,-2.34,-5.55,-0.97
2024-12-06 12:43:54.186,71.1,556.0,0.85,0.54,-0.06,-2.34,-6.46,-0.84
2024-12-06 12:43:54.187,73.12,544.0,0.85,0.54,-0.06,-2.4,-6.46,-0.84
2024-12-06 12:43:54.195,75.82,551.0,0.85,0.54,-0.06,-2.59,-6.89,-0.6
2024-12-06 12:43:54.203,75.82,552.0,0.84,0.53,-0.05,-2.83,-7.2,-0.36
2024-12-06 12:43:54.219,71.1,567.0,0.84,0.51,-0.05,-3.01,-6.95,-0.48
2024-12-06 12:43:54.221,74.7,557.0,0.84,0.51,-0.05,-3.14,-5.79,-0.42
2024-12-06 12:43:54.225,71.1,566.0,0.85,0.5,-0.05,-3.14,-5.79,-0.42
2024-12-06 12:43:54.232,76.5,568.0,0.86,0.49,-0.04,-2.77,-5.31,0.13
2024-12-06 12:43:54.240,75.6,551.0,0.85,0.49,-0.05,-2.53,-4.39,0.8
2024-12-06 12:43:54.248,76.5,556.0,0.85,0.49,-0.05,-2.34,-2.86,1.48
2024-12-06 12:43:54.262,73.8,558.0,0.85,0.49,-0.04,-2.22,-1.34,2.09
2024-12-06 12:43:54.264,72.45,574.0,0.85,0.49,-0.04,-1.85,-0.48,2.33
2024-12-06 12:43:54.273,75.6,567.0,0.84,0.49,-0.05,-1.85,0.8,2.27
2024-12-06 12:43:54.281,76.5,557.0,0.84,0.48,-0.06,-1.85,0.8,2.27
2024-12-06 12:43:54.290,78.97,571.0,0.83,0.48,-0.07,-1.67,1.04,2.02
2024-12-06 12:43:54.299,74.25,580.0,0.83,0.47,-0.08,-1.49,0.8,1.35
2024-12-06 12:43:54.306,72.45,572.0,0.84,0.46,-0.08,-1.49,0.86,0.62
2024-12-06 12:43:54.332,76.95,573.0,0.85,0.47,-0.07,-0.88,-0.48,-0.36
2024-12-06 12:43:54.335,81.22,573.0,0.86,0.49,-0.07,-0.76,-0.73,-0.6
2024-12-06 12:43:54.341,75.82,594.0,0.87,0.49,-0.07,-0.33,-0.67,-0.66
2024-12-06 12:43:54.356,74.7,593.0,0.87,0.49,-0.07,0.34,-0.67,-0.6
2024-12-06 12:43:54.358,78.75,646.0,0.87,0.49,-0.07,0.34,-0.67,-0.6
2024-12-06 12:43:54.366,80.78,580.0,0.87,0.48,-0.08,1.2,-1.09,-0.6
2024-12-06 12:43:54.372,80.78,602.0,0.86,0.48,-0.08,1.62,-1.4,-0.78
2024-12-06 12:43:54.381,80.55,599.0,0.86,0.49,-0.07,1.62,-2.01,-0.97
2024-12-06 12:43:54.392,80.32,595.0,0.87,0.51,-0.06,1.32,-2.07,-0.84
2024-12-06 12:43:54.404,82.35,587.0,0.87,0.51,-0.06,1.08,-2.44,-0.48
2024-12-06 12:43:54.406,81.0,587.0,0.87,0.52,-0.05,1.01,-2.5,0.07
2024-12-06 12:43:54.413,76.95,597.0,0.86,0.51,-0.05,1.01,-2.5,0.07
2024-12-06 12:43:54.420,80.55,615.0,0.86,0.51,-0.06,1.01,-2.56,0.56
2024-12-06 12:43:54.428,81.9,594.0,0.85,0.51,-0.07,0.89,-2.44,1.11
2024-12-06 12:43:54.437,79.65,600.0,0.85,0.5,-0.07,0.71,-2.19,1.54
2024-12-06 12:43:54.444,81.0,625.0,0.85,0.5,-0.07,0.59,-1.77,1.84
2024-12-06 12:43:54.457,83.47,611.0,0.85,0.49,-0.07,0.47,-1.52,2.15
2024-12-06 12:43:54.476,80.78,638.0,0.85,0.49,-0.06,0.34,-0.97,2.27
2024-12-06 12:43:54.485,83.7,633.0,0.86,0.49,-0.06,0.22,-0.36,2.51
2024-12-06 12:43:54.488,84.38,649.0,0.86,0.49,-0.06,0.22,-0.24,2.7
2024-12-06 12:43:54.611,83.25,623.0,0.86,0.49,-0.06,0.1,0.31,2.63
2024-12-06 12:43:54.624,79.65,650.0,0.86,0.51,-0.05,-2.34,-0.36,5.14
2024-12-06 12:43:54.627,85.28,644.0,0.86,0.47,-0.05,-1.79,-0.24,5.26
2024-12-06 12:43:54.635,84.6,637.0,0.87,0.45,-0.06,-1.61,-0.85,5.38
2024-12-06 12:43:54.644,85.28,648.0,0.87,0.45,-0.06,-2.34,-1.58,5.38
2024-12-06 12:43:54.650,79.88,644.0,0.88,0.45,-0.07,-2.95,-2.38,5.14
2024-12-06 12:43:54.658,79.42,642.0,0.87,0.46,-0.06,-2.95,-2.38,5.14
2024-12-06 12:43:54.674,85.72,679.0,0.88,0.46,-0.05,-3.32,-2.92,4.77
2024-12-06 12:43:54.683,79.88,671.0,0.88,0.47,-0.03,-3.32,-3.6,4.4
2024-12-06 12:43:54.694,80.78,647.0,0.89,0.48,-0.03,-3.2,-3.72,4.22
2024-12-06 12:43:54.700,79.88,642.0,0.89,0.48,-0.03,-3.07,-3.66,4.04
2024-12-06 12:43:54.702,85.05,658.0,0.89,0.47,-0.04,-2.95,-3.84,3.79
2024-12-06 12:43:54.710,85.72,645.0,0.89,0.46,-0.06,-2.95,-3.84,3.79
2024-12-06 12:43:54.719,81.9,661.0,0.88,0.47,-0.07,-2.89,-3.72,3.43
2024-12-06 12:43:54.725,82.57,646.0,0.86,0.47,-0.07,-2.77,-3.54,3.25
2024-12-06 12:43:54.736,84.38,623.0,0.85,0.48,-0.07,-2.53,-3.11,3.0
2024-12-06 12:43:54.751,85.72,653.0,0.85,0.48,-0.07,-2.1,-2.74,3.0
2024-12-06 12:43:54.758,79.42,679.0,0.84,0.48,-0.08,-1.73,-2.8,3.18
2024-12-06 12:43:54.761,82.8,655.0,0.85,0.47,-0.08,-1.67,-2.68,3.18
2024-12-06 12:43:54.772,83.25,667.0,0.85,0.46,-0.08,-1.73,-2.74,3.12
2024-12-06 12:43:54.785,81.45,668.0,0.85,0.46,-0.08,-1.79,-2.74,3.0
2024-12-06 12:43:54.788,83.92,666.0,0.86,0.46,-0.08,-1.67,-2.74,2.7
2024-12-06 12:43:54.798,81.45,661.0,0.86,0.46,-0.08,-1.67,-2.74,2.7
2024-12-06 12:43:54.810,84.6,662.0,0.87,0.45,-0.07,-1.0,-2.5,1.84
2024-12-06 12:43:54.823,80.32,641.0,0.87,0.45,-0.08,0.16,-1.95,0.8
2024-12-06 12:43:54.829,84.6,665.0,0.87,0.46,-0.08,0.59,-1.64,0.32
2024-12-06 12:43:54.837,81.45,659.0,0.87,0.46,-0.08,0.59,-1.64,0.32
2024-12-06 12:43:54.846,83.47,661.0,0.87,0.46,-0.08,0.77,-1.34,-0.11
2024-12-06 12:43:54.856,80.55,637.0,0.87,0.46,-0.07,1.08,-1.28,-0.42
2024-12-06 12:43:54.862,84.6,669.0,0.88,0.45,-0.07,1.2,-1.46,-0.66
2024-12-06 12:43:54.874,79.88,677.0,0.88,0.44,-0.08,1.26,-1.77,-0.97
2024-12-06 12:43:54.879,82.57,659.0,0.88,0.44,-0.08,1.26,-2.31,-1.39
2024-12-06 12:43:54.885,80.32,660.0,0.88,0.43,-0.08,1.26,-2.31,-1.39
2024-12-06 12:43:54.894,84.38,650.0,0.88,0.43,-0.08,1.2,-2.74,-2.0
2024-12-06 12:43:54.901,82.12,668.0,0.88,0.43,-0.08,1.08,-2.86,-2.61
2024-12-06 12:43:54.909,83.03,652.0,0.88,0.44,-0.07,1.14,-3.05,-3.04
2024-12-06 12:43:54.917,85.28,662.0,0.88,0.46,-0.06,1.01,-2.92,-3.41
2024-12-06 12:43:54.926,76.5,661.0,0.88,0.46,-0.06,0.83,-2.8,-3.53
2024-12-06 12:43:54.933,80.1,648.0,0.88,0.46,-0.06,0.83,-2.8,-3.41
2024-12-06 12:43:54.942,83.03,661.0,0.88,0.45,-0.06,0.59,-2.8,-3.41
2024-12-06 12:43:54.979,83.03,658.0,0.88,0.43,-0.07,-0.88,-2.38,-2.49
2024-12-06 12:43:54.981,83.47,653.0,0.88,0.43,-0.07,-0.88,-2.38,-2.49
2024-12-06 12:43:54.989,83.25,642.0,0.88,0.45,-0.07,-1.0,-2.56,-1.94
2024-12-06 12:43:54.998,85.05,649.0,0.88,0.45,-0.07,-1.24,-2.38,-1.58
2024-12-06 12:43:55.2,84.15,637.0,0.88,0.46,-0.07,-1.49,-2.13,-1.09
2024-12-06 12:43:55.11,85.05,657.0,0.88,0.46,-0.07,-1.67,-2.01,-0.72
2024-12-06 12:43:55.19,82.57,643.0,0.88,0.46,-0.06,-1.92,-1.7,-0.29
2024-12-06 12:43:55.26,80.1,638.0,0.88,0.47,-0.06,-1.92,-1.7,-0.29
2024-12-06 12:43:55.36,83.03,644.0,0.88,0.47,-0.06,-1.92,-1.34,0.07
2024-12-06 12:43:55.47,81.67,658.0,0.88,0.46,-0.06,-1.85,-1.15,0.38
2024-12-06 12:43:55.61,79.65,650.0,0.88,0.47,-0.07,-1.79,-1.22,0.62
2024-12-06 12:43:55.66,80.78,644.0,0.88,0.47,-0.07,-1.73,-1.09,0.56
2024-12-06 12:43:55.68,85.5,621.0,0.87,0.47,-0.08,-1.55,-0.85,0.38
2024-12-06 12:43:55.73,83.03,646.0,0.87,0.47,-0.08,-1.55,-0.85,0.38
2024-12-06 12:43:55.83,83.47,617.0,0.86,0.48,-0.08,-1.18,-0.85,0.13
2024-12-06 12:43:55.91,85.95,659.0,0.86,0.48,-0.08,-0.94,-1.03,-0.17
2024-12-06 12:43:55.109,80.1,656.0,0.86,0.48,-0.09,-0.69,-0.91,-0.42
2024-12-06 12:43:55.145,81.67,642.0,0.86,0.49,-0.08,0.65,-0.85,-1.03
2024-12-06 12:43:55.155,83.7,642.0,0.86,0.49,-0.08,0.65,-0.85,-1.03
2024-12-06 12:43:55.158,81.45,640.0,0.87,0.49,-0.08,0.95,-0.97,-1.15
2024-12-06 12:43:55.166,73.8,641.0,0.87,0.48,-0.08,1.26,-1.03,-1.21
2024-12-06 12:43:55.176,78.97,681.0,0.87,0.48,-0.08,1.32,-1.4,-1.33
2024-12-06 12:43:55.182,78.75,644.0,0.87,0.48,-0.08,1.14,-1.52,-1.45
2024-12-06 12:43:55.188,84.38,638.0,0.87,0.48,-0.08,1.01,-1.58,-1.39
2024-12-06 12:43:55.201,85.28,636.0,0.87,0.48,-0.08,1.01,-1.58,-1.39
2024-12-06 12:43:55.205,81.22,647.0,0.87,0.48,-0.07,1.01,-1.77,-1.33
2024-12-06 12:43:55.212,83.92,656.0,0.87,0.48,-0.07,1.01,-1.77,-1.27
2024-12-06 12:43:55.221,84.15,650.0,0.87,0.47,-0.07,0.89,-1.52,-1.21
2024-12-06 12:43:55.231,78.75,628.0,0.87,0.47,-0.07,0.89,-1.52,-1.21
2024-12-06 12:43:55.235,82.57,655.0,0.87,0.47,-0.07,0.89,-1.28,-1.39
2024-12-06 12:43:55.243,81.67,636.0,0.86,0.46,-0.08,0.89,-1.28,-1.39
2024-12-06 12:43:55.283,83.92,641.0,0.86,0.47,-0.09,0.83,-1.7,-1.94
2024-12-06 12:43:55.286,82.12,634.0,0.86,0.47,-0.09,0.83,-1.7,-1.94
2024-12-06 12:43:55.289,83.47,647.0,0.86,0.47,-0.08,0.47,-1.52,-1.82
2024-12-06 12:43:55.297,85.95,636.0,0.86,0.47,-0.08,0.4,-1.77,-1.7
2024-12-06 12:43:55.304,84.6,647.0,0.86,0.47,-0.08,0.22,-1.7,-1.52
2024-12-06 12:43:55.317,84.6,633.0,0.86,0.47,-0.08,0.16,-1.89,-1.27
2024-12-06 12:43:55.322,85.5,647.0,0.86,0.47,-0.08,0.04,-1.58,-1.09
2024-12-06 12:43:55.328,84.15,635.0,0.86,0.47,-0.08,0.04,-1.58,-1.09
2024-12-06 12:43:55.336,83.92,626.0,0.86,0.48,-0.08,0.1,-1.34,-0.97
2024-12-06 12:43:55.347,83.92,645.0,0.86,0.48,-0.07,0.22,-1.09,-0.91
2024-12-06 12:43:55.357,81.22,635.0,0.87,0.48,-0.07,0.28,-0.91,-0.84
2024-12-06 12:43:55.362,84.6,630.0,0.87,0.48,-0.08,0.16,-0.67,-0.78
2024-12-06 12:43:55.367,78.97,632.0,0.87,0.47,-0.08,0.16,-0.61,-0.66
2024-12-06 12:43:55.383,83.7,628.0,0.87,0.47,-0.08,0.16,-0.61,-0.66
2024-12-06 12:43:55.387,81.9,635.0,0.87,0.47,-0.08,0.22,-0.79,-0.54
2024-12-06 12:43:55.392,75.15,642.0,0.87,0.47,-0.08,0.28,-0.79,-0.54
2024-12-06 12:43:55.401,83.92,643.0,0.87,0.46,-0.08,0.34,-1.22,-0.66
2024-12-06 12:43:55.406,80.55,641.0,0.87,0.46,-0.08,0.28,-1.4,-0.97
2024-12-06 12:43:55.414,83.47,628.0,0.87,0.47,-0.08,0.28,-1.52,-1.33
2024-12-06 12:43:55.422,83.7,628.0,0.87,0.47,-0.08,0.28,-1.52,-1.33
2024-12-06 12:43:55.458,80.55,661.0,0.87,0.47,-0.08,0.28,-1.52,-1.64
2024-12-06 12:43:55.479,81.22,650.0,0.87,0.46,-0.08,0.28,-1.7,-2.68
2024-12-06 12:43:55.489,85.05,654.0,0.86,0.46,-0.09,0.22,-1.77,-2.61
2024-12-06 12:43:55.491,79.42,626.0,0.86,0.46,-0.09,0.04,-1.46,-2.43
2024-12-06 12:43:55.499,83.03,632.0,0.87,0.46,-0.09,0.04,-1.4,-2.19
2024-12-06 12:43:55.516,81.22,628.0,0.86,0.47,-0.09,-0.02,-1.4,-2.19
2024-12-06 12:43:55.522,83.25,625.0,0.86,0.47,-0.08,-0.08,-0.97,-1.82
2024-12-06 12:43:55.530,83.25,635.0,0.86,0.47,-0.08,-0.08,-0.85,-1.58
2024-12-06 12:43:55.533,84.15,625.0,0.86,0.47,-0.08,-0.21,-0.61,-1.39
2024-12-06 12:43:55.538,85.72,642.0,0.86,0.47,-0.08,-0.51,-0.36,-1.27
2024-12-06 12:43:55.546,84.82,621.0,0.87,0.46,-0.08,-0.51,-0.36,-1.27
2024-12-06 12:43:55.562,79.65,623.0,0.87,0.46,-0.08,-0.76,-0.24,-1.21
2024-12-06 12:43:55.564,80.55,653.0,0.87,0.46,-0.08,-0.94,-0.48,-1.21
2024-12-06 12:43:55.661,83.47,625.0,0.86,0.48,-0.09,-0.15,-0.12,-2.0
2024-12-06 12:43:55.677,78.3,624.0,0.86,0.48,-0.09,0.04,0.0,-2.06
2024-12-06 12:43:55.680,82.12,622.0,0.86,0.48,-0.09,0.28,-0.18,-2.19
2024-12-06 12:43:55.682,83.47,625.0,0.86,0.48,-0.09,0.47,-0.12,-2.25
2024-12-06 12:43:55.690,80.1,626.0,0.86,0.48,-0.09,0.53,0.07,-2.25
2024-12-06 12:43:55.702,78.97,626.0,0.86,0.49,-0.09,0.65,0.07,-2.19
2024-12-06 12:43:55.705,80.78,624.0,0.86,0.49,-0.09,0.65,0.07,-2.19
2024-12-06 12:43:55.713,83.47,636.0,0.86,0.48,-0.09,0.65,-0.06,-2.13
2024-12-06 12:43:55.724,84.6,627.0,0.85,0.48,-0.09,0.59,-0.06,-2.13
2024-12-06 12:43:55.729,84.15,651.0,0.85,0.47,-0.09,0.53,0.07,-2.13
2024-12-06 12:43:55.736,78.53,625.0,0.85,0.47,-0.09,0.47,0.07,-2.19
2024-12-06 12:43:55.746,85.28,626.0,0.85,0.47,-0.09,0.4,0.25,-2.25
2024-12-06 12:43:55.753,84.6,629.0,0.85,0.47,-0.09,0.4,0.25,-2.25
2024-12-06 12:43:55.760,83.25,649.0,0.86,0.47,-0.08,0.28,0.43,-2.25
2024-12-06 12:43:55.768,81.45,626.0,0.86,0.47,-0.08,0.28,0.62,-2.25
2024-12-06 12:43:55.777,79.88,633.0,0.86,0.47,-0.08,0.22,0.62,-2.19
2024-12-06 12:43:55.784,83.03,636.0,0.86,0.47,-0.08,0.1,0.62,-2.19
2024-12-06 12:43:55.795,83.7,616.0,0.87,0.48,-0.08,-0.02,0.62,-2.19
2024-12-06 12:43:55.800,85.72,619.0,0.87,0.47,-0.08,-0.02,0.62,-2.19
2024-12-06 12:43:55.809,81.22,622.0,0.86,0.47,-0.08,-0.08,0.55,-2.25
2024-12-06 12:43:55.822,83.92,648.0,0.87,0.47,-0.09,-0.08,0.19,-2.31
2024-12-06 12:43:55.826,83.03,620.0,0.87,0.47,-0.09,-0.15,0.07,-2.31
2024-12-06 12:43:55.832,85.95,634.0,0.87,0.47,-0.09,-0.15,-0.18,-2.31
2024-12-06 12:43:55.847,81.67,639.0,0.87,0.47,-0.09,-0.15,-0.24,-2.31
2024-12-06 12:43:55.849,82.57,631.0,0.86,0.47,-0.09,-0.15,-0.24,-2.31
2024-12-06 12:43:55.857,84.15,623.0,0.86,0.47,-0.09,-0.15,-0.24,-2.31
2024-12-06 12:43:55.863,80.55,630.0,0.86,0.47,-0.09,-0.08,-0.12,-2.37
2024-12-06 12:43:55.871,80.55,636.0,0.86,0.47,-0.09,0.1,0.0,-2.37
2024-12-06 12:43:55.879,83.25,633.0,0.86,0.47,-0.09,0.22,0.43,-2.25
2024-12-06 12:43:55.898,83.92,618.0,0.86,0.48,-0.09,0.47,0.37,-2.19
2024-12-06 12:43:55.908,86.62,615.0,0.86,0.48,-0.09,0.47,0.37,-2.19
2024-12-06 12:43:55.911,82.57,633.0,0.86,0.48,-0.08,0.1,0.92,-2.19
2024-12-06 12:43:55.918,82.8,617.0,0.86,0.48,-0.08,-0.21,1.04,-2.13
2024-12-06 12:43:55.932,81.45,616.0,0.86,0.48,-0.08,-0.39,1.1,-1.94
2024-12-06 12:43:55.935,83.92,640.0,0.86,0.48,-0.08,-0.45,1.04,-1.76
2024-12-06 12:43:55.942,86.17,617.0,0.87,0.48,-0.09,-0.45,1.04,-1.76
2024-12-06 12:43:55.951,84.15,614.0,0.87,0.48,-0.09,-0.39,0.98,-1.52
2024-12-06 12:43:55.958,84.38,616.0,0.87,0.48,-0.09,-0.27,0.98,-1.33
2024-12-06 12:43:55.965,83.7,612.0,0.87,0.48,-0.09,-0.02,0.8,-1.09
2024-12-06 12:43:55.996,80.1,617.0,0.87,0.48,-0.09,0.04,0.49,-0.91
2024-12-06 12:43:56.5,79.42,638.0,0.86,0.48,-0.08,-0.08,0.37,-0.91
2024-12-06 12:43:56.8,80.1,626.0,0.86,0.48,-0.08,-0.08,0.19,-1.03
2024-12-06 12:43:56.12,86.4,627.0,0.86,0.48,-0.08,0.04,0.19,-1.09
2024-12-06 12:43:56.23,85.72,605.0,0.86,0.49,-0.08,0.22,0.19,-1.21
2024-12-06 12:43:56.35,87.07,612.0,0.86,0.48,-0.08,0.22,0.19,-1.21
2024-12-06 12:43:56.39,83.92,623.0,0.86,0.48,-0.08,0.4,0.25,-1.33
2024-12-06 12:43:56.42,80.78,630.0,0.86,0.48,-0.08,0.53,0.43,-1.45
2024-12-06 12:43:56.50,75.38,623.0,0.86,0.48,-0.08,0.65,0.62,-1.39
2024-12-06 12:43:56.57,83.92,615.0,0.86,0.48,-0.08,0.83,0.55,-1.27
2024-12-06 12:43:56.69,83.03,638.0,0.86,0.48,-0.09,0.89,0.55,-1.09
2024-12-06 12:43:56.79,80.1,636.0,0.86,0.48,-0.09,0.89,0.55,-1.09
2024-12-06 12:43:56.91,85.28,629.0,0.86,0.49,-0.08,0.83,0.55,-0.97
2024-12-06 12:43:56.94,85.72,631.0,0.86,0.48,-0.08,0.83,0.49,-0.91
2024-12-06 12:43:56.98,85.95,632.0,0.86,0.48,-0.08,0.89,0.37,-0.91
2024-12-06 12:43:56.114,78.97,632.0,0.86,0.48,-0.08,0.95,0.19,-1.03
2024-12-06 12:43:56.119,80.1,633.0,0.86,0.48,-0.08,0.71,0.19,-1.21
2024-12-06 12:43:56.125,82.8,619.0,0.86,0.48,-0.08,0.71,0.19,-1.21
2024-12-06 12:43:56.130,85.5,629.0,0.86,0.48,-0.07,0.59,0.25,-1.39
2024-12-06 12:43:56.139,80.55,598.0,0.86,0.48,-0.07,0.47,0.31,-1.58
2024-12-06 12:43:56.144,79.2,616.0,0.86,0.48,-0.07,0.53,0.37,-1.64
2024-12-06 12:43:56.159,81.22,622.0,0.86,0.48,-0.07,0.65,0.55,-1.7
2024-12-06 12:43:56.170,84.82,631.0,0.86,0.48,-0.08,0.83,0.68,-1.76
2024-12-06 12:43:56.188,86.17,631.0,0.86,0.49,-0.09,0.95,0.8,-1.88
2024-12-06 12:43:56.192,80.55,621.0,0.86,0.48,-0.08,0.89,0.62,-2.43
2024-12-06 12:43:56.202,83.47,625.0,0.86,0.48,-0.08,0.77,0.74,-2.68
2024-12-06 12:43:56.210,85.72,629.0,0.86,0.48,-0.08,0.77,0.74,-2.8
2024-12-06 12:43:56.215,82.35,636.0,0.86,0.48,-0.08,0.59,0.98,-2.8
2024-12-06 12:43:56.223,83.92,642.0,0.85,0.48,-0.08,0.53,1.47,-2.86
2024-12-06 12:43:56.231,74.03,625.0,0.85,0.47,-0.07,0.53,1.53,-2.98
2024-12-06 12:43:56.239,84.38,639.0,0.86,0.46,-0.07,0.71,1.29,-3.16
2024-12-06 12:43:56.250,82.8,642.0,0.86,0.46,-0.07,0.95,1.29,-3.35
2024-12-06 12:43:56.255,85.05,625.0,0.87,0.46,-0.09,0.95,1.16,-3.35
2024-12-06 12:43:56.262,78.75,631.0,0.87,0.47,-0.1,1.08,1.16,-3.35
2024-12-06 12:43:56.294,83.7,633.0,0.86,0.48,-0.08,0.53,0.25,-4.2
2024-12-06 12:43:56.300,85.72,613.0,0.86,0.48,-0.08,0.4,0.07,-4.51
2024-12-06 12:43:56.305,78.3,630.0,0.87,0.48,-0.08,0.4,0.07,-4.51
2024-12-06 12:43:56.308,84.82,644.0,0.86,0.48,-0.08,0.53,-0.12,-4.93
2024-12-06 12:43:56.320,83.03,631.0,0.87,0.47,-0.08,0.83,-0.06,-5.18
2024-12-06 12:43:56.323,79.42,608.0,0.87,0.47,-0.08,1.08,0.07,-5.36
2024-12-06 12:43:56.331,83.47,610.0,0.87,0.47,-0.08,1.2,0.25,-5.42
2024-12-06 12:43:56.342,81.0,610.0,0.87,0.48,-0.08,1.26,0.62,-5.48
2024-12-06 12:43:56.348,83.03,606.0,0.87,0.48,-0.08,1.26,0.62,-5.48
2024-12-06 12:43:56.354,84.15,603.0,0.87,0.48,-0.07,1.26,0.92,-5.42
2024-12-06 12:43:56.363,82.8,604.0,0.87,0.48,-0.08,1.26,1.1,-5.24
2024-12-06 12:43:56.370,81.45,617.0,0.86,0.48,-0.09,1.32,1.47,-5.24
2024-12-06 12:43:56.382,85.28,645.0,0.86,0.48,-0.09,1.38,1.77,-5.3
2024-12-06 12:43:56.386,87.07,604.0,0.85,0.48,-0.08,1.56,2.02,-5.42
2024-12-06 12:43:56.408,84.15,600.0,0.85,0.48,-0.08,1.56,2.02,-5.42
2024-12-06 12:43:56.410,83.03,585.0,0.85,0.48,-0.07,2.11,2.02,-6.15
2024-12-06 12:43:56.425,85.05,587.0,0.86,0.48,-0.07,2.17,1.96,-6.58
2024-12-06 12:43:56.434,83.03,575.0,0.86,0.47,-0.07,2.42,2.14,-7.19
2024-12-06 12:43:56.444,80.78,575.0,0.86,0.47,-0.08,2.78,1.65,-7.86
2024-12-06 12:43:56.449,81.0,577.0,0.86,0.47,-0.09,3.15,1.1,-8.53
2024-12-06 12:43:56.458,83.7,589.0,0.86,0.48,-0.09,3.46,0.98,-9.21
2024-12-06 12:43:56.472,85.28,566.0,0.86,0.48,-0.08,3.52,0.8,-9.88
2024-12-06 12:43:56.477,78.97,555.0,0.86,0.48,-0.08,3.58,0.86,-10.37
2024-12-06 12:43:56.479,77.85,554.0,0.86,0.49,-0.08,3.58,0.86,-10.37
2024-12-06 12:43:56.490,83.47,570.0,0.86,0.49,-0.07,3.82,0.98,-10.67
2024-12-06 12:43:56.501,78.07,558.0,0.86,0.48,-0.07,4.13,1.1,-10.98
2024-12-06 12:43:56.507,79.42,555.0,0.86,0.48,-0.07,4.49,1.35,-11.28
2024-12-06 12:43:56.516,83.92,584.0,0.86,0.48,-0.07,4.8,2.02,-11.53
2024-12-06 12:43:56.529,87.3,541.0,0.87,0.53,-0.08,4.98,2.63,-10.79
2024-12-06 12:43:56.534,82.12,544.0,0.86,0.55,-0.08,5.29,2.51,-9.76
2024-12-06 12:43:56.544,78.97,545.0,0.85,0.56,-0.08,5.35,3.61,-8.6
2024-12-06 12:43:56.555,77.4,553.0,0.85,0.57,-0.08,5.16,4.58,-7.01
2024-12-06 12:43:56.558,78.53,539.0,0.85,0.57,-0.08,4.74,5.25,-5.06
2024-12-06 12:43:56.567,77.4,552.0,0.84,0.58,-0.08,4.37,5.8,-2.92
2024-12-06 12:43:56.573,77.4,539.0,0.84,0.56,-0.1,4.37,5.8,-2.92
2024-12-06 12:43:56.583,81.67,531.0,0.83,0.53,-0.1,4.19,6.35,-1.15
2024-12-06 12:43:56.589,80.55,527.0,0.83,0.54,-0.11,3.94,5.74,0.5
2024-12-06 12:43:56.597,78.3,585.0,0.83,0.56,-0.11,3.03,6.6,2.27
2024-12-06 12:43:56.606,77.17,526.0,0.83,0.56,-0.11,2.36,7.08,4.28
2024-12-06 12:43:56.706,75.15,556.0,0.83,0.55,-0.1,2.42,8.37,5.5
2024-12-06 12:43:56.714,71.1,499.0,0.88,0.48,-0.09,3.52,8.37,6.79
2024-12-06 12:43:56.722,67.95,503.0,0.89,0.49,-0.08,3.82,5.19,6.42
2024-12-06 12:43:56.728,67.28,524.0,0.89,0.49,-0.08,4.31,4.16,5.5
2024-12-06 12:43:56.736,71.1,500.0,0.86,0.46,-0.09,4.31,4.16,4.16
2024-12-06 12:43:56.743,67.28,492.0,0.86,0.47,-0.07,4.37,4.64,4.16
2024-12-06 12:43:56.785,64.12,503.0,0.85,0.49,-0.06,7.48,4.64,3.73
2024-12-06 12:43:56.805,65.47,520.0,0.84,0.48,-0.06,7.73,4.34,4.1
2024-12-06 12:43:56.808,64.12,513.0,0.84,0.45,-0.07,7.06,5.93,2.09
2024-12-06 12:43:56.814,64.35,522.0,0.84,0.45,-0.07,6.87,5.01,2.21
2024-12-06 12:43:56.825,63.9,502.0,0.86,0.48,-0.06,6.87,5.01,2.21
2024-12-06 12:43:56.828,61.42,513.0,0.86,0.48,-0.06,6.69,4.64,2.88
2024-12-06 12:43:56.835,58.72,511.0,0.85,0.47,-0.07,6.57,4.83,2.94
2024-12-06 12:43:56.843,58.05,511.0,0.84,0.46,-0.07,6.57,4.95,1.9
2024-12-06 12:43:56.855,58.95,514.0,0.87,0.47,-0.06,6.02,5.99,1.17
2024-12-06 12:43:56.862,58.5,520.0,0.84,0.47,-0.06,5.96,5.38,1.41
2024-12-06 12:43:56.896,54.67,497.0,0.86,0.46,-0.06,6.02,5.99,1.41
2024-12-06 12:43:56.899,55.57,506.0,0.86,0.46,-0.06,5.84,6.54,1.11
2024-12-06 12:43:56.907,56.02,515.0,0.85,0.46,-0.06,5.84,6.54,1.11
2024-12-06 12:43:56.912,60.07,512.0,0.85,0.46,-0.06,5.78,6.54,1.11
2024-12-06 12:43:56.926,52.2,500.0,0.86,0.47,-0.05,5.78,5.86,0.68
2024-12-06 12:43:56.933,56.7,516.0,0.87,0.48,-0.04,5.41,6.29,0.44
2024-12-06 12:43:56.946,59.4,503.0,0.88,0.5,-0.04,5.16,5.86,1.17
2024-12-06 12:43:56.948,53.32,509.0,0.88,0.5,-0.04,4.98,4.09,2.21
2024-12-06 12:43:56.954,55.8,501.0,0.88,0.49,-0.05,4.98,4.09,2.21
2024-12-06 12:43:56.960,58.5,496.0,0.87,0.48,-0.07,4.62,3.79,2.57
2024-12-06 12:43:56.967,55.57,498.0,0.87,0.46,-0.06,4.25,3.79,2.21
2024-12-06 12:43:56.975,52.65,516.0,0.86,0.45,-0.06,3.88,4.28,1.48
2024-12-06 12:43:57.12,54.9,508.0,0.87,0.47,-0.03,2.85,2.93,2.27
2024-12-06 12:43:57.14,54.0,502.0,0.86,0.47,-0.03,2.6,3.79,2.57
2024-12-06 12:43:57.23,52.2,519.0,0.86,0.47,-0.04,2.24,4.7,2.82
2024-12-06 12:43:57.32,52.88,499.0,0.86,0.47,-0.04,1.99,5.25,3.31
2024-12-06 12:43:57.38,52.88,501.0,0.86,0.48,-0.04,1.99,5.68,3.79
2024-12-06 12:43:57.56,46.35,513.0,0.87,0.48,-0.04,1.75,5.68,3.79
2024-12-06 12:43:57.60,54.22,496.0,0.87,0.47,-0.04,1.56,5.38,3.79
2024-12-06 12:43:57.63,54.22,517.0,0.87,0.47,-0.04,1.08,5.5,3.55
2024-12-06 12:43:57.72,48.38,509.0,0.87,0.44,-0.05,0.83,4.4,3.37
2024-12-06 12:43:57.81,46.8,493.0,0.88,0.47,-0.05,0.4,3.36,3.12
2024-12-06 12:43:57.98,48.38,509.0,0.88,0.46,-0.05,0.4,3.36,3.12
2024-12-06 12:43:57.102,52.88,500.0,0.89,0.46,-0.03,-0.08,2.93,1.72
2024-12-06 12:43:57.108,49.95,514.0,0.89,0.48,-0.03,-0.39,1.23,2.02
2024-12-06 12:43:57.143,48.82,506.0,0.89,0.49,-0.03,-0.51,0.86,2.82
2024-12-06 12:43:57.151,46.57,510.0,0.86,0.47,-0.02,-0.02,4.09,1.48
2024-12-06 12:43:57.154,49.5,518.0,0.87,0.48,-0.02,0.04,3.61,1.72
2024-12-06 12:43:57.165,45.0,522.0,0.87,0.48,-0.02,0.22,4.4,1.96
2024-12-06 12:43:57.172,48.6,492.0,0.87,0.47,-0.03,0.22,4.4,1.96
2024-12-06 12:43:57.185,45.0,519.0,0.86,0.47,-0.04,0.47,4.34,1.6
2024-12-06 12:43:57.190,40.5,496.0,0.86,0.47,-0.05,0.28,6.05,0.93
2024-12-06 12:43:57.199,45.0,501.0,0.87,0.49,-0.04,0.1,6.11,0.99
2024-12-06 12:43:57.201,47.92,494.0,0.87,0.49,-0.04,0.16,4.34,1.35
2024-12-06 12:43:57.235,41.17,513.0,0.84,0.45,-0.05,-0.82,2.75,-0.91
2024-12-06 12:43:57.238,43.42,500.0,0.84,0.45,-0.05,-1.37,2.45,-1.58
2024-12-06 12:43:57.246,42.97,492.0,0.86,0.47,-0.04,-1.67,2.2,-1.27
2024-12-06 12:43:57.256,42.75,506.0,0.88,0.49,-0.04,-1.67,2.2,-1.27
2024-12-06 12:43:57.264,38.92,514.0,0.88,0.49,-0.04,-1.49,3.54,-0.11
2024-12-06 12:43:57.270,41.17,502.0,0.85,0.48,-0.04,-1.12,2.14,0.38
2024-12-06 12:43:57.279,36.9,502.0,0.83,0.47,-0.06,-1.0,2.87,-0.54
2024-12-06 12:43:57.286,41.17,505.0,0.83,0.47,-0.04,-1.0,4.46,-1.64
2024-12-06 12:43:57.301,36.9,511.0,0.84,0.47,-0.04,-0.88,2.45,-2.13
2024-12-06 12:43:57.306,37.58,521.0,0.86,0.48,-0.02,-0.88,2.45,-2.13
2024-12-06 12:43:57.308,42.08,506.0,0.86,0.48,-0.04,-1.12,1.71,-2.13
2024-12-06 12:43:57.318,35.55,510.0,0.85,0.46,-0.05,-1.12,2.02,-2.43
2024-12-06 12:43:57.351,39.15,517.0,0.86,0.47,-0.06,-3.14,1.9,-3.59
2024-12-06 12:43:57.359,35.33,522.0,0.88,0.49,-0.08,-2.59,5.13,-2.86
2024-12-06 12:43:57.364,37.8,502.0,0.9,0.52,-0.06,-2.1,3.85,-1.33
2024-12-06 12:43:57.376,38.92,491.0,0.89,0.5,-0.05,-1.79,2.87,0.01
2024-12-06 12:43:57.382,37.58,516.0,0.89,0.5,-0.05,-1.24,2.2,-0.42
2024-12-06 12:43:57.388,36.0,488.0,0.85,0.45,-0.04,-1.3,2.51,-2.13
2024-12-06 12:43:57.394,36.0,515.0,0.85,0.44,-0.03,-1.3,2.51,-2.13
2024-12-06 12:43:57.404,35.1,514.0,0.88,0.44,-0.02,-1.43,2.14,-3.35
2024-12-06 12:43:57.410,33.3,504.0,0.89,0.45,-0.02,-1.49,0.98,-3.83
2024-12-06 12:43:57.419,32.85,501.0,0.88,0.46,-0.03,-1.12,-0.36,-4.02
2024-12-06 12:43:57.426,36.22,512.0,0.88,0.46,-0.03,-0.63,-0.54,-4.51
2024-12-06 12:43:57.461,37.35,497.0,0.9,0.48,-0.03,0.1,0.74,-3.16
2024-12-06 12:43:57.467,34.2,496.0,0.9,0.48,-0.03,0.22,0.74,-2.49
2024-12-06 12:43:57.472,29.25,513.0,0.89,0.48,-0.02,0.22,-0.18,-2.49
2024-12-06 12:43:57.482,33.75,509.0,0.88,0.47,-0.02,0.34,-0.18,-2.49
2024-12-06 12:43:57.498,30.15,504.0,0.88,0.47,-0.02,0.16,0.55,-2.55
2024-12-06 12:43:57.500,32.17,511.0,0.88,0.47,-0.01,0.22,-0.48,-2.43
2024-12-06 12:43:57.504,32.4,500.0,0.87,0.47,-0.02,0.04,-0.67,-2.49
2024-12-06 12:43:57.516,34.2,496.0,0.87,0.47,-0.02,-0.21,-0.12,-2.55
2024-12-06 12:43:57.520,29.25,493.0,0.86,0.47,-0.01,-0.21,-1.15,-2.98
2024-12-06 12:43:57.533,34.42,503.0,0.85,0.46,-0.01,-0.27,-1.15,-2.98
2024-12-06 12:43:57.537,29.02,526.0,0.87,0.47,-0.02,-0.69,0.43,-3.35
2024-12-06 12:43:57.569,31.05,491.0,0.9,0.49,-0.02,-0.69,0.98,-2.19
2024-12-06 12:43:57.571,32.85,499.0,0.91,0.51,-0.04,-0.33,1.23,0.93
2024-12-06 12:43:57.575,31.72,500.0,0.87,0.48,-0.03,-0.21,-0.54,1.11
2024-12-06 12:43:57.591,26.77,501.0,0.85,0.45,-0.03,-0.57,-0.42,-0.36
2024-12-06 12:43:57.603,31.5,502.0,0.87,0.45,-0.02,-0.63,-0.85,-1.58
2024-12-06 12:43:57.611,31.05,482.0,0.87,0.45,-0.03,-0.51,-2.68,-1.82
2024-12-06 12:43:57.620,29.7,487.0,0.84,0.46,-0.03,-0.76,-2.68,-2.13
2024-12-06 12:43:57.624,30.82,521.0,0.82,0.47,-0.03,-0.69,-2.62,-2.74
2024-12-06 12:43:57.629,26.1,507.0,0.86,0.5,-0.04,-0.69,0.31,-2.25
2024-12-06 12:43:57.635,25.65,482.0,0.86,0.5,-0.04,-0.45,1.59,0.44
2024-12-06 12:43:57.643,31.27,494.0,0.9,0.53,-0.02,-0.45,1.59,2.27
2024-12-06 12:43:57.654,28.57,488.0,0.86,0.52,-0.03,-0.39,-0.54,2.27
2024-12-06 12:43:57.795,25.2,502.0,0.89,0.5,-0.01,1.56,-2.31,4.71
2024-12-06 12:43:57.808,19.35,506.0,0.84,0.46,-0.03,0.47,-0.24,3.49
2024-12-06 12:43:57.817,23.62,505.0,0.84,0.45,-0.0,-0.45,0.55,2.02
2024-12-06 12:43:57.819,17.55,501.0,0.87,0.46,-0.0,-1.0,-1.15,1.6
2024-12-06 12:43:57.821,23.17,492.0,0.87,0.46,-0.0,-1.79,0.07,2.33
2024-12-06 12:43:57.829,17.1,503.0,0.89,0.48,-0.02,-1.79,0.07,2.33
2024-12-06 12:43:57.838,21.38,506.0,0.86,0.49,-0.03,-1.92,-1.64,3.43
2024-12-06 12:43:57.864,18.23,484.0,0.79,0.45,-0.04,-2.04,1.71,0.56
2024-12-06 12:43:57.871,19.57,491.0,0.8,0.45,0.0,-2.04,2.26,0.25
2024-12-06 12:43:57.876,20.7,487.0,0.8,0.45,-0.01,-2.53,2.26,0.25
2024-12-06 12:43:57.893,16.65,485.0,0.82,0.46,-0.02,-2.95,4.83,0.25
2024-12-06 12:43:57.896,21.6,481.0,0.86,0.49,-0.02,-3.26,5.25,1.29
2024-12-06 12:43:57.899,20.7,502.0,0.87,0.48,-0.07,-1.85,5.5,2.45
2024-12-06 12:43:57.909,18.45,499.0,0.87,0.48,-0.07,0.53,5.07,2.02
2024-12-06 12:43:57.915,16.65,496.0,0.86,0.45,-0.12,0.53,5.25,0.99
2024-12-06 12:43:57.926,19.12,492.0,0.89,0.46,-0.09,0.77,5.25,0.99
2024-12-06 12:43:57.934,19.12,500.0,0.92,0.47,-0.03,0.34,3.24,0.74
2024-12-06 12:43:57.970,16.2,481.0,0.85,0.45,-0.04,0.95,-1.28,-3.16
2024-12-06 12:43:57.979,14.17,494.0,0.88,0.46,-0.02,1.56,-0.42,-2.98
2024-12-06 12:43:57.984,10.12,499.0,0.93,0.49,-0.01,2.05,0.0,-1.15
2024-12-06 12:43:57.996,14.62,486.0,0.93,0.49,-0.01,1.87,3.67,2.39
2024-12-06 12:43:58.22,15.07,488.0,0.96,0.51,-0.06,2.6,4.89,7.76
2024-12-06 12:43:58.25,14.85,486.0,0.92,0.48,-0.04,2.78,4.77,8.37
2024-12-06 12:43:58.34,17.55,499.0,0.92,0.48,-0.04,3.33,-1.89,5.44
2024-12-06 12:43:58.40,15.52,489.0,0.84,0.41,-0.03,1.38,-1.09,0.5
2024-12-06 12:43:58.50,15.07,501.0,0.85,0.38,-0.0,1.38,-1.09,0.5
2024-12-06 12:43:58.60,16.65,501.0,0.9,0.4,0.07,0.22,-5.18,-1.58
2024-12-06 12:43:58.63,13.72,505.0,0.87,0.42,0.03,0.16,-8.05,-2.19
2024-12-06 12:43:58.69,14.62,489.0,0.8,0.44,-0.01,0.1,-5.55,-3.59
2024-12-06 12:43:58.77,13.5,497.0,0.8,0.44,-0.01,0.28,-4.57,-4.57
2024-12-06 12:43:58.89,15.3,477.0,0.79,0.46,-0.0,0.28,-1.4,-3.77
2024-12-06 12:43:58.93,18.67,480.0,0.81,0.47,-0.0,0.47,-1.4,-3.77
2024-12-06 12:43:58.102,21.15,492.0,0.81,0.47,0.0,0.77,-0.24,-2.49
2024-12-06 12:43:58.147,14.85,489.0,0.91,0.46,-0.08,-1.18,3.36,0.8
2024-12-06 12:43:58.150,16.65,486.0,0.93,0.47,-0.05,-1.61,1.65,1.66
2024-12-06 12:43:58.154,13.27,491.0,0.94,0.47,-0.05,-1.92,-0.91,1.72
2024-12-06 12:43:58.163,14.17,479.0,0.94,0.47,-0.05,-2.04,-1.15,1.48
2024-12-06 12:43:58.176,15.52,494.0,0.95,0.47,-0.04,-2.04,-1.15,1.48
2024-12-06 12:43:58.187,14.85,490.0,0.93,0.46,-0.01,-1.43,-3.66,0.99
2024-12-06 12:43:58.191,16.65,488.0,0.9,0.45,-0.0,-1.18,-5.18,-0.23
2024-12-06 12:43:58.197,13.72,508.0,0.88,0.46,0.01,-0.69,-4.88,-1.52
2024-12-06 12:43:58.204,12.82,502.0,0.88,0.46,0.01,-0.02,-4.82,-2.19
2024-12-06 12:43:58.207,15.97,496.0,0.86,0.46,0.02,-0.02,-2.99,-2.19
2024-12-06 12:43:58.216,16.2,485.0,0.85,0.47,0.0,0.53,-2.99,-2.19
2024-12-06 12:43:58.250,14.17,501.0,0.84,0.48,-0.06,0.77,1.77,0.44
2024-12-06 12:43:58.252,14.4,502.0,0.85,0.47,-0.04,0.4,1.96,1.48
2024-12-06 12:43:58.254,12.38,488.0,0.86,0.46,-0.05,0.4,1.96,1.48
2024-12-06 12:43:58.263,16.88,490.0,0.86,0.45,-0.05,-0.27,1.9,1.78
2024-12-06 12:43:58.276,14.62,503.0,0.86,0.44,-0.05,-1.06,1.96,1.6
2024-12-06 12:43:58.278,15.3,484.0,0.87,0.44,-0.04,-1.55,0.74,1.35
2024-12-06 12:43:58.285,15.3,489.0,0.87,0.44,-0.04,-1.92,-0.12,0.99
2024-12-06 12:43:58.295,14.62,492.0,0.86,0.44,-0.04,-2.1,-0.24,0.62
2024-12-06 12:43:58.310,13.5,483.0,0.88,0.46,-0.03,-1.98,0.13,0.8
2024-12-06 12:43:58.317,18.0,500.0,0.88,0.46,-0.03,-1.55,0.49,1.48
2024-12-06 12:43:58.328,17.32,487.0,0.87,0.46,-0.03,-1.12,0.55,1.66
2024-12-06 12:43:58.335,14.17,488.0,0.87,0.46,-0.03,-0.82,0.74,1.54
2024-12-06 12:43:58.342,16.2,503.0,0.88,0.45,-0.03,-0.69,0.43,1.48
2024-12-06 12:43:58.375,16.2,483.0,0.88,0.43,-0.03,-0.88,-1.58,-0.42
2024-12-06 12:43:58.378,18.0,477.0,0.88,0.43,-0.03,-0.94,-1.64,-0.91
2024-12-06 12:43:58.387,12.82,485.0,0.88,0.44,-0.03,-0.94,-1.64,-0.91
2024-12-06 12:43:58.399,12.82,493.0,0.89,0.45,-0.03,-0.94,-1.77,-1.21
2024-12-06 12:43:58.406,11.47,496.0,0.9,0.47,-0.03,-0.51,-1.15,-1.03
2024-12-06 12:43:58.410,16.88,500.0,0.91,0.48,-0.02,-0.27,-0.54,-0.36
2024-12-06 12:43:58.420,17.1,493.0,0.89,0.48,-0.02,0.1,-1.15,0.01
2024-12-06 12:43:58.426,13.95,482.0,0.89,0.48,-0.02,0.34,-0.36,-0.29
2024-12-06 12:43:58.439,15.97,487.0,0.87,0.46,-0.03,15.97,-0.97,-1.27
2024-12-06 12:43:58.468,17.55,485.0,0.82,0.41,0.03,-0.63,-0.91,-6.64
2024-12-06 12:43:58.475,14.4,490.0,0.83,0.41,0.03,-1.43,-3.47,-7.13
2024-12-06 12:43:58.505,18.23,484.0,0.85,0.44,-0.04,-0.69,2.39,-5.6
2024-12-06 12:43:58.514,16.2,491.0,0.88,0.46,-0.04,-1.0,2.87,-4.2
2024-12-06 12:43:58.520,15.52,489.0,0.9,0.47,-0.03,-1.0,2.87,-4.2
2024-12-06 12:43:58.525,10.57,488.0,0.89,0.45,-0.02,-1.12,2.57,-3.04
2024-12-06 12:43:58.534,15.3,514.0,0.88,0.45,-0.02,-1.3,4.16,-3.04
2024-12-06 12:43:58.543,15.97,500.0,0.88,0.45,-0.01,-1.73,3.85,-3.59
2024-12-06 12:43:58.552,13.5,491.0,0.88,0.45,-0.01,-2.16,2.32,-4.2
2024-12-06 12:43:58.557,13.95,503.0,0.88,0.45,-0.02,-2.46,1.16,-4.99
2024-12-06 12:43:58.618,13.05,498.0,0.88,0.46,-0.02,-2.46,1.16,-4.99
2024-12-06 12:43:58.625,10.8,493.0,0.89,0.49,0.0,-2.16,0.43,-5.67
2024-12-06 12:43:58.627,18.67,493.0,0.89,0.49,-0.0,-2.1,1.16,-5.3
2024-12-06 12:43:58.637,16.42,489.0,0.88,0.48,-0.0,-1.92,1.53,-5.12
2024-12-06 12:43:58.644,17.1,479.0,0.87,0.47,-0.01,-1.92,1.53,-5.12
2024-12-06 12:43:58.648,16.65,488.0,0.86,0.47,-0.02,-1.85,1.47,-5.3
2024-12-06 12:43:58.662,12.82,487.0,0.87,0.47,-0.02,-1.79,1.71,-5.36
2024-12-06 12:43:58.664,15.52,498.0,0.88,0.47,-0.02,-1.73,1.84,-5.3
2024-12-06 12:43:58.695,15.75,487.0,0.88,0.47,-0.02,-1.79,1.65,-4.87
2024-12-06 12:43:58.698,18.67,510.0,0.89,0.47,-0.02,-1.85,1.71,-3.77
2024-12-06 12:43:58.703,18.67,508.0,0.89,0.47,-0.02,-1.79,1.23,-3.35
2024-12-06 12:43:58.710,13.27,489.0,0.89,0.47,-0.02,-1.73,1.04,-2.98
2024-12-06 12:43:58.824,13.72,503.0,0.87,0.48,-0.02,0.1,-0.67,-2.86
2024-12-06 12:43:58.838,12.38,502.0,0.87,0.48,-0.02,0.04,-0.79,-2.86
2024-12-06 12:43:58.843,19.12,488.0,0.87,0.48,-0.02,0.04,-0.79,-2.86
2024-12-06 12:43:58.853,17.32,499.0,0.86,0.48,-0.01,-0.08,-0.85,-3.04
2024-12-06 12:43:58.855,10.57,484.0,0.86,0.48,-0.01,-0.21,-0.85,-3.16
2024-12-06 12:43:58.863,17.1,503.0,0.86,0.48,-0.01,-0.33,-0.67,-3.16
2024-12-06 12:43:58.872,16.65,493.0,0.86,0.48,-0.0,-0.45,-0.3,-3.1
2024-12-06 12:43:58.879,16.88,495.0,0.86,0.48,-0.0,-0.45,-0.18,-2.98
2024-12-06 12:43:58.890,14.17,490.0,0.86,0.48,-0.0,-0.45,0.25,-2.86
2024-12-06 12:43:58.897,13.95,468.0,0.86,0.48,-0.01,-0.45,0.25,-2.86
2024-12-06 12:43:58.903,17.32,485.0,0.87,0.48,-0.02,-0.39,0.68,-2.68
2024-12-06 12:43:58.915,17.1,506.0,0.87,0.48,-0.02,-0.21,0.68,-2.43
2024-12-06 12:43:58.925,12.82,484.0,0.88,0.48,-0.02,-0.08,0.62,-2.19
2024-12-06 12:43:58.929,16.42,506.0,0.88,0.48,-0.02,0.04,0.55,-1.94
2024-12-06 12:43:58.934,16.42,494.0,0.88,0.48,-0.02,0.04,0.55,-1.94
2024-12-06 12:43:58.945,15.97,485.0,0.88,0.48,-0.02,0.1,0.19,-1.76
2024-12-06 12:43:58.954,18.23,497.0,0.87,0.48,-0.02,-0.02,-0.06,-1.76
2024-12-06 12:43:58.995,18.0,483.0,0.87,0.48,-0.01,-0.21,-0.24,-1.7
2024-12-06 12:43:59.0,18.67,496.0,0.87,0.51,-0.03,1.2,0.62,-0.66
2024-12-06 12:43:59.3,13.27,488.0,0.87,0.51,-0.03,1.01,-1.58,-1.15
2024-12-06 12:43:59.39,17.55,482.0,0.84,0.5,-0.01,-0.08,-0.73,-2.37
2024-12-06 12:43:59.42,11.25,501.0,0.86,0.48,-0.03,-0.63,-0.24,-2.92
2024-12-06 12:43:59.52,13.5,494.0,0.86,0.48,-0.03,-0.45,0.55,-2.37
2024-12-06 12:43:59.62,18.67,483.0,0.86,0.49,-0.04,-0.45,0.55,-2.37
2024-12-06 12:43:59.70,17.1,488.0,0.86,0.49,-0.03,-0.21,0.98,-1.76
2024-12-06 12:43:59.72,19.57,525.0,0.86,0.49,-0.01,-0.15,1.59,-1.33
2024-12-06 12:43:59.83,14.17,483.0,0.86,0.48,-0.01,-0.27,2.51,-1.09
2024-12-06 12:43:59.94,12.15,492.0,0.86,0.48,-0.01,-0.39,2.69,-1.03
2024-12-06 12:43:59.100,13.27,504.0,0.86,0.47,-0.01,-0.39,2.45,-1.03
2024-12-06 12:43:59.103,13.27,502.0,0.87,0.47,-0.02,-0.39,2.45,-1.03
2024-12-06 12:43:59.111,13.05,491.0,0.88,0.47,-0.02,-0.39,2.2,-1.03
2024-12-06 12:43:59.170,13.05,508.0,0.88,0.47,-0.02,-0.45,1.71,-1.03
2024-12-06 12:43:59.180,17.55,487.0,0.87,0.48,0.01,-1.67,-0.18,-1.15
2024-12-06 12:43:59.182,13.27,510.0,0.87,0.48,0.02,-1.85,0.13,-1.09
2024-12-06 12:43:59.188,14.85,490.0,0.87,0.48,0.02,-1.85,0.13,-1.09
2024-12-06 12:43:59.197,15.97,488.0,0.87,0.48,0.01,-1.85,0.49,-1.03
2024-12-06 12:43:59.204,16.88,480.0,0.86,0.48,0.0,-1.73,0.8,-0.97
2024-12-06 12:43:59.212,11.25,505.0,0.85,0.48,-0.0,-1.55,0.92,-1.15
2024-12-06 12:43:59.220,18.45,481.0,0.85,0.48,-0.0,-1.37,1.16,-1.39
2024-12-06 12:43:59.228,16.65,490.0,0.86,0.49,-0.01,-1.37,1.23,-1.45
2024-12-06 12:43:59.272,12.6,493.0,0.86,0.49,-0.01,-1.24,1.23,-1.45
2024-12-06 12:43:59.275,14.62,489.0,0.9,0.5,-0.03,-0.21,0.86,0.5
2024-12-06 12:43:59.280,15.75,494.0,0.89,0.51,-0.04,0.22,0.37,1.05
2024-12-06 12:43:59.290,15.52,499.0,0.88,0.52,-0.04,0.59,0.13,1.11
2024-12-06 12:43:59.298,18.9,485.0,0.85,0.51,-0.02,1.01,-0.18,0.74
2024-12-06 12:43:59.304,14.62,495.0,0.87,0.51,-0.02,1.14,-0.91,0.13
2024-12-06 12:43:59.311,18.45,488.0,0.86,0.51,-0.01,1.14,-0.91,0.13
2024-12-06 12:43:59.318,15.97,508.0,0.85,0.5,-0.0,1.01,-1.15,-0.36
2024-12-06 12:43:59.345,13.5,496.0,0.85,0.48,0.01,0.95,-0.91,-1.03
2024-12-06 12:43:59.348,15.75,506.0,0.85,0.48,0.01,0.95,-0.24,-0.97
2024-12-06 12:43:59.354,18.67,485.0,0.85,0.48,0.01,0.95,-0.24,-0.97
2024-12-06 12:43:59.357,15.52,494.0,0.85,0.48,0.01,0.95,0.49,-0.78
2024-12-06 12:43:59.399,16.65,494.0,0.88,0.48,-0.0,0.34,2.69,0.44
2024-12-06 12:43:59.412,18.23,498.0,0.89,0.48,-0.0,0.1,1.96,0.86
2024-12-06 12:43:59.414,16.88,494.0,0.88,0.47,-0.01,-0.02,1.1,1.05
2024-12-06 12:43:59.417,16.88,484.0,0.88,0.47,-0.01,-0.08,0.43,0.62
2024-12-06 12:43:59.425,15.52,479.0,0.87,0.47,-0.02,0.04,-0.54,0.01
2024-12-06 12:43:59.434,15.52,480.0,0.87,0.47,-0.02,0.04,-0.54,0.01
2024-12-06 12:43:59.442,16.42,497.0,0.87,0.47,-0.02,0.47,-1.22,-0.6
2024-12-06 12:43:59.449,15.97,474.0,0.87,0.48,-0.02,0.77,-0.97,-1.03
2024-12-06 12:43:59.486,11.47,500.0,0.88,0.48,-0.01,1.14,-0.97,-1.09
2024-12-06 12:43:59.494,18.0,496.0,0.87,0.48,-0.01,1.87,0.19,-0.54
2024-12-06 12:43:59.502,15.75,496.0,0.87,0.47,-0.02,2.05,0.62,-0.48
2024-12-06 12:43:59.510,16.88,486.0,0.87,0.47,-0.02,2.17,0.74,-0.23
2024-12-06 12:43:59.515,19.57,475.0,0.87,0.47,-0.02,2.17,0.55,0.13
2024-12-06 12:43:59.526,10.35,495.0,0.87,0.47,-0.02,2.17,0.55,0.13
2024-12-06 12:43:59.542,15.97,504.0,0.87,0.48,-0.01,2.11,0.68,0.74
2024-12-06 12:43:59.548,13.27,485.0,0.87,0.48,-0.01,1.93,0.68,0.56
2024-12-06 12:43:59.556,18.0,474.0,0.86,0.48,-0.01,1.93,0.68,0.56
2024-12-06 12:43:59.565,17.1,480.0,0.86,0.48,-0.0,1.75,0.43,0.25
2024-12-06 12:43:59.604,16.42,480.0,0.86,0.48,-0.01,2.42,0.31,-0.6
2024-12-06 12:43:59.610,13.27,487.0,0.86,0.49,-0.0,2.3,0.68,-0.66
2024-12-06 12:43:59.618,16.42,485.0,0.87,0.49,-0.0,2.11,0.68,-0.54
2024-12-06 12:43:59.625,12.82,488.0,0.87,0.49,-0.0,1.69,0.86,-0.36
2024-12-06 12:43:59.635,12.82,495.0,0.87,0.49,0.0,1.32,0.74,-0.29
2024-12-06 12:43:59.650,13.27,480.0,0.86,0.49,0.0,1.32,0.74,-0.29
2024-12-06 12:43:59.662,11.25,486.0,0.85,0.48,-0.01,1.14,0.62,-0.36
2024-12-06 12:43:59.668,15.75,490.0,0.85,0.47,-0.02,1.26,1.41,-0.72
2024-12-06 12:43:59.673,17.77,477.0,0.85,0.47,-0.02,1.26,1.77,-0.54
2024-12-06 12:43:59.717,12.82,540.0,0.88,0.49,-0.01,1.93,2.02,1.05
2024-12-06 12:43:59.724,17.1,489.0,0.88,0.49,-0.02,1.93,2.02,1.05
2024-12-06 12:43:59.728,11.25,489.0,0.88,0.49,-0.02,2.05,2.14,1.11
2024-12-06 12:43:59.734,15.52,504.0,0.88,0.49,-0.01,2.11,1.35,1.17
2024-12-06 12:43:59.742,14.85,480.0,0.88,0.49,-0.01,1.99,0.98,1.11
2024-12-06 12:43:59.859,15.07,482.0,0.88,0.49,-0.01,2.54,0.86,1.66
2024-12-06 12:43:59.870,18.45,471.0,0.86,0.48,-0.02,2.91,1.29,0.74
2024-12-06 12:43:59.876,11.25,492.0,0.86,0.48,-0.03,3.46,1.65,0.86
2024-12-06 12:43:59.889,14.17,489.0,0.86,0.48,-0.03,3.88,1.96,0.86
2024-12-06 12:43:59.904,13.27,501.0,0.86,0.47,-0.02,4.19,1.96,0.74
2024-12-06 12:43:59.909,13.27,480.0,0.86,0.47,-0.02,4.19,2.02,0.62
2024-12-06 12:43:59.911,15.97,483.0,0.86,0.47,-0.02,4.19,2.02,0.5
2024-12-06 12:43:59.915,13.72,485.0,0.86,0.47,-0.01,4.19,2.02,0.5
2024-12-06 12:43:59.922,18.0,506.0,0.87,0.47,-0.01,4.01,2.51,0.56
2024-12-06 12:43:59.936,17.1,502.0,0.87,0.48,-0.01,3.76,2.63,0.93
2024-12-06 12:43:59.942,15.97,493.0,0.88,0.49,-0.01,3.7,2.93,1.48
2024-12-06 12:43:59.947,18.45,482.0,0.88,0.49,-0.01,3.76,3.24,2.21
2024-12-06 12:43:59.954,14.4,485.0,0.88,0.49,-0.01,3.52,3.18,2.82
2024-12-06 12:43:59.966,14.17,477.0,0.88,0.49,-0.01,3.52,3.18,2.82
2024-12-06 12:43:59.976,15.97,478.0,0.89,0.48,-0.0,3.15,3.18,3.18
2024-12-06 12:43:59.982,13.05,502.0,0.89,0.47,-0.0,2.91,3.0,3.43
2024-12-06 12:44:00.15,14.17,496.0,0.89,0.46,-0.01,2.11,1.9,3.43
2024-12-06 12:44:00.21,14.17,487.0,0.88,0.46,0.0,1.69,1.16,3.31
2024-12-06 12:44:00.32,16.65,469.0,0.88,0.46,0.01,1.26,1.59,3.37
2024-12-06 12:44:00.65,16.88,473.0,0.89,0.48,-0.0,-0.15,1.35,5.2
2024-12-06 12:44:00.70,13.5,478.0,0.89,0.48,-0.01,-0.27,1.1,6.24
2024-12-06 12:44:00.81,18.45,490.0,0.9,0.48,-0.01,-0.51,0.49,7.09
2024-12-06 12:44:00.88,17.55,471.0,0.89,0.48,-0.02,-0.51,0.49,7.09
2024-12-06 12:44:00.97,16.42,476.0,0.89,0.47,-0.01,-1.12,0.19,7.33
2024-12-06 12:44:00.114,17.1,497.0,0.9,0.47,-0.0,-1.79,-0.54,8.13
2024-12-06 12:44:00.130,13.27,498.0,0.9,0.47,-0.0,-2.22,-1.34,8.56
2024-12-06 12:44:00.139,15.75,476.0,0.88,0.47,-0.0,-2.77,-1.34,8.56
2024-12-06 12:44:00.164,15.52,477.0,0.87,0.44,-0.01,-3.26,1.47,9.41
2024-12-06 12:44:00.169,12.6,544.0,0.88,0.46,0.0,-3.26,1.47,9.41
2024-12-06 12:44:00.176,15.97,477.0,0.89,0.46,0.02,-2.89,-1.28,9.72
2024-12-06 12:44:00.190,15.97,481.0,0.9,0.46,0.0,-3.38,-0.06,10.08
2024-12-06 12:44:00.194,13.05,496.0,0.89,0.46,0.01,-3.07,-0.42,10.26
2024-12-06 12:44:00.205,11.92,488.0,0.89,0.46,0.01,-2.83,-0.97,10.08
2024-12-06 12:44:00.212,14.17,478.0,0.89,0.45,-0.01,-2.89,-0.06,9.59
2024-12-06 12:44:00.218,22.5,475.0,0.88,0.44,-0.01,-2.89,-0.06,9.59
2024-12-06 12:44:00.224,17.1,478.0,0.84,0.42,0.0,-2.46,-2.92,8.13
2024-12-06 12:44:00.234,17.1,477.0,0.81,0.39,-0.03,-2.4,-4.02,4.65
2024-12-06 12:44:00.242,15.97,478.0,0.83,0.39,-0.01,-2.71,-1.34,1.11
2024-12-06 12:44:00.249,20.92,477.0,0.83,0.39,-0.01,-1.79,-4.33,-0.91
2024-12-06 12:44:00.279,15.3,526.0,0.85,0.41,0.03,-0.21,-1.7,-5.91
2024-12-06 12:44:00.286,16.88,497.0,0.85,0.41,0.03,0.89,-2.01,-7.01
2024-12-06 12:44:00.296,17.55,477.0,0.83,0.4,0.02,1.87,-0.06,-9.51
2024-12-06 12:44:00.307,21.15,484.0,0.82,0.39,-0.02,1.87,-0.06,-9.51
2024-12-06 12:44:00.314,23.4,476.0,0.87,0.41,-0.0,2.05,4.22,-11.16
2024-12-06 12:44:00.324,25.42,469.0,0.87,0.42,0.02,3.09,-0.3,-11.28
2024-12-06 12:44:00.327,23.17,487.0,0.84,0.4,-0.04,3.46,-2.5,-12.87
2024-12-06 12:44:00.333,26.55,486.0,0.84,0.4,-0.04,2.6,2.26,-15.13
2024-12-06 12:44:00.342,26.1,480.0,0.86,0.4,-0.03,2.6,-1.4,-15.55
2024-12-06 12:44:00.351,28.12,487.0,0.88,0.41,0.02,2.85,-1.4,-15.55
2024-12-06 12:44:00.389,27.0,468.0,0.86,0.44,0.03,3.21,-2.31,-17.93
2024-12-06 12:44:00.391,27.45,492.0,0.86,0.43,-0.02,3.21,-2.31,-17.93
2024-12-06 12:44:00.394,29.7,474.0,0.86,0.44,-0.0,3.09,2.39,-18.06
2024-12-06 12:44:00.403,32.4,517.0,0.86,0.44,0.01,4.31,-0.48,-18.48
2024-12-06 12:44:00.411,24.52,481.0,0.86,0.44,-0.0,3.27,1.9,-18.61
2024-12-06 12:44:00.435,33.08,490.0,0.85,0.44,-0.01,3.39,3.18,-19.28
2024-12-06 12:44:00.441,30.6,493.0,0.88,0.45,-0.02,3.39,3.18,-19.28
2024-12-06 12:44:00.444,29.47,486.0,0.9,0.46,0.01,3.33,1.77,-18.24
2024-12-06 12:44:00.449,35.33,481.0,0.89,0.46,-0.02,3.03,0.62,-17.63
2024-12-06 12:44:00.458,34.2,479.0,0.89,0.46,-0.02,2.24,1.9,-17.32
2024-12-06 12:44:00.465,33.3,497.0,0.89,0.46,-0.02,2.54,-0.67,-17.38
2024-12-06 12:44:00.472,40.5,481.0,0.88,0.46,-0.01,2.54,14.96,-17.02
2024-12-06 12:44:00.507,38.92,485.0,0.9,0.5,-0.02,1.56,-2.13,-15.86
2024-12-06 12:44:00.509,38.02,485.0,0.9,0.5,-0.02,1.62,-2.74,-15.25
2024-12-06 12:44:00.512,44.55,486.0,0.9,0.52,-0.0,1.5,-3.54,-14.76
2024-12-06 12:44:00.521,44.55,478.0,0.89,0.52,-0.01,1.5,-3.54,-14.76
2024-12-06 12:44:00.527,46.8,491.0,0.89,0.53,-0.0,1.32,-1.77,-14.21
2024-12-06 12:44:00.536,41.17,491.0,0.88,0.53,-0.0,1.56,-2.31,-13.23
2024-12-06 12:44:00.547,46.35,501.0,0.87,0.52,-0.01,1.44,-1.7,-12.5
2024-12-06 12:44:00.550,42.3,503.0,0.87,0.52,-0.01,1.2,-1.64,-12.01
2024-12-06 12:44:00.558,47.47,509.0,0.87,0.52,-0.0,0.83,-2.74,-11.34
2024-12-06 12:44:00.570,46.35,493.0,0.86,0.52,-0.0,0.83,-2.74,-11.34
2024-12-06 12:44:00.576,49.27,494.0,0.86,0.52,-0.01,0.22,-2.44,-10.61
2024-12-06 12:44:00.581,50.17,519.0,0.86,0.52,-0.01,-0.21,-2.19,-9.82
2024-12-06 12:44:00.592,46.57,483.0,0.86,0.52,-0.01,-0.76,-3.23,-9.02
2024-12-06 12:44:00.623,47.92,490.0,0.86,0.53,-0.01,-2.22,-3.84,-6.95
2024-12-06 12:44:00.627,48.82,502.0,0.85,0.52,-0.01,-2.71,-4.21,-6.46
2024-12-06 12:44:00.637,51.97,491.0,0.85,0.52,-0.01,-2.71,-4.21,-6.46
2024-12-06 12:44:00.646,49.05,504.0,0.85,0.51,-0.01,-3.14,-1.89,-5.91
2024-12-06 12:44:00.656,52.2,517.0,0.86,0.53,-0.01,-3.14,-1.89,-5.91
2024-12-06 12:44:00.660,51.3,510.0,0.85,0.54,0.0,-3.38,-2.19,-4.99
2024-12-06 12:44:00.679,53.32,495.0,0.83,0.53,-0.01,-3.32,-2.07,-4.32
2024-12-06 12:44:00.682,53.1,507.0,0.83,0.53,-0.01,-3.5,-1.7,-4.51
2024-12-06 12:44:00.694,53.77,508.0,0.84,0.53,-0.02,-3.81,-0.79,-4.14
2024-12-06 12:44:00.698,54.0,510.0,0.85,0.54,-0.02,-3.81,-0.79,-4.14
2024-12-06 12:44:00.737,51.07,512.0,0.86,0.55,-0.01,-4.6,-4.15,-2.74
2024-12-06 12:44:00.739,52.88,509.0,0.83,0.53,-0.02,-4.91,-4.63,-2.98
2024-12-06 12:44:00.747,56.7,536.0,0.84,0.52,-0.02,-5.03,-4.57,-3.47
2024-12-06 12:44:00.753,54.67,533.0,0.85,0.54,-0.03,-4.66,-5.73,-3.47
2024-12-06 12:44:00.759,57.15,526.0,0.86,0.56,-0.04,-3.99,-5.79,-2.98
2024-12-06 12:44:00.767,57.15,510.0,0.86,0.56,-0.04,-3.38,-4.51,-2.31
2024-12-06 12:44:00.775,56.7,536.0,0.86,0.55,-0.02,-3.38,-5.98,-2.37
2024-12-06 12:44:00.790,58.5,518.0,0.84,0.52,0.0,-3.32,-5.98,-2.37
2024-12-06 12:44:00.795,57.82,519.0,0.83,0.5,-0.03,-3.99,-5.92,-3.41
2024-12-06 12:44:00.801,56.47,525.0,0.85,0.52,-0.03,-4.54,-5.43,-4.02
2024-12-06 12:44:00.904,66.82,550.0,0.85,0.54,-0.03,-3.93,-7.62,-2.49
2024-12-06 12:44:00.919,65.92,544.0,0.84,0.55,-0.03,-3.62,-7.69,-2.0
2024-12-06 12:44:00.921,64.12,542.0,0.82,0.54,-0.02,-3.56,-7.38,-2.43
2024-12-06 12:44:00.950,65.25,546.0,0.82,0.54,-0.02,-3.56,-7.08,-3.47
2024-12-06 12:44:00.954,65.7,535.0,0.84,0.53,-0.04,-3.38,-6.34,-4.02
2024-12-06 12:44:00.981,67.05,543.0,0.84,0.52,-0.04,-3.2,-6.59,-3.53
2024-12-06 12:44:00.983,66.82,546.0,0.84,0.5,-0.04,-2.89,-5.43,-3.35
2024-12-06 12:44:00.989,69.07,559.0,0.84,0.5,-0.04,-2.95,-4.76,-3.29
2024-12-06 12:44:01.0,68.17,564.0,0.84,0.52,-0.03,-3.26,-4.15,-3.04
2024-12-06 12:44:01.11,70.88,543.0,0.85,0.52,-0.04,-3.26,-3.41,-2.43
2024-12-06 12:44:01.29,69.97,549.0,0.83,0.52,-0.04,-2.71,-2.99,-1.7
2024-12-06 12:44:01.37,68.62,560.0,0.83,0.52,-0.04,-2.95,-3.11,-1.82
2024-12-06 12:44:01.70,67.28,565.0,0.87,0.55,-0.05,-3.26,-2.8,-0.17
2024-12-06 12:44:01.74,72.67,559.0,0.86,0.54,-0.05,-2.89,-3.9,0.25
2024-12-06 12:44:01.81,71.78,552.0,0.86,0.53,-0.06,-2.89,-4.33,0.44
2024-12-06 12:44:01.93,72.45,583.0,0.87,0.53,-0.06,-2.83,-4.69,0.62
2024-12-06 12:44:01.101,67.5,580.0,0.87,0.53,-0.06,-2.59,-5.79,0.99
2024-12-06 12:44:01.105,68.85,582.0,0.87,0.54,-0.06,-2.77,-5.85,1.78
2024-12-06 12:44:01.116,75.38,561.0,0.87,0.55,-0.05,-2.77,-5.85,1.78
2024-12-06 12:44:01.126,72.22,569.0,0.86,0.55,-0.04,-2.89,-6.04,2.57
2024-12-06 12:44:01.129,74.25,571.0,0.84,0.55,-0.04,-2.83,-5.92,2.76
2024-12-06 12:44:01.138,72.67,565.0,0.83,0.54,-0.03,-2.95,-4.94,2.88
2024-12-06 12:44:01.146,69.3,622.0,0.83,0.54,-0.03,-2.89,-4.27,3.12
2024-12-06 12:44:01.179,70.65,588.0,0.83,0.53,-0.03,-2.77,-4.39,3.12
2024-12-06 12:44:01.189,74.03,578.0,0.82,0.51,-0.04,-2.89,-3.54,3.06
2024-12-06 12:44:01.193,75.82,599.0,0.83,0.51,-0.04,-2.95,-3.23,3.18
2024-12-06 12:44:01.199,71.78,592.0,0.83,0.51,-0.04,-2.95,-3.23,3.18
2024-12-06 12:44:01.207,70.88,581.0,0.83,0.51,-0.05,-3.07,-2.92,3.18
2024-12-06 12:44:01.215,75.6,583.0,0.82,0.52,-0.05,-3.14,-3.05,2.82
2024-12-06 12:44:01.231,77.62,581.0,0.81,0.53,-0.04,-3.38,-2.68,2.21
2024-12-06 12:44:01.234,70.65,589.0,0.82,0.53,-0.04,-3.44,-2.07,1.84
2024-12-06 12:44:01.245,77.62,601.0,0.82,0.53,-0.04,-3.32,-1.4,1.84
2024-12-06 12:44:01.249,75.38,584.0,0.83,0.53,-0.04,-3.32,-1.4,1.96
2024-12-06 12:44:01.255,76.05,611.0,0.83,0.53,-0.04,-3.01,-1.15,1.96
2024-12-06 12:44:01.264,76.5,598.0,0.83,0.51,-0.05,-2.65,-1.03,1.78
2024-12-06 12:44:01.298,77.17,584.0,0.84,0.51,-0.04,-2.22,-2.07,0.93
2024-12-06 12:44:01.304,79.42,611.0,0.87,0.51,-0.04,-2.04,-2.62,1.05
2024-12-06 12:44:01.310,76.28,590.0,0.87,0.52,-0.04,-1.67,-2.99,1.17
2024-12-06 12:44:01.317,77.85,607.0,0.87,0.53,-0.04,-1.37,-3.78,1.41
2024-12-06 12:44:01.329,78.3,612.0,0.87,0.53,-0.04,-1.37,-4.08,1.54
2024-12-06 12:44:01.331,78.07,597.0,0.86,0.53,-0.05,-1.37,-4.08,1.54
2024-12-06 12:44:01.340,75.15,598.0,0.86,0.53,-0.04,-1.18,-4.21,1.48
2024-12-06 12:44:01.354,79.2,594.0,0.86,0.53,-0.04,-1.0,-4.27,1.6
2024-12-06 12:44:01.360,78.53,596.0,0.86,0.53,-0.04,-0.88,-4.08,1.72
2024-12-06 12:44:01.363,80.32,600.0,0.85,0.52,-0.05,-0.88,-4.39,2.02
2024-12-06 12:44:01.375,81.22,609.0,0.85,0.52,-0.05,-0.94,-4.33,1.96
2024-12-06 12:44:01.417,79.65,604.0,0.84,0.52,-0.05,-0.94,-3.78,2.15
2024-12-06 12:44:01.419,77.4,626.0,0.84,0.52,-0.05,-1.18,-3.41,4.34
2024-12-06 12:44:01.425,73.8,614.0,0.84,0.53,-0.05,-1.18,-3.41,4.34
2024-12-06 12:44:01.434,79.88,629.0,0.84,0.54,-0.05,-1.3,-3.47,4.83
2024-12-06 12:44:01.440,80.55,620.0,0.83,0.54,-0.05,-1.43,-4.21,5.02
2024-12-06 12:44:01.455,80.32,628.0,0.83,0.54,-0.05,-1.79,-2.99,4.95
2024-12-06 12:44:01.457,80.55,630.0,0.83,0.54,-0.05,-1.85,-3.29,5.14
2024-12-06 12:44:01.463,82.8,598.0,0.83,0.54,-0.04,-1.85,-3.29,5.14
2024-12-06 12:44:01.471,81.67,607.0,0.83,0.51,-0.04,-1.61,-2.25,4.89
2024-12-06 12:44:01.480,81.67,628.0,0.84,0.51,-0.05,-1.49,-2.07,4.95
2024-12-06 12:44:01.491,84.15,629.0,0.85,0.51,-0.06,-1.37,-2.01,5.08
2024-12-06 12:44:01.527,76.72,644.0,0.86,0.5,-0.06,-0.69,-4.15,4.16
2024-12-06 12:44:01.532,85.05,637.0,0.86,0.51,-0.06,-0.82,-3.96,3.67
2024-12-06 12:44:01.555,86.4,631.0,0.87,0.51,-0.06,-0.63,-4.51,3.73
2024-12-06 12:44:01.578,80.78,692.0,0.86,0.5,-0.06,-0.08,-5.61,3.61
2024-12-06 12:44:01.580,81.45,638.0,0.86,0.5,-0.07,0.1,-5.55,3.12
2024-12-06 12:44:01.594,78.53,636.0,0.85,0.5,-0.07,0.4,-4.88,2.7
2024-12-06 12:44:01.601,85.95,630.0,0.85,0.49,-0.07,0.4,-4.88,2.7
2024-12-06 12:44:01.607,81.22,657.0,0.85,0.5,-0.07,0.53,-5.0,2.82
2024-12-06 12:44:01.609,85.05,638.0,0.85,0.5,-0.07,0.4,-4.82,2.94
2024-12-06 12:44:01.629,85.05,658.0,0.85,0.51,-0.07,-0.02,-4.15,3.43
2024-12-06 12:44:01.652,78.53,655.0,0.85,0.5,-0.07,-0.33,-2.99,3.79
2024-12-06 12:44:01.656,83.7,670.0,0.84,0.49,-0.06,-0.88,-2.92,4.28
2024-12-06 12:44:01.663,85.72,669.0,0.84,0.49,-0.06,-0.57,-2.19,3.79
2024-12-06 12:44:01.671,85.95,650.0,0.83,0.46,-0.06,-0.51,-1.89,3.67
2024-12-06 12:44:01.680,79.88,648.0,0.85,0.47,-0.06,-0.51,-1.89,3.67
2024-12-06 12:44:01.689,80.55,671.0,0.85,0.48,-0.06,-0.82,-2.07,3.61
2024-12-06 12:44:01.699,85.95,653.0,0.85,0.49,-0.05,-1.12,-1.52,3.12
2024-12-06 12:44:01.708,79.2,689.0,0.84,0.49,-0.05,-1.43,-1.28,2.94
2024-12-06 12:44:01.722,83.03,659.0,0.84,0.49,-0.05,-1.12,-0.48,2.33
2024-12-06 12:44:01.742,86.17,685.0,0.84,0.48,-0.07,-0.69,0.25,1.48
2024-12-06 12:44:01.744,83.7,673.0,0.85,0.48,-0.07,-0.02,0.13,0.93
2024-12-06 12:44:01.751,86.4,671.0,0.85,0.48,-0.08,0.16,-0.36,0.5
2024-12-06 12:44:01.758,84.38,657.0,0.86,0.49,-0.08,0.4,-0.67,0.13
2024-12-06 12:44:01.765,83.47,653.0,0.86,0.5,-0.08,0.4,-0.67,0.13
2024-12-06 12:44:01.773,83.7,669.0,0.85,0.49,-0.08,0.34,-1.28,-0.17
2024-12-06 12:44:01.782,83.92,664.0,0.84,0.47,-0.07,0.71,-0.67,-1.15
2024-12-06 12:44:01.794,82.57,679.0,0.85,0.5,-0.08,1.14,-0.85,-1.64
2024-12-06 12:44:01.798,83.7,665.0,0.84,0.54,-0.09,0.71,0.19,-1.45
2024-12-06 12:44:01.806,87.52,660.0,0.84,0.54,-0.09,1.26,1.84,-0.78
2024-12-06 12:44:01.814,86.17,664.0,0.83,0.53,-0.07,2.54,2.14,-0.36
2024-12-06 12:44:01.821,86.85,661.0,0.82,0.48,-0.05,2.54,2.14,-0.36
2024-12-06 12:44:01.858,84.38,656.0,0.87,0.47,-0.08,1.01,0.98,-0.23
2024-12-06 12:44:01.951,84.15,653.0,0.88,0.48,-0.08,1.01,0.98,-0.23
2024-12-06 12:44:01.960,79.2,669.0,0.87,0.48,-0.07,-0.63,-0.61,1.29
2024-12-06 12:44:01.964,83.7,659.0,0.86,0.47,-0.07,-0.63,-0.61,1.05
2024-12-06 12:44:01.972,86.85,659.0,0.86,0.48,-0.06,-0.51,-0.61,1.05
2024-12-06 12:44:01.980,83.03,669.0,0.86,0.48,-0.07,-0.39,-0.73,0.74
2024-12-06 12:44:01.987,81.45,659.0,0.86,0.48,-0.07,-0.45,-0.91,0.38
2024-12-06 12:44:01.996,83.92,659.0,0.85,0.48,-0.07,-0.45,-1.03,0.01
2024-12-06 12:44:02.4,81.45,657.0,0.85,0.48,-0.07,-0.45,-1.58,-0.48
2024-12-06 12:44:02.15,82.8,658.0,0.85,0.48,-0.07,-0.51,-1.95,-1.03
2024-12-06 12:44:02.20,87.52,647.0,0.85,0.48,-0.07,-0.51,-1.95,-1.03
2024-12-06 12:44:02.27,83.03,650.0,0.85,0.48,-0.07,-0.57,-2.13,-1.58
2024-12-06 12:44:02.35,84.6,656.0,0.85,0.49,-0.07,-0.39,-2.31,-2.06
2024-12-06 12:44:02.44,81.9,653.0,0.85,0.49,-0.07,-0.21,-2.68,-2.43
2024-12-06 12:44:02.51,86.85,653.0,0.85,0.49,-0.07,-0.08,-2.13,-2.74
2024-12-06 12:44:02.103,81.67,654.0,0.85,0.49,-0.07,0.04,-2.25,-2.92
2024-12-06 12:44:02.112,84.6,676.0,0.85,0.49,-0.07,0.47,-0.61,-2.92
2024-12-06 12:44:02.116,81.67,653.0,0.86,0.49,-0.07,0.53,-0.06,-2.61
2024-12-06 12:44:02.132,81.45,650.0,0.87,0.48,-0.06,0.53,-0.3,-2.25
2024-12-06 12:44:02.135,84.38,638.0,0.87,0.48,-0.06,-0.02,-0.48,-1.33
2024-12-06 12:44:02.162,84.38,658.0,0.88,0.49,-0.06,-0.08,-0.97,-1.03
2024-12-06 12:44:02.192,81.9,674.0,0.88,0.49,-0.07,0.04,-1.28,-1.21
2024-12-06 12:44:02.194,84.38,657.0,0.87,0.48,-0.07,0.28,-1.34,-1.64
2024-12-06 12:44:02.199,86.62,660.0,0.86,0.48,-0.07,0.22,-1.22,-1.88
2024-12-06 12:44:02.206,84.6,653.0,0.86,0.48,-0.07,0.22,-1.52,-2.13
2024-12-06 12:44:02.220,84.6,647.0,0.86,0.49,-0.07,0.16,-1.64,-2.25
2024-12-06 12:44:02.225,81.0,632.0,0.86,0.49,-0.07,0.28,-1.52,-2.43
2024-12-06 12:44:02.228,83.7,638.0,0.86,0.49,-0.08,0.28,-1.52,-2.43
2024-12-06 12:44:02.242,84.82,652.0,0.86,0.49,-0.07,0.47,-0.42,-2.37
2024-12-06 12:44:02.245,81.67,637.0,0.85,0.49,-0.07,0.95,-1.46,-2.49
2024-12-06 12:44:02.256,85.28,654.0,0.84,0.5,-0.07,0.89,-0.91,-2.8
2024-12-06 12:44:02.260,83.47,634.0,0.84,0.5,-0.07,0.77,-0.85,-2.92
2024-12-06 12:44:02.272,81.22,640.0,0.85,0.5,-0.07,0.83,-1.4,-2.92
2024-12-06 12:44:02.275,85.05,664.0,0.85,0.49,-0.07,0.83,-1.4,-2.92
2024-12-06 12:44:02.304,79.88,650.0,0.85,0.48,-0.07,0.77,-1.64,-3.04
2024-12-06 12:44:02.307,84.6,647.0,0.86,0.48,-0.08,0.4,-3.11,-3.29
2024-12-06 12:44:02.312,82.12,677.0,0.86,0.48,-0.08,0.4,-3.11,-3.29
2024-12-06 12:44:02.325,87.07,631.0,0.86,0.48,-0.08,0.53,-2.86,-3.22
2024-12-06 12:44:02.330,84.38,637.0,0.86,0.49,-0.08,0.77,-2.62,-3.22
