Timestamp,PosIsDeg,ForceIs,AccX,AccY,AccZ,GyroX,GyroY,GyroZ
2024-12-06 12:46:40.327,-0.22,456.0,0.89,0.43,-0.05,0.34,0.31,-0.66
2024-12-06 12:46:41.685,-1.35,446.0,0.89,0.43,-0.05,0.28,0.19,-0.78
2024-12-06 12:46:41.695,3.38,449.0,0.89,0.43,-0.05,0.28,0.31,-0.84
2024-12-06 12:46:41.712,-2.47,443.0,0.89,0.43,-0.05,0.28,0.31,-0.84
2024-12-06 12:46:41.748,0.22,458.0,0.89,0.43,-0.05,0.22,0.13,-0.78
2024-12-06 12:46:41.750,-1.35,448.0,0.89,0.43,-0.05,0.22,-0.42,-0.84
2024-12-06 12:46:41.757,-0.67,447.0,0.89,0.43,-0.06,0.28,-0.42,-0.97
2024-12-06 12:46:41.777,2.02,449.0,0.89,0.43,-0.05,0.34,-0.36,-1.09
2024-12-06 12:46:41.781,0.45,443.0,0.89,0.43,-0.05,0.34,-0.18,-1.09
2024-12-06 12:46:41.793,-2.25,447.0,0.89,0.43,-0.05,0.34,0.0,-1.03
2024-12-06 12:46:41.802,1.35,440.0,0.89,0.43,-0.05,0.34,0.13,-0.84
2024-12-06 12:46:41.810,-0.22,449.0,0.89,0.43,-0.05,0.34,0.13,-0.84
2024-12-06 12:46:41.812,-1.35,440.0,0.89,0.43,-0.05,0.22,0.37,-0.78
2024-12-06 12:46:41.820,-4.95,454.0,0.89,0.43,-0.05,0.16,0.43,-0.66
2024-12-06 12:46:41.828,-0.67,438.0,0.89,0.43,-0.05,0.1,0.37,-0.66
2024-12-06 12:46:41.863,0.67,450.0,0.89,0.43,-0.05,0.1,0.0,-0.97
2024-12-06 12:46:41.865,-0.67,443.0,0.89,0.43,-0.05,0.1,0.0,-0.97
2024-12-06 12:46:41.870,1.8,465.0,0.89,0.43,-0.05,0.16,0.0,-0.97
2024-12-06 12:46:41.880,2.02,460.0,0.89,0.43,-0.05,0.16,0.0,-0.97
2024-12-06 12:46:41.902,-2.02,485.0,0.89,0.43,-0.05,0.22,0.0,-0.91
2024-12-06 12:46:41.918,-0.67,450.0,0.89,0.43,-0.05,0.22,0.07,-0.84
2024-12-06 12:46:41.924,-4.28,459.0,0.89,0.43,-0.05,0.28,0.19,-0.84
2024-12-06 12:46:41.938,-0.45,456.0,0.89,0.43,-0.05,0.28,0.19,-0.84
2024-12-06 12:46:41.983,3.38,463.0,0.89,0.43,-0.05,0.22,0.0,-0.72
2024-12-06 12:46:41.991,0.9,452.0,0.89,0.43,-0.05,0.22,0.0,-0.72
2024-12-06 12:46:41.997,-0.9,452.0,0.89,0.43,-0.05,0.22,0.0,-0.72
2024-12-06 12:46:42.15,-1.57,449.0,0.89,0.43,-0.05,0.22,0.0,-0.72
2024-12-06 12:46:42.22,0.45,453.0,0.89,0.43,-0.05,0.22,0.0,-0.78
2024-12-06 12:46:42.40,1.8,461.0,0.89,0.43,-0.05,0.22,0.07,-0.91
2024-12-06 12:46:42.46,1.12,452.0,0.89,0.43,-0.05,0.22,0.13,-0.91
2024-12-06 12:46:42.52,2.02,468.0,0.89,0.43,-0.05,0.16,0.19,-0.84
2024-12-06 12:46:42.108,-1.12,457.0,0.89,0.44,-0.05,0.1,0.25,-0.72
2024-12-06 12:46:42.113,3.38,452.0,0.9,0.43,-0.05,0.16,0.37,-0.72
2024-12-06 12:46:42.115,-1.57,444.0,0.9,0.42,-0.05,0.22,0.19,-0.72
2024-12-06 12:46:42.119,1.57,454.0,0.89,0.42,-0.06,0.34,0.07,-0.78
2024-12-06 12:46:42.133,-3.38,450.0,0.89,0.42,-0.06,0.47,-0.12,-0.97
2024-12-06 12:46:42.159,1.57,450.0,0.88,0.43,-0.06,0.4,-0.24,-1.27
2024-12-06 12:46:42.172,2.47,448.0,0.88,0.43,-0.05,0.16,-0.12,-1.21
2024-12-06 12:46:42.175,-4.05,449.0,0.89,0.44,-0.04,0.04,0.13,-1.03
2024-12-06 12:46:42.181,3.15,460.0,0.89,0.44,-0.04,0.04,0.13,-1.03
2024-12-06 12:46:42.217,-1.57,444.0,0.89,0.43,-0.04,0.1,0.92,-0.84
2024-12-06 12:46:42.227,-2.02,454.0,0.89,0.43,-0.05,-0.02,0.74,-0.97
2024-12-06 12:46:42.237,3.15,442.0,0.9,0.43,-0.05,-0.08,0.37,-1.03
2024-12-06 12:46:42.253,1.57,460.0,0.9,0.43,-0.05,-0.15,-0.12,-1.15
2024-12-06 12:46:42.256,2.25,451.0,0.89,0.43,-0.05,-0.15,-0.12,-1.15
2024-12-06 12:46:42.264,0.45,455.0,0.89,0.44,-0.05,-0.02,-0.18,-1.21
2024-12-06 12:46:42.271,1.12,468.0,0.89,0.44,-0.05,0.04,-0.12,-1.27
2024-12-06 12:46:42.317,1.12,453.0,0.89,0.43,-0.05,0.22,-0.06,-1.21
2024-12-06 12:46:42.459,-1.12,455.0,0.89,0.44,-0.04,-0.08,0.43,-0.36
2024-12-06 12:46:42.465,-1.8,447.0,0.89,0.44,-0.04,-0.02,0.49,-0.42
2024-12-06 12:46:42.480,1.57,442.0,0.89,0.43,-0.04,-0.02,0.49,-0.42
2024-12-06 12:46:42.490,0.67,452.0,0.9,0.43,-0.04,0.1,0.25,-0.54
2024-12-06 12:46:42.497,0.67,446.0,0.9,0.43,-0.04,0.16,0.07,-0.6
2024-12-06 12:46:42.509,2.47,451.0,0.9,0.43,-0.04,0.22,-0.12,-0.78
2024-12-06 12:46:42.530,-3.82,440.0,0.89,0.43,-0.05,0.34,-0.3,-1.09
2024-12-06 12:46:42.565,0.9,459.0,0.89,0.43,-0.05,0.28,-0.36,-1.15
2024-12-06 12:46:42.570,1.57,445.0,0.89,0.43,-0.05,0.28,-0.18,-1.09
2024-12-06 12:46:42.572,4.28,471.0,0.89,0.43,-0.05,0.22,0.0,-0.91
2024-12-06 12:46:42.579,0.0,436.0,0.89,0.43,-0.05,0.22,0.13,-0.84
2024-12-06 12:46:42.589,-2.47,449.0,0.89,0.43,-0.05,0.22,0.25,-0.84
2024-12-06 12:46:42.603,0.67,454.0,0.89,0.43,-0.05,0.22,0.25,-0.84
2024-12-06 12:46:42.606,2.92,453.0,0.89,0.43,-0.05,0.28,0.37,-0.84
2024-12-06 12:46:42.610,-0.9,459.0,0.89,0.43,-0.05,0.34,0.37,-0.84
2024-12-06 12:46:42.619,3.82,447.0,0.89,0.44,-0.05,0.4,0.31,-0.91
2024-12-06 12:46:42.677,0.45,443.0,0.89,0.43,-0.04,0.4,-0.79,-1.33
2024-12-06 12:46:42.679,-0.45,458.0,0.89,0.43,-0.04,0.34,-0.91,-1.45
2024-12-06 12:46:42.693,2.47,450.0,0.88,0.43,-0.05,0.34,-0.85,-1.64
2024-12-06 12:46:42.701,-2.25,451.0,0.88,0.43,-0.05,0.34,-0.67,-1.7
2024-12-06 12:46:42.705,-1.8,443.0,0.88,0.43,-0.05,0.47,-0.48,-1.7
2024-12-06 12:46:42.708,-2.47,446.0,0.88,0.43,-0.05,0.47,-0.48,-1.7
2024-12-06 12:46:42.716,0.0,453.0,0.88,0.43,-0.05,0.59,-0.24,-1.7
2024-12-06 12:46:42.763,0.45,466.0,0.89,0.43,-0.05,0.77,0.55,-1.76
2024-12-06 12:46:42.770,-0.45,445.0,0.91,0.43,-0.05,1.08,0.37,-0.91
2024-12-06 12:46:42.776,0.9,464.0,0.91,0.44,-0.06,1.32,0.19,-0.54
2024-12-06 12:46:42.789,0.22,449.0,0.92,0.44,-0.06,1.62,0.19,-0.17
2024-12-06 12:46:42.808,-3.15,444.0,0.92,0.44,-0.07,1.99,0.0,0.38
2024-12-06 12:46:42.811,1.57,461.0,0.92,0.44,-0.07,2.24,-0.36,0.74
2024-12-06 12:46:42.848,-3.38,516.0,0.91,0.43,-0.08,3.33,1.16,2.33
2024-12-06 12:46:42.883,3.15,455.0,0.87,0.39,-0.09,4.13,3.67,5.14
2024-12-06 12:46:42.906,0.9,454.0,0.87,0.39,-0.09,4.13,3.67,5.14
2024-12-06 12:46:42.919,0.45,454.0,0.89,0.4,-0.07,4.01,4.28,4.89
2024-12-06 12:46:42.922,1.12,482.0,0.89,0.4,-0.07,3.64,4.34,4.89
2024-12-06 12:46:42.929,-3.15,468.0,0.89,0.41,-0.06,3.64,4.34,4.89
2024-12-06 12:46:42.934,-1.57,456.0,0.89,0.41,-0.04,3.27,4.09,4.95
2024-12-06 12:46:42.958,-2.25,466.0,0.9,0.43,-0.01,2.85,3.85,4.65
2024-12-06 12:46:42.961,0.67,462.0,0.9,0.43,-0.01,2.6,3.61,4.1
2024-12-06 12:46:42.965,-4.95,457.0,0.9,0.44,-0.01,2.6,3.61,3.37
2024-12-06 12:46:42.984,0.9,480.0,0.91,0.44,0.0,2.54,3.0,2.63
2024-12-06 12:46:42.987,0.67,454.0,0.91,0.44,0.0,2.78,2.81,2.09
2024-12-06 12:46:42.999,0.67,464.0,0.91,0.44,0.0,3.09,2.39,1.6
2024-12-06 12:46:43.69,3.15,464.0,0.88,0.45,-0.05,3.82,0.8,0.74
2024-12-06 12:46:43.72,1.12,456.0,0.88,0.45,-0.05,3.82,1.16,1.29
2024-12-06 12:46:43.76,-1.35,472.0,0.88,0.46,-0.05,3.82,1.16,1.29
2024-12-06 12:46:43.86,-3.6,455.0,0.89,0.46,-0.05,3.94,1.41,1.96
2024-12-06 12:46:43.105,0.67,445.0,0.9,0.45,-0.05,4.07,2.26,3.12
2024-12-06 12:46:43.121,1.35,464.0,0.9,0.45,-0.05,4.25,2.32,3.67
2024-12-06 12:46:43.139,1.12,455.0,0.93,0.43,-0.05,4.43,1.9,4.71
2024-12-06 12:46:43.143,0.0,442.0,0.93,0.42,-0.05,4.49,1.41,5.08
2024-12-06 12:46:43.145,-1.35,451.0,0.93,0.42,-0.05,4.62,0.8,5.38
2024-12-06 12:46:43.167,3.82,453.0,0.93,0.42,-0.05,4.68,0.0,5.63
2024-12-06 12:46:43.183,-3.6,462.0,0.93,0.42,-0.04,4.62,-0.79,6.72
2024-12-06 12:46:43.230,2.92,452.0,0.9,0.41,-0.06,4.98,0.49,8.31
2024-12-06 12:46:43.236,0.9,470.0,0.9,0.4,-0.06,4.98,0.49,8.31
2024-12-06 12:46:43.251,0.9,452.0,0.91,0.39,-0.05,4.86,0.62,9.1
2024-12-06 12:46:43.266,2.02,462.0,0.91,0.39,-0.05,4.74,0.55,9.29
2024-12-06 12:46:43.270,1.8,456.0,0.91,0.39,-0.05,4.74,0.55,9.29
2024-12-06 12:46:43.273,0.22,472.0,0.91,0.39,-0.05,4.55,0.37,9.23
2024-12-06 12:46:43.295,-4.5,506.0,0.9,0.37,-0.04,3.7,-0.48,8.68
2024-12-06 12:46:43.300,1.8,455.0,0.9,0.37,-0.04,3.27,-0.91,8.07
2024-12-06 12:46:43.307,2.25,472.0,0.9,0.37,-0.04,3.27,-0.91,8.07
2024-12-06 12:46:43.313,1.8,477.0,0.9,0.36,-0.04,2.85,-1.09,7.33
2024-12-06 12:46:43.322,-1.12,494.0,0.89,0.35,-0.04,2.6,-1.22,6.66
2024-12-06 12:46:43.327,-3.82,468.0,0.89,0.35,-0.05,2.54,-1.09,6.18
2024-12-06 12:46:43.339,-3.15,457.0,0.9,0.35,-0.04,2.48,-0.97,5.81
2024-12-06 12:46:43.344,1.35,469.0,0.9,0.35,-0.04,2.54,-0.85,5.63
2024-12-06 12:46:43.351,2.47,451.0,0.9,0.35,-0.04,2.54,-0.85,5.32
2024-12-06 12:46:43.359,3.15,453.0,0.89,0.35,-0.04,2.54,-0.67,5.32
2024-12-06 12:46:43.374,-0.9,459.0,0.89,0.34,-0.05,2.54,-0.36,4.95
2024-12-06 12:46:43.377,2.25,453.0,0.89,0.34,-0.05,2.48,-0.06,4.34
2024-12-06 12:46:43.531,0.9,469.0,0.91,0.34,-0.04,-1.06,0.98,-2.74
2024-12-06 12:46:43.555,0.0,446.0,0.91,0.33,-0.04,-1.3,0.8,-3.16
2024-12-06 12:46:43.566,-4.28,450.0,0.92,0.33,-0.05,-1.73,0.62,-3.9
2024-12-06 12:46:43.610,-0.22,452.0,0.92,0.35,-0.05,-2.59,0.31,-4.02
2024-12-06 12:46:43.614,1.35,450.0,0.92,0.36,-0.05,-2.71,0.31,-4.02
2024-12-06 12:46:43.626,-2.25,470.0,0.92,0.36,-0.05,-2.71,0.49,-4.08
2024-12-06 12:46:43.633,-3.15,468.0,0.92,0.36,-0.05,-2.65,0.49,-4.2
2024-12-06 12:46:43.665,3.15,446.0,0.92,0.36,-0.05,-2.53,-0.06,-4.45
2024-12-06 12:46:43.669,0.9,454.0,0.92,0.37,-0.05,-2.59,-0.24,-4.45
2024-12-06 12:46:43.677,-1.35,468.0,0.92,0.38,-0.05,-2.59,-0.36,-4.38
2024-12-06 12:46:43.683,-4.5,485.0,0.92,0.38,-0.05,-2.59,-0.42,-4.32
2024-12-06 12:46:43.693,-4.5,452.0,0.91,0.39,-0.05,-2.59,-0.42,-4.32
2024-12-06 12:46:43.700,0.45,454.0,0.91,0.39,-0.05,-2.71,-0.36,-4.26
2024-12-06 12:46:43.718,0.9,452.0,0.91,0.39,-0.05,-2.65,-0.06,-4.14
2024-12-06 12:46:43.736,-0.22,470.0,0.91,0.39,-0.05,-2.46,0.37,-3.9
2024-12-06 12:46:43.741,2.92,457.0,0.91,0.39,-0.05,-2.28,0.37,-3.9
2024-12-06 12:46:43.751,1.35,445.0,0.92,0.39,-0.05,-2.16,0.31,-3.71
2024-12-06 12:46:43.778,1.8,453.0,0.92,0.4,-0.05,-1.92,0.13,-3.47
2024-12-06 12:46:43.785,1.35,447.0,0.92,0.4,-0.04,-1.79,-0.18,-3.35
2024-12-06 12:46:43.794,0.22,479.0,0.92,0.4,-0.04,-1.73,-0.42,-3.22
2024-12-06 12:46:43.801,-0.22,470.0,0.92,0.4,-0.04,-1.67,-0.61,-3.22
2024-12-06 12:46:43.810,2.92,452.0,0.92,0.4,-0.04,-1.67,-0.73,-3.35
2024-12-06 12:46:43.813,2.92,455.0,0.91,0.4,-0.04,-1.55,-0.73,-3.35
2024-12-06 12:46:43.910,-5.85,455.0,0.92,0.39,-0.05,-1.18,0.31,-1.33
2024-12-06 12:46:43.921,-2.02,445.0,0.92,0.39,-0.05,-1.18,0.25,-1.09
2024-12-06 12:46:43.927,5.85,460.0,0.92,0.39,-0.05,-1.18,0.25,-1.09
2024-12-06 12:46:43.934,0.45,470.0,0.92,0.39,-0.05,-1.18,0.13,-1.03
2024-12-06 12:46:43.956,1.35,453.0,0.92,0.4,-0.05,-1.06,-0.12,-1.09
2024-12-06 12:46:43.971,0.67,447.0,0.93,0.4,-0.05,-0.94,-0.06,-0.97
2024-12-06 12:46:43.973,0.67,457.0,0.93,0.4,-0.05,-0.63,-0.18,-0.72
2024-12-06 12:46:43.980,-5.17,453.0,0.93,0.41,-0.05,-0.39,-0.73,-0.36
2024-12-06 12:46:43.994,3.82,453.0,0.92,0.4,-0.05,-0.27,-1.03,-0.17
2024-12-06 12:46:44.8,1.12,442.0,0.91,0.4,-0.06,0.04,-0.91,-0.84
2024-12-06 12:46:44.10,3.82,470.0,0.91,0.39,-0.06,0.22,-0.67,-0.84
2024-12-06 12:46:44.26,1.8,446.0,0.91,0.39,-0.06,0.28,-0.67,-1.15
2024-12-06 12:46:44.37,-2.92,455.0,0.91,0.39,-0.05,0.28,-0.97,-0.91
2024-12-06 12:46:44.43,0.67,456.0,0.91,0.39,-0.05,0.28,-0.85,-0.54
2024-12-06 12:46:44.50,1.35,460.0,0.9,0.39,-0.05,0.28,-0.85,-0.54
2024-12-06 12:46:44.61,-2.25,458.0,0.9,0.39,-0.05,0.22,-0.91,-0.17
2024-12-06 12:46:44.81,0.9,455.0,0.89,0.39,-0.05,0.1,0.31,-0.17
2024-12-06 12:46:44.89,1.35,470.0,0.9,0.39,-0.05,0.1,0.31,-0.17
2024-12-06 12:46:44.121,0.22,452.0,0.91,0.39,-0.04,-0.33,-0.36,-0.91
2024-12-06 12:46:44.126,1.12,455.0,0.92,0.39,-0.04,-0.33,-0.36,-0.91
2024-12-06 12:46:44.160,-1.35,456.0,0.92,0.39,-0.04,-0.57,-0.97,-1.45
2024-12-06 12:46:44.183,1.12,456.0,0.91,0.39,-0.05,-0.02,-0.91,-1.45
2024-12-06 12:46:44.197,1.8,452.0,0.9,0.39,-0.06,0.53,-0.3,-1.52
2024-12-06 12:46:44.243,-0.45,456.0,0.9,0.39,-0.06,0.71,-0.3,-1.52
2024-12-06 12:46:44.252,3.15,445.0,0.91,0.38,-0.05,-0.02,-0.73,-1.76
2024-12-06 12:46:44.264,0.67,455.0,0.89,0.37,-0.04,-0.76,-1.52,-3.41
2024-12-06 12:46:44.266,3.38,450.0,0.87,0.36,-0.05,-0.76,-1.52,-3.41
2024-12-06 12:46:44.276,-1.35,453.0,0.83,0.35,-0.04,-0.76,-0.36,-5.67
2024-12-06 12:46:44.298,1.57,445.0,0.84,0.36,0.04,-4.91,0.49,-10.61
2024-12-06 12:46:44.342,0.0,472.0,0.87,0.37,0.01,-5.64,1.1,-10.3
2024-12-06 12:46:44.346,-4.5,450.0,1.02,0.39,-0.07,-3.38,4.46,2.7
2024-12-06 12:46:44.363,-3.15,448.0,0.96,0.37,-0.1,-0.88,-1.03,4.28
2024-12-06 12:46:44.379,1.12,442.0,0.89,0.37,-0.14,-0.51,0.07,-2.55
2024-12-06 12:46:44.380,1.57,444.0,0.89,0.39,-0.12,-0.51,0.07,-5.18
2024-12-06 12:46:44.388,0.0,456.0,0.92,0.42,-0.08,-0.51,-2.31,-5.18
2024-12-06 12:46:44.396,2.92,449.0,0.94,0.45,-0.08,-0.69,-3.9,-5.6
2024-12-06 12:46:44.420,1.12,456.0,0.93,0.45,-0.04,1.01,-5.06,-2.0
2024-12-06 12:46:44.426,0.67,458.0,0.93,0.43,-0.05,1.01,-5.06,-2.0
2024-12-06 12:46:44.571,2.92,458.0,0.88,0.4,-0.05,0.77,0.86,-3.47
2024-12-06 12:46:44.573,3.15,472.0,0.87,0.4,-0.05,0.77,0.86,-3.47
2024-12-06 12:46:44.577,-0.45,475.0,0.88,0.4,-0.06,0.89,1.53,-4.14
2024-12-06 12:46:44.584,3.15,468.0,0.91,0.41,-0.07,1.44,2.08,-3.9
2024-12-06 12:46:44.611,0.67,463.0,0.92,0.41,-0.08,2.36,1.23,-2.37
2024-12-06 12:46:44.621,2.92,450.0,0.92,0.4,-0.07,2.36,1.23,-2.37
2024-12-06 12:46:44.627,1.57,466.0,0.91,0.4,-0.06,2.48,0.8,-2.37
2024-12-06 12:46:44.629,-2.25,448.0,0.9,0.4,-0.06,2.42,0.37,-2.55
2024-12-06 12:46:44.639,-8.77,462.0,0.91,0.4,-0.06,2.36,0.43,-2.8
2024-12-06 12:46:44.647,1.12,458.0,0.91,0.4,-0.06,2.36,0.19,-2.8
2024-12-06 12:46:44.682,-1.8,455.0,0.85,0.41,-0.06,2.66,2.57,-4.14
2024-12-06 12:46:44.686,1.35,446.0,0.85,0.41,-0.06,1.81,2.2,-4.81
2024-12-06 12:46:44.691,1.35,464.0,0.88,0.42,-0.0,1.81,2.2,-4.81
2024-12-06 12:46:44.720,4.28,456.0,0.88,0.39,-0.02,-0.51,1.96,-3.83
2024-12-06 12:46:44.723,1.35,451.0,0.88,0.39,-0.02,-1.49,1.23,-4.81
2024-12-06 12:46:44.728,1.12,467.0,0.86,0.38,-0.02,-1.49,1.23,-4.81
2024-12-06 12:46:44.745,2.47,453.0,0.88,0.39,-0.02,-2.77,2.02,-6.83
2024-12-06 12:46:44.752,3.38,446.0,0.89,0.39,-0.02,-2.77,1.23,-6.83
2024-12-06 12:46:44.759,-3.82,449.0,0.89,0.39,-0.02,-2.71,1.35,-6.7
2024-12-06 12:46:44.791,1.35,455.0,0.9,0.4,-0.05,-2.53,2.2,-6.52
2024-12-06 12:46:44.797,1.57,450.0,0.89,0.4,-0.05,-2.28,2.63,-6.46
2024-12-06 12:46:44.803,-1.35,452.0,0.89,0.4,-0.05,-2.59,2.57,-6.4
2024-12-06 12:46:44.806,0.9,471.0,0.9,0.4,-0.04,-2.59,1.71,-6.22
2024-12-06 12:46:44.817,-1.12,458.0,0.91,0.4,-0.04,-2.89,1.71,-6.22
2024-12-06 12:46:44.822,0.9,466.0,0.91,0.41,-0.05,-3.14,1.04,-5.97
2024-12-06 12:46:44.828,-1.57,479.0,0.91,0.41,-0.06,-3.26,0.68,-5.97
2024-12-06 12:46:44.837,-2.25,463.0,0.88,0.41,-0.06,-3.32,0.55,-6.28
2024-12-06 12:46:44.851,3.15,451.0,0.9,0.41,-0.06,-3.2,0.74,-6.52
2024-12-06 12:46:44.856,-7.88,461.0,0.89,0.42,-0.05,-3.2,0.74,-6.52
2024-12-06 12:46:44.859,1.12,471.0,0.9,0.42,-0.05,-2.95,0.74,-6.46
2024-12-06 12:46:44.867,2.92,457.0,0.9,0.42,-0.05,-2.77,0.92,-6.15
2024-12-06 12:46:44.875,1.35,464.0,0.89,0.42,-0.04,-2.77,0.98,-5.67
2024-12-06 12:46:44.928,0.45,470.0,0.89,0.43,-0.03,-3.62,2.69,-3.53
2024-12-06 12:46:44.938,3.15,459.0,0.9,0.43,-0.04,-3.62,2.69,-2.61
2024-12-06 12:46:44.949,-1.8,464.0,0.91,0.44,-0.04,-3.5,2.75,-2.61
2024-12-06 12:46:44.963,-2.92,495.0,0.91,0.43,-0.04,-2.77,3.12,-1.58
2024-12-06 12:46:44.985,3.38,453.0,0.89,0.42,-0.04,-2.83,2.87,-2.37
2024-12-06 12:46:44.989,1.8,455.0,0.92,0.43,-0.02,-3.14,1.65,-2.92
2024-12-06 12:46:44.997,0.67,457.0,0.92,0.43,-0.01,-3.56,1.47,-2.74
2024-12-06 12:46:45.4,2.7,456.0,0.92,0.43,-0.01,-4.05,0.8,-2.25
2024-12-06 12:46:45.17,1.8,458.0,0.92,0.43,-0.01,-4.05,0.8,-2.25
2024-12-06 12:46:45.58,2.7,453.0,0.95,0.45,-0.02,-4.6,2.2,2.15
2024-12-06 12:46:45.75,1.8,471.0,0.93,0.42,-0.04,-2.65,3.18,5.38
2024-12-06 12:46:45.95,1.35,451.0,0.93,0.42,-0.05,-1.85,2.93,5.32
2024-12-06 12:46:45.108,3.38,454.0,0.93,0.43,-0.04,-1.0,1.35,4.34
2024-12-06 12:46:45.112,-3.82,452.0,0.93,0.43,-0.03,-0.69,0.19,3.92
2024-12-06 12:46:45.120,-1.8,454.0,0.93,0.43,-0.03,-0.63,-1.4,3.67
2024-12-06 12:46:45.125,1.8,462.0,0.92,0.44,-0.03,-0.63,-1.4,3.67
2024-12-06 12:46:45.137,1.57,464.0,0.91,0.44,-0.03,-0.82,-2.74,3.37
2024-12-06 12:46:45.149,-3.38,467.0,0.9,0.44,-0.02,-1.06,-3.72,3.06
2024-12-06 12:46:45.165,1.12,463.0,0.88,0.44,-0.02,-1.37,-4.15,2.45
2024-12-06 12:46:45.169,2.7,459.0,0.88,0.44,-0.02,-1.49,-3.84,2.33
2024-12-06 12:46:45.172,-2.02,458.0,0.87,0.44,-0.02,-1.49,-3.84,2.33
2024-12-06 12:46:45.180,-5.17,463.0,0.87,0.43,-0.01,-1.49,-3.29,2.27
2024-12-06 12:46:45.192,3.6,473.0,0.87,0.42,-0.01,-1.55,-2.19,2.21
2024-12-06 12:46:45.207,-0.45,455.0,0.88,0.42,-0.0,-1.49,-1.15,2.45
2024-12-06 12:46:45.242,-4.05,458.0,0.89,0.42,-0.01,-1.43,-0.85,2.57
2024-12-06 12:46:45.245,-3.15,467.0,0.9,0.42,-0.02,-0.94,-0.85,1.48
2024-12-06 12:46:45.263,1.8,456.0,0.9,0.42,-0.04,-0.69,-1.03,0.8
2024-12-06 12:46:45.278,1.12,467.0,0.91,0.42,-0.04,-0.02,-2.01,0.07
2024-12-06 12:46:45.284,-0.22,455.0,0.91,0.42,-0.04,0.1,-2.62,-0.17
2024-12-06 12:46:45.289,3.6,472.0,0.9,0.42,-0.04,0.1,-2.62,-0.48
2024-12-06 12:46:45.293,-2.47,463.0,0.89,0.42,-0.04,0.28,-2.68,-0.48
2024-12-06 12:46:45.309,-0.45,469.0,0.89,0.43,-0.03,0.47,-2.13,-0.66
2024-12-06 12:46:45.312,2.92,457.0,0.89,0.43,-0.02,0.71,-1.83,-0.54
2024-12-06 12:46:45.317,3.38,456.0,0.89,0.44,-0.03,0.95,-1.28,-0.23
2024-12-06 12:46:45.346,1.12,456.0,0.9,0.44,-0.04,1.5,0.62,0.8
2024-12-06 12:46:45.349,4.5,457.0,0.91,0.44,-0.04,1.75,0.98,1.6
2024-12-06 12:46:45.354,1.35,455.0,0.91,0.44,-0.03,1.75,0.8,2.21
2024-12-06 12:46:45.396,1.35,448.0,0.91,0.39,-0.03,0.59,-0.85,2.27
2024-12-06 12:46:45.412,0.45,449.0,0.92,0.4,-0.02,0.34,-1.28,2.57
2024-12-06 12:46:45.415,-0.22,471.0,0.92,0.4,-0.02,0.28,-1.58,2.88
2024-12-06 12:46:45.423,1.57,451.0,0.92,0.41,-0.02,0.1,-1.34,3.12
2024-12-06 12:46:45.430,2.47,460.0,0.92,0.41,-0.02,-0.15,-1.03,3.37
2024-12-06 12:46:45.460,3.82,458.0,0.9,0.41,-0.01,-0.21,-0.67,3.49
2024-12-06 12:46:45.574,-0.45,482.0,0.91,0.4,-0.02,-1.12,-0.61,7.88
2024-12-06 12:46:45.580,-0.67,441.0,0.91,0.4,-0.02,-1.06,0.07,8.25
2024-12-06 12:46:45.629,1.35,453.0,0.89,0.38,-0.05,-0.88,2.08,7.58
2024-12-06 12:46:45.633,-1.12,448.0,0.84,0.39,-0.07,-0.88,2.08,7.58
2024-12-06 12:46:45.635,-3.38,453.0,0.84,0.4,-0.06,-0.88,4.89,5.75
2024-12-06 12:46:45.640,2.02,450.0,0.89,0.42,-0.03,-0.51,3.73,6.11
2024-12-06 12:46:45.649,3.15,454.0,0.9,0.41,-0.05,-0.33,1.23,7.58
2024-12-06 12:46:45.700,-2.47,467.0,0.88,0.39,-0.08,-0.08,4.58,7.46
2024-12-06 12:46:45.704,0.0,458.0,0.96,0.36,-0.03,-0.63,-0.61,9.1
2024-12-06 12:46:45.710,3.38,460.0,0.94,0.35,-0.02,-1.0,-2.8,8.49
2024-12-06 12:46:45.726,-2.92,451.0,0.92,0.37,-0.02,-1.12,-2.56,5.99
2024-12-06 12:46:45.742,0.9,471.0,0.91,0.38,-0.02,-0.69,-3.11,5.5
2024-12-06 12:46:45.746,3.38,459.0,0.9,0.38,-0.02,-0.15,-1.83,5.38
2024-12-06 12:46:45.755,4.05,464.0,0.89,0.38,-0.01,0.4,-0.48,5.32
2024-12-06 12:46:45.766,1.35,461.0,0.88,0.37,-0.01,0.65,1.04,5.32
2024-12-06 12:46:45.772,-3.15,512.0,0.88,0.37,-0.01,0.83,2.51,5.08
2024-12-06 12:46:45.781,1.57,480.0,0.87,0.37,-0.02,0.59,3.61,4.65
2024-12-06 12:46:45.786,-1.8,448.0,0.88,0.36,-0.03,0.59,3.61,4.65
2024-12-06 12:46:45.804,1.8,464.0,0.9,0.34,-0.03,-0.39,4.7,3.79
2024-12-06 12:46:45.808,1.57,444.0,0.9,0.34,-0.03,-1.0,3.54,3.73
2024-12-06 12:46:45.817,-1.35,465.0,0.92,0.34,-0.03,-1.61,2.08,3.61
2024-12-06 12:46:45.825,-1.12,449.0,0.92,0.35,-0.03,-1.61,2.08,3.61
2024-12-06 12:46:45.840,2.02,464.0,0.92,0.35,-0.03,-2.04,1.41,3.43
2024-12-06 12:46:45.850,2.25,453.0,0.92,0.35,-0.01,-2.4,0.31,3.06
2024-12-06 12:46:45.855,-0.67,456.0,0.88,0.33,-0.01,-2.46,-2.68,1.6
2024-12-06 12:46:45.859,0.45,449.0,0.88,0.33,-0.01,-2.53,-2.74,-1.33
2024-12-06 12:46:45.872,-3.82,455.0,0.89,0.32,-0.02,-2.22,-1.34,-3.59
2024-12-06 12:46:45.877,3.6,467.0,0.89,0.32,-0.0,-1.85,-3.96,-5.18
2024-12-06 12:46:45.887,3.15,460.0,0.89,0.32,-0.03,-1.43,-3.17,-6.64
2024-12-06 12:46:45.893,4.28,467.0,0.89,0.32,-0.03,-0.94,-0.91,-7.56
2024-12-06 12:46:45.956,4.95,447.0,0.9,0.34,-0.02,-0.33,-1.77,-7.68
2024-12-06 12:46:45.973,1.12,450.0,0.9,0.36,-0.04,-1.55,-3.9,-11.16
2024-12-06 12:46:45.976,11.25,447.0,0.9,0.36,-0.04,-1.55,-3.9,-11.16
2024-12-06 12:46:45.983,6.52,476.0,0.93,0.38,-0.0,-1.98,-2.8,-11.16
2024-12-06 12:46:45.996,13.5,457.0,0.91,0.38,-0.0,-1.92,-6.46,-10.73
2024-12-06 12:46:45.999,13.05,464.0,0.89,0.37,-0.04,-2.22,-6.77,-11.4
2024-12-06 12:46:46.9,11.02,451.0,0.91,0.37,-0.03,-2.46,-0.54,-12.07
2024-12-06 12:46:46.22,13.95,456.0,0.91,0.37,-0.03,-2.4,0.25,-11.53
2024-12-06 12:46:46.50,12.38,456.0,0.93,0.4,-0.01,-1.85,1.29,-10.06
2024-12-06 12:46:46.58,12.6,468.0,0.93,0.4,-0.01,-1.37,-4.33,-9.45
2024-12-06 12:46:46.60,17.55,448.0,0.91,0.39,-0.02,-1.37,-4.33,-10.37
2024-12-06 12:46:46.68,13.27,461.0,0.9,0.37,-0.07,-1.67,-3.23,-10.37
2024-12-06 12:46:46.78,17.1,460.0,0.93,0.38,-0.05,-1.55,0.13,-10.98
2024-12-06 12:46:46.85,15.75,457.0,0.94,0.38,-0.01,-1.67,-5.06,-10.85
2024-12-06 12:46:46.100,17.32,456.0,0.94,0.38,-0.04,-2.4,-7.01,-10.79
2024-12-06 12:46:46.108,21.6,455.0,0.94,0.39,-0.05,-2.22,-6.83,-11.04
2024-12-06 12:46:46.116,17.77,459.0,0.91,0.39,-0.03,-2.22,-6.83,-11.04
2024-12-06 12:46:46.163,23.62,454.0,0.9,0.41,-0.04,-1.24,-1.58,-10.3
2024-12-06 12:46:46.169,24.3,457.0,0.9,0.41,-0.01,-0.94,-3.96,-9.51
2024-12-06 12:46:46.184,27.45,458.0,0.89,0.4,-0.06,-0.69,-4.69,-9.33
2024-12-06 12:46:46.186,25.65,478.0,0.89,0.4,-0.06,-1.67,-0.06,-9.51
2024-12-06 12:46:46.192,26.32,458.0,0.91,0.41,-0.07,-1.67,-2.8,-8.11
2024-12-06 12:46:46.200,29.47,467.0,0.95,0.43,-0.03,-1.67,-2.8,-8.11
2024-12-06 12:46:46.217,29.7,459.0,0.89,0.4,-0.08,-2.77,-3.17,-7.44
2024-12-06 12:46:46.226,28.35,467.0,0.93,0.43,-0.04,-3.32,-1.89,-7.25
2024-12-06 12:46:46.232,29.25,450.0,0.93,0.43,-0.04,-3.07,-4.82,-5.91
2024-12-06 12:46:46.240,30.15,458.0,0.92,0.44,-0.03,-3.2,-4.51,-6.28
2024-12-06 12:46:46.249,29.7,459.0,0.87,0.43,-0.07,-3.2,-4.51,-6.28
2024-12-06 12:46:46.256,28.35,468.0,0.89,0.43,-0.05,-3.62,-0.85,-7.01
2024-12-06 12:46:46.264,31.95,459.0,0.93,0.45,-0.01,-3.44,-2.62,-5.54
2024-12-06 12:46:46.275,32.17,455.0,0.9,0.43,-0.03,-3.38,-4.76,-4.02
2024-12-06 12:46:46.290,31.95,459.0,0.86,0.41,-0.06,-3.75,-0.85,-5.67
2024-12-06 12:46:46.295,29.02,473.0,0.89,0.41,-0.03,-3.75,-0.85,-5.67
2024-12-06 12:46:46.303,32.4,468.0,0.92,0.44,-0.03,-3.75,-1.46,-4.81
2024-12-06 12:46:46.311,30.38,473.0,0.91,0.45,-0.03,-3.99,-2.62,-3.71
2024-12-06 12:46:46.319,33.75,456.0,0.88,0.43,-0.04,-4.36,-2.44,-3.77
2024-12-06 12:46:46.334,35.33,472.0,0.84,0.41,-0.05,-4.3,-1.03,-4.75
2024-12-06 12:46:46.336,36.9,483.0,0.87,0.41,-0.05,-4.42,-0.24,-4.69
2024-12-06 12:46:46.376,34.88,460.0,0.91,0.43,-0.04,-4.42,-0.24,-4.69
2024-12-06 12:46:46.379,33.08,473.0,0.88,0.43,-0.05,-4.11,-1.03,-2.68
2024-12-06 12:46:46.381,35.33,466.0,0.88,0.42,-0.05,-4.11,-1.03,-2.68
2024-12-06 12:46:46.389,37.35,474.0,0.91,0.44,-0.05,-3.99,-0.36,-2.37
2024-12-06 12:46:46.395,32.85,469.0,0.91,0.45,-0.04,-3.87,-1.95,-1.21
2024-12-06 12:46:46.407,38.7,479.0,0.89,0.43,-0.04,-4.3,-2.13,-0.78
2024-12-06 12:46:46.412,35.1,477.0,0.89,0.43,-0.04,-4.42,-1.7,-1.27
2024-12-06 12:46:46.419,40.27,471.0,0.87,0.41,-0.05,-4.6,-0.18,-1.88
2024-12-06 12:46:46.430,39.6,475.0,0.88,0.41,-0.05,-4.6,-0.18,-1.88
2024-12-06 12:46:46.436,41.62,483.0,0.89,0.44,-0.04,-4.78,-0.12,-1.7
2024-12-06 12:46:46.455,42.97,470.0,0.88,0.45,-0.05,-4.78,-0.54,-1.27
2024-12-06 12:46:46.471,37.8,487.0,0.86,0.43,-0.05,-4.72,0.0,-1.58
2024-12-06 12:46:46.474,44.1,466.0,0.86,0.43,-0.05,-4.3,0.62,-2.43
2024-12-06 12:46:46.477,44.32,467.0,0.87,0.43,-0.05,-4.3,0.62,-2.43
2024-12-06 12:46:46.482,44.1,467.0,0.88,0.43,-0.05,-4.42,1.16,-2.37
2024-12-06 12:46:46.491,38.7,492.0,0.88,0.43,-0.04,-4.17,0.55,-2.19
2024-12-06 12:46:46.502,43.65,475.0,0.87,0.42,-0.05,-4.11,0.25,-2.61
2024-12-06 12:46:46.507,42.75,441.0,0.87,0.42,-0.05,-4.48,0.86,-3.1
2024-12-06 12:46:46.513,44.55,475.0,0.88,0.42,-0.05,-4.42,0.25,-3.1
2024-12-06 12:46:46.522,42.52,474.0,0.89,0.43,-0.05,-4.42,0.25,-3.1
2024-12-06 12:46:46.642,54.0,474.0,0.91,0.45,-0.02,-4.11,-3.17,-4.75
2024-12-06 12:46:46.649,53.55,475.0,0.88,0.44,-0.02,-4.36,-2.92,-4.38
2024-12-06 12:46:46.677,49.72,491.0,0.9,0.45,-0.03,-4.05,-1.4,-3.9
2024-12-06 12:46:46.680,54.45,493.0,0.91,0.46,-0.03,-4.11,-1.7,-2.92
2024-12-06 12:46:46.688,58.05,483.0,0.89,0.45,-0.03,-4.23,-2.38,-2.06
2024-12-06 12:46:46.700,56.02,469.0,0.88,0.43,-0.05,-4.23,-2.38,-2.13
2024-12-06 12:46:46.707,54.9,491.0,0.88,0.43,-0.05,-4.72,-1.09,-2.25
2024-12-06 12:46:46.720,57.6,490.0,0.9,0.45,-0.04,-5.09,-1.89,-1.58
2024-12-06 12:46:46.722,54.67,478.0,0.91,0.47,-0.02,-5.09,-1.89,-1.58
2024-12-06 12:46:46.727,60.52,479.0,0.9,0.46,-0.02,-5.46,-1.77,-0.84
2024-12-06 12:46:46.747,59.62,486.0,0.88,0.44,-0.01,-5.52,-1.46,-0.78
2024-12-06 12:46:46.751,59.4,484.0,0.89,0.43,-0.01,-5.39,-1.28,-1.03
2024-12-06 12:46:46.755,59.85,487.0,0.89,0.43,-0.01,-5.76,-0.67,-0.72
2024-12-06 12:46:46.758,58.95,505.0,0.9,0.45,-0.01,-5.76,-0.67,-0.72
2024-12-06 12:46:46.770,59.4,492.0,0.89,0.46,-0.01,-5.94,-0.54,-0.17
2024-12-06 12:46:46.774,59.85,497.0,0.88,0.47,-0.02,-6.25,0.37,0.25
2024-12-06 12:46:46.782,62.1,488.0,0.87,0.46,-0.01,-5.94,0.86,0.56
2024-12-06 12:46:46.790,63.0,488.0,0.87,0.43,-0.02,-5.46,1.16,0.68
2024-12-06 12:46:46.831,63.0,511.0,0.89,0.44,-0.04,-6.31,-0.48,1.23
2024-12-06 12:46:46.840,59.4,507.0,0.89,0.43,-0.03,-6.37,-0.97,1.23
2024-12-06 12:46:46.845,63.45,506.0,0.89,0.43,-0.03,-6.31,-1.22,0.86
2024-12-06 12:46:46.847,61.2,497.0,0.88,0.42,-0.02,-6.31,-1.03,0.25
2024-12-06 12:46:46.875,63.22,509.0,0.88,0.42,-0.03,-6.07,-1.03,0.25
2024-12-06 12:46:46.878,65.7,522.0,0.92,0.47,-0.0,-5.76,-3.35,1.9
2024-12-06 12:46:46.881,60.3,518.0,0.92,0.47,-0.02,-5.27,-1.58,2.15
2024-12-06 12:46:46.894,62.77,507.0,0.9,0.44,-0.04,-5.27,-1.58,2.15
2024-12-06 12:46:46.901,65.92,511.0,0.9,0.43,-0.03,-4.6,-0.85,2.21
2024-12-06 12:46:46.907,65.25,532.0,0.92,0.44,-0.04,-4.54,-1.52,2.57
2024-12-06 12:46:46.920,65.03,513.0,0.92,0.44,-0.05,-4.48,-1.34,3.06
2024-12-06 12:46:46.926,61.88,516.0,0.92,0.44,-0.05,-4.23,-1.64,3.55
2024-12-06 12:46:46.931,68.4,510.0,0.92,0.44,-0.04,-4.23,-1.64,4.22
2024-12-06 12:46:46.939,65.92,530.0,0.91,0.45,-0.04,-4.11,-1.83,4.22
2024-12-06 12:46:46.948,67.5,531.0,0.9,0.45,-0.03,-3.87,-1.83,4.53
2024-12-06 12:46:46.955,68.62,514.0,0.89,0.45,-0.03,-3.5,-1.64,4.53
2024-12-06 12:46:46.961,63.0,489.0,0.88,0.45,-0.03,-3.44,-1.7,4.34
2024-12-06 12:46:46.968,63.67,540.0,0.88,0.45,-0.03,-3.32,-1.89,4.04
2024-12-06 12:46:46.983,66.6,521.0,0.88,0.43,-0.03,-3.5,-1.89,3.49
2024-12-06 12:46:46.986,69.07,528.0,0.88,0.42,-0.03,-3.5,-1.89,3.49
2024-12-06 12:46:46.992,64.8,529.0,0.88,0.42,-0.03,-3.44,-2.44,3.0
2024-12-06 12:46:47.5,65.25,524.0,0.88,0.42,-0.04,-3.32,-1.22,2.88
2024-12-06 12:46:47.8,64.35,542.0,0.88,0.44,-0.04,-2.95,-0.48,2.88
2024-12-06 12:46:47.16,65.25,532.0,0.88,0.44,-0.04,-2.34,0.25,3.31
2024-12-06 12:46:47.69,67.95,536.0,0.89,0.45,-0.04,-1.79,0.92,3.86
2024-12-06 12:46:47.72,65.47,549.0,0.89,0.43,-0.04,-0.94,1.16,2.88
2024-12-06 12:46:47.76,65.7,537.0,0.91,0.42,-0.03,-0.39,0.19,3.12
2024-12-06 12:46:47.84,69.75,542.0,0.91,0.42,-0.04,-0.21,-0.54,3.18
2024-12-06 12:46:47.92,69.53,551.0,0.91,0.42,-0.03,-0.27,-0.73,2.88
2024-12-06 12:46:47.99,67.5,550.0,0.91,0.42,-0.03,-0.27,-1.22,2.57
2024-12-06 12:46:47.109,72.22,561.0,0.91,0.44,-0.02,-0.27,-1.89,2.39
2024-12-06 12:46:47.117,69.97,564.0,0.91,0.44,-0.02,-0.02,-1.89,2.39
2024-12-06 12:46:47.133,71.1,563.0,0.9,0.45,-0.02,0.34,-2.01,2.15
2024-12-06 12:46:47.136,68.85,551.0,0.9,0.44,-0.01,0.47,-2.19,2.15
2024-12-06 12:46:47.139,72.0,524.0,0.9,0.43,-0.0,0.53,-3.35,2.21
2024-12-06 12:46:47.159,70.65,556.0,0.89,0.42,-0.02,0.22,-2.74,2.02
2024-12-06 12:46:47.162,72.45,557.0,0.9,0.41,-0.02,0.22,-2.44,2.02
2024-12-06 12:46:47.177,67.95,576.0,0.9,0.4,-0.01,0.34,-2.38,2.21
2024-12-06 12:46:47.180,70.88,569.0,0.89,0.41,-0.02,0.22,-2.38,2.33
2024-12-06 12:46:47.185,71.55,555.0,0.89,0.41,-0.02,0.1,-1.52,2.39
2024-12-06 12:46:47.198,72.22,551.0,0.89,0.4,-0.02,0.34,-1.52,2.82
2024-12-06 12:46:47.202,67.72,576.0,0.91,0.4,-0.02,0.34,-1.52,3.55
2024-12-06 12:46:47.210,71.78,579.0,0.91,0.4,-0.02,0.4,-1.52,3.55
2024-12-06 12:46:47.218,68.17,559.0,0.89,0.4,-0.02,0.16,-1.64,3.79
2024-12-06 12:46:47.225,71.78,568.0,0.88,0.43,-0.03,-0.51,0.0,3.86
2024-12-06 12:46:47.237,71.55,565.0,0.87,0.45,-0.02,-1.18,0.98,4.04
2024-12-06 12:46:47.244,74.03,570.0,0.87,0.45,-0.02,-1.18,2.2,4.1
2024-12-06 12:46:47.294,74.92,575.0,0.91,0.37,-0.05,-1.55,1.59,5.32
2024-12-06 12:46:47.296,69.3,569.0,0.92,0.38,-0.05,-1.85,0.86,5.32
2024-12-06 12:46:47.302,73.57,568.0,0.93,0.39,-0.04,-2.04,0.19,4.89
2024-12-06 12:46:47.311,69.97,590.0,0.94,0.41,-0.02,-1.98,-0.36,4.71
2024-12-06 12:46:47.318,74.47,568.0,0.94,0.41,-0.02,-2.1,-1.34,4.4
2024-12-06 12:46:47.329,71.78,571.0,0.94,0.41,-0.02,-2.34,-1.58,3.86
2024-12-06 12:46:47.334,71.78,592.0,0.93,0.42,-0.01,-2.34,-1.58,3.86
2024-12-06 12:46:47.341,67.5,573.0,0.93,0.41,-0.01,-2.46,-1.89,3.31
2024-12-06 12:46:47.349,71.78,579.0,0.91,0.4,-0.01,-2.46,-2.19,2.82
2024-12-06 12:46:47.357,67.28,587.0,0.9,0.39,-0.0,-2.65,-1.89,2.09
2024-12-06 12:46:47.365,71.78,586.0,0.89,0.39,-0.01,-2.65,-1.34,1.48
2024-12-06 12:46:47.376,71.55,582.0,0.89,0.39,-0.01,-2.46,-1.22,1.23
2024-12-06 12:46:47.383,69.3,582.0,0.89,0.39,-0.02,-2.46,-1.28,1.29
2024-12-06 12:46:47.391,71.78,610.0,0.89,0.39,-0.03,-2.4,-1.28,1.29
2024-12-06 12:46:47.397,72.9,592.0,0.88,0.39,-0.03,-2.59,-0.97,1.35
2024-12-06 12:46:47.407,72.0,598.0,0.89,0.39,-0.03,-2.89,-0.48,1.41
2024-12-06 12:46:47.419,74.47,603.0,0.89,0.39,-0.03,-3.01,-0.3,1.54
2024-12-06 12:46:47.428,72.22,596.0,0.89,0.39,-0.03,-2.95,-0.36,1.72
2024-12-06 12:46:47.432,72.9,587.0,0.89,0.4,-0.04,-2.95,-0.36,1.72
2024-12-06 12:46:47.438,69.75,586.0,0.9,0.39,-0.04,-2.89,-0.54,1.84
2024-12-06 12:46:47.445,72.22,600.0,0.91,0.39,-0.04,-2.95,-0.67,1.96
2024-12-06 12:46:47.452,71.78,581.0,0.91,0.39,-0.04,-2.83,-0.91,2.09
2024-12-06 12:46:47.463,65.47,583.0,0.92,0.39,-0.04,-2.65,-0.73,2.09
2024-12-06 12:46:47.469,69.3,600.0,0.92,0.39,-0.04,-2.16,-1.15,2.15
2024-12-06 12:46:47.510,72.9,581.0,0.93,0.4,-0.03,-2.16,-1.34,2.21
2024-12-06 12:46:47.514,71.78,582.0,0.92,0.39,-0.03,-1.24,-1.89,0.62
2024-12-06 12:46:47.516,72.0,585.0,0.92,0.38,-0.04,-1.24,-2.25,0.13
2024-12-06 12:46:47.523,76.28,593.0,0.92,0.38,-0.05,-1.06,-2.25,0.13
2024-12-06 12:46:47.531,73.35,583.0,0.93,0.37,-0.05,-1.0,-3.05,-0.05
2024-12-06 12:46:47.537,72.45,599.0,0.92,0.37,-0.05,-1.0,-3.72,-0.17
2024-12-06 12:46:47.549,70.42,595.0,0.92,0.37,-0.05,-1.18,-4.02,-0.42
2024-12-06 12:46:47.561,72.0,616.0,0.92,0.37,-0.05,-1.37,-3.96,-0.84
2024-12-06 12:46:47.566,71.78,587.0,0.91,0.38,-0.04,-1.37,-3.54,-1.15
2024-12-06 12:46:47.569,70.42,596.0,0.9,0.38,-0.04,-1.37,-3.54,-1.15
2024-12-06 12:46:47.665,69.53,584.0,0.89,0.38,-0.04,-1.12,-3.05,-1.33
2024-12-06 12:46:47.679,72.22,578.0,0.92,0.4,-0.02,-0.15,-2.68,-1.39
2024-12-06 12:46:47.683,68.62,567.0,0.93,0.4,-0.02,-0.15,-2.68,-1.39
2024-12-06 12:46:47.694,71.78,588.0,0.93,0.4,-0.01,-0.63,-2.5,-0.42
2024-12-06 12:46:47.745,74.7,569.0,0.92,0.41,-0.02,-0.45,0.74,1.23
2024-12-06 12:46:47.747,72.22,590.0,0.92,0.4,-0.03,-0.08,0.55,1.48
2024-12-06 12:46:47.754,73.35,593.0,0.92,0.4,-0.03,-0.08,0.13,1.6
2024-12-06 12:46:47.759,71.78,582.0,0.93,0.4,-0.03,-0.33,-0.36,1.54
2024-12-06 12:46:47.773,69.97,571.0,0.92,0.4,-0.03,-0.33,-0.36,1.54
2024-12-06 12:46:47.776,73.8,584.0,0.92,0.4,-0.03,-0.57,-0.85,1.29
2024-12-06 12:46:47.783,72.0,569.0,0.9,0.41,-0.03,-0.63,-1.09,0.8
2024-12-06 12:46:47.791,72.67,595.0,0.89,0.42,-0.02,-0.45,-0.73,0.32
2024-12-06 12:46:47.801,67.28,575.0,0.89,0.42,-0.02,0.22,-0.73,-0.05
2024-12-06 12:46:47.807,72.45,564.0,0.89,0.42,-0.03,1.01,-0.91,-0.17
2024-12-06 12:46:47.815,70.2,583.0,0.89,0.42,-0.03,1.01,-0.91,-0.17
2024-12-06 12:46:47.823,73.57,569.0,0.89,0.41,-0.04,1.69,-1.09,-0.05
2024-12-06 12:46:47.831,72.0,594.0,0.9,0.4,-0.04,1.99,-1.64,0.01
2024-12-06 12:46:47.840,72.9,582.0,0.91,0.4,-0.05,1.93,-2.13,0.01
2024-12-06 12:46:47.857,69.97,570.0,0.92,0.4,-0.04,1.75,-2.86,-0.6
2024-12-06 12:46:47.862,71.78,573.0,0.92,0.4,-0.04,1.75,-2.86,-0.6
2024-12-06 12:46:47.877,68.62,571.0,0.91,0.4,-0.03,1.93,-3.05,-1.21
2024-12-06 12:46:47.880,70.88,586.0,0.9,0.41,-0.03,2.11,-2.8,-1.7
2024-12-06 12:46:47.885,69.97,568.0,0.9,0.41,-0.03,2.54,-2.44,-1.94
2024-12-06 12:46:47.893,72.0,572.0,0.9,0.41,-0.03,3.03,-2.56,-2.06
2024-12-06 12:46:47.904,72.9,565.0,0.9,0.41,-0.03,3.21,-2.13,-1.88
2024-12-06 12:46:47.913,74.25,580.0,0.9,0.4,-0.04,3.21,-2.13,-1.88
2024-12-06 12:46:47.916,73.35,561.0,0.91,0.4,-0.05,3.39,-2.19,-1.45
2024-12-06 12:46:47.929,72.45,569.0,0.92,0.39,-0.05,3.33,-2.44,-0.91
2024-12-06 12:46:47.933,72.9,569.0,0.92,0.39,-0.05,3.09,-2.56,-0.54
2024-12-06 12:46:47.965,74.47,572.0,0.92,0.38,-0.03,2.17,-2.74,-0.84
2024-12-06 12:46:47.972,72.22,574.0,0.92,0.39,-0.03,2.24,-2.8,-1.09
2024-12-06 12:46:47.981,72.0,579.0,0.92,0.39,-0.03,2.24,-2.62,-1.15
2024-12-06 12:46:47.988,72.45,572.0,0.91,0.39,-0.04,2.3,-2.62,-1.15
2024-12-06 12:46:47.993,70.2,565.0,0.91,0.39,-0.04,2.3,-2.62,-1.15
2024-12-06 12:46:48.2,74.7,576.0,0.91,0.38,-0.05,2.24,-2.44,-1.03
2024-12-06 12:46:48.11,73.12,560.0,0.91,0.38,-0.06,2.11,-2.5,-0.78
2024-12-06 12:46:48.17,73.12,570.0,0.9,0.37,-0.06,1.81,-2.62,-0.66
2024-12-06 12:46:48.34,71.55,576.0,0.9,0.37,-0.06,1.38,-2.31,-0.66
2024-12-06 12:46:48.37,69.53,581.0,0.9,0.37,-0.06,1.26,-2.19,-0.72
2024-12-06 12:46:48.41,70.42,577.0,0.9,0.37,-0.06,1.26,-2.19,-0.72
2024-12-06 12:46:48.73,72.67,564.0,0.89,0.4,-0.05,1.32,-1.4,-1.39
2024-12-06 12:46:48.82,72.67,571.0,0.89,0.4,-0.05,1.32,-1.4,-1.39
2024-12-06 12:46:48.89,72.22,588.0,0.89,0.39,-0.05,1.26,-1.28,-1.7
2024-12-06 12:46:48.95,69.53,571.0,0.89,0.38,-0.06,1.08,-1.4,-2.0
2024-12-06 12:46:48.104,67.28,555.0,0.9,0.38,-0.06,0.95,-1.58,-2.37
2024-12-06 12:46:48.110,72.67,578.0,0.9,0.38,-0.06,0.77,-2.01,-2.8
2024-12-06 12:46:48.120,67.05,562.0,0.9,0.38,-0.06,0.53,-1.77,-3.1
2024-12-06 12:46:48.126,70.42,564.0,0.9,0.39,-0.06,0.53,-1.77,-3.1
2024-12-06 12:46:48.147,70.88,578.0,0.89,0.4,-0.06,0.22,-1.58,-3.41
2024-12-06 12:46:48.158,71.32,586.0,0.9,0.4,-0.05,0.1,-1.34,-3.1
2024-12-06 12:46:48.164,72.22,563.0,0.9,0.4,-0.05,0.04,-1.4,-2.8
2024-12-06 12:46:48.170,71.78,564.0,0.9,0.4,-0.05,0.04,-1.22,-2.37
2024-12-06 12:46:48.202,70.2,561.0,0.9,0.39,-0.05,-0.76,-1.03,-1.7
2024-12-06 12:46:48.204,73.8,588.0,0.9,0.39,-0.05,-0.76,-1.03,-1.7
2024-12-06 12:46:48.210,72.22,575.0,0.9,0.39,-0.05,-0.76,-1.03,-1.7
2024-12-06 12:46:48.219,71.32,559.0,0.91,0.4,-0.04,-0.82,-0.67,-1.76
2024-12-06 12:46:48.227,71.78,567.0,0.9,0.4,-0.04,-0.82,-0.3,-1.88
2024-12-06 12:46:48.239,71.78,569.0,0.9,0.4,-0.04,-0.76,0.13,-2.0
2024-12-06 12:46:48.242,73.8,555.0,0.9,0.4,-0.04,-0.76,0.49,-2.13
2024-12-06 12:46:48.249,74.7,574.0,0.89,0.4,-0.04,-0.76,0.49,-2.25
2024-12-06 12:46:48.266,72.45,579.0,0.89,0.4,-0.05,-0.63,0.68,-2.25
2024-12-06 12:46:48.270,73.35,550.0,0.89,0.4,-0.05,-0.57,0.86,-2.43
2024-12-06 12:46:48.272,67.05,561.0,0.89,0.39,-0.06,-0.63,0.8,-2.49
2024-12-06 12:46:48.280,71.78,562.0,0.9,0.39,-0.06,-0.76,0.86,-2.55
2024-12-06 12:46:48.291,69.53,553.0,0.9,0.39,-0.06,-0.88,0.86,-2.55
2024-12-06 12:46:48.299,72.9,565.0,0.9,0.39,-0.06,-0.88,0.86,-2.55
2024-12-06 12:46:48.310,72.9,562.0,0.9,0.39,-0.06,-1.0,0.8,-2.49
2024-12-06 12:46:48.314,75.38,547.0,0.9,0.39,-0.06,-0.94,0.8,-2.49
2024-12-06 12:46:48.325,74.47,555.0,0.9,0.4,-0.05,-0.82,0.98,-2.49
2024-12-06 12:46:48.328,71.78,561.0,0.9,0.41,-0.05,-0.63,1.1,-2.61
2024-12-06 12:46:48.340,72.45,555.0,0.9,0.41,-0.05,-0.39,1.29,-2.49
2024-12-06 12:46:48.344,74.7,580.0,0.91,0.42,-0.05,-0.39,1.35,-2.25
2024-12-06 12:46:48.353,74.03,562.0,0.91,0.42,-0.05,-0.15,1.35,-2.25
2024-12-06 12:46:48.360,72.0,573.0,0.91,0.41,-0.05,0.16,0.8,-2.13
2024-12-06 12:46:48.375,72.0,570.0,0.92,0.41,-0.06,0.16,0.74,-2.0
2024-12-06 12:46:48.408,73.8,550.0,0.92,0.41,-0.05,0.1,-0.97,-2.0
2024-12-06 12:46:48.415,72.9,570.0,0.92,0.41,-0.05,0.4,-1.22,-1.88
2024-12-06 12:46:48.421,72.67,560.0,0.92,0.41,-0.05,0.77,-1.22,-1.82
2024-12-06 12:46:48.429,71.78,557.0,0.92,0.41,-0.05,0.77,-1.22,-1.64
2024-12-06 12:46:48.437,67.5,563.0,0.92,0.41,-0.05,1.01,-1.22,-1.64
2024-12-06 12:46:48.444,62.55,545.0,0.91,0.41,-0.06,1.08,-1.28,-1.39
2024-12-06 12:46:48.453,72.45,555.0,0.91,0.4,-0.06,0.95,-1.28,-1.03
2024-12-06 12:46:48.460,72.9,569.0,0.9,0.4,-0.06,0.95,-1.4,-0.72
2024-12-06 12:46:48.469,72.22,558.0,0.9,0.4,-0.06,0.71,-1.34,-0.42
2024-12-06 12:46:48.478,72.45,569.0,0.9,0.4,-0.06,0.65,-1.52,-0.23
2024-12-06 12:46:48.489,70.42,557.0,0.9,0.4,-0.05,0.65,-1.52,-0.23
2024-12-06 12:46:48.493,72.45,574.0,0.9,0.4,-0.05,0.53,-1.15,-0.17
2024-12-06 12:46:48.503,74.47,560.0,0.9,0.4,-0.04,0.53,-1.4,-0.29
2024-12-06 12:46:48.512,72.67,565.0,0.9,0.4,-0.04,0.47,-0.97,-0.66
2024-12-06 12:46:48.527,72.9,551.0,0.9,0.4,-0.04,0.53,-0.73,-1.15
2024-12-06 12:46:48.529,70.65,560.0,0.9,0.4,-0.04,0.77,-0.61,-1.58
2024-12-06 12:46:48.533,69.3,564.0,0.9,0.39,-0.04,0.77,-0.61,-1.58
2024-12-06 12:46:48.542,69.97,581.0,0.9,0.39,-0.05,1.08,-0.36,-2.0
2024-12-06 12:46:48.557,69.53,562.0,0.9,0.4,-0.06,1.44,-0.73,-2.43
2024-12-06 12:46:48.559,74.03,576.0,0.9,0.4,-0.07,1.5,-0.91,-2.74
2024-12-06 12:46:48.563,72.22,559.0,0.9,0.4,-0.07,1.5,-1.09,-3.04
2024-12-06 12:46:48.571,72.0,571.0,0.9,0.39,-0.07,1.38,-1.28,-3.47
2024-12-06 12:46:48.581,72.9,562.0,0.89,0.39,-0.06,1.38,-1.28,-3.47
2024-12-06 12:46:48.591,73.12,559.0,0.89,0.39,-0.05,1.32,-1.4,-3.9
2024-12-06 12:46:48.595,69.3,561.0,0.89,0.39,-0.05,1.2,-1.4,-4.2
2024-12-06 12:46:48.725,71.32,574.0,0.92,0.4,-0.06,0.53,-0.73,-3.16
2024-12-06 12:46:48.730,73.57,553.0,0.92,0.4,-0.06,0.53,-0.73,-3.16
2024-12-06 12:46:48.740,72.67,557.0,0.91,0.4,-0.06,0.65,-0.79,-3.16
2024-12-06 12:46:48.749,74.7,566.0,0.9,0.41,-0.06,0.71,-0.42,-3.16
2024-12-06 12:46:48.756,72.0,545.0,0.9,0.41,-0.06,0.89,-0.18,-3.29
2024-12-06 12:46:48.769,74.47,542.0,0.9,0.41,-0.06,1.14,0.37,-3.47
2024-12-06 12:46:48.787,76.28,558.0,0.89,0.41,-0.06,1.56,0.43,-3.59
2024-12-06 12:46:48.790,68.4,549.0,0.88,0.41,-0.07,1.99,0.92,-4.02
2024-12-06 12:46:48.799,72.45,560.0,0.89,0.4,-0.06,2.48,1.65,-4.51
2024-12-06 12:46:48.803,74.25,566.0,0.89,0.39,-0.05,2.78,1.41,-4.93
2024-12-06 12:46:48.807,70.2,535.0,0.89,0.39,-0.05,2.78,1.47,-5.79
2024-12-06 12:46:48.815,72.67,543.0,0.89,0.39,-0.05,2.78,1.47,-5.79
2024-12-06 12:46:48.824,70.2,519.0,0.88,0.39,-0.05,2.85,1.96,-6.83
2024-12-06 12:46:48.856,70.65,525.0,0.88,0.4,-0.05,3.03,1.96,-7.8
2024-12-06 12:46:48.859,64.8,522.0,0.9,0.43,-0.05,4.07,1.04,-9.69
2024-12-06 12:46:48.861,72.22,518.0,0.9,0.43,-0.05,4.07,1.04,-9.69
2024-12-06 12:46:48.883,71.78,519.0,0.89,0.42,-0.06,4.19,1.16,-9.94
2024-12-06 12:46:48.892,69.75,513.0,0.89,0.41,-0.07,4.8,1.04,-10.37
2024-12-06 12:46:48.894,71.55,510.0,0.89,0.41,-0.07,4.98,0.62,-10.3
2024-12-06 12:46:48.901,74.7,543.0,0.89,0.41,-0.07,4.98,0.31,-10.12
2024-12-06 12:46:48.910,67.05,522.0,0.89,0.42,-0.07,4.98,0.31,-10.12
2024-12-06 12:46:48.918,67.95,535.0,0.89,0.43,-0.06,4.86,0.37,-9.88
2024-12-06 12:46:48.924,70.88,497.0,0.89,0.43,-0.06,4.92,0.74,-9.51
2024-12-06 12:46:48.943,69.97,511.0,0.89,0.43,-0.06,5.16,1.23,-9.27
2024-12-06 12:46:48.945,68.4,544.0,0.89,0.43,-0.06,5.47,1.65,-8.9
2024-12-06 12:46:48.949,72.22,502.0,0.89,0.44,-0.06,5.47,1.65,-8.9
2024-12-06 12:46:48.955,72.45,514.0,0.89,0.44,-0.07,5.65,2.02,-8.41
2024-12-06 12:46:48.965,73.12,512.0,0.89,0.44,-0.06,5.59,1.84,-7.99
2024-12-06 12:46:48.970,68.17,525.0,0.89,0.44,-0.05,5.35,1.71,-7.31
2024-12-06 12:46:48.980,71.78,505.0,0.89,0.47,-0.06,4.92,2.26,-6.89
2024-12-06 12:46:48.986,70.42,509.0,0.89,0.44,-0.06,4.68,2.39,-6.4
2024-12-06 12:46:48.994,72.22,498.0,0.89,0.44,-0.05,4.68,2.39,-6.4
2024-12-06 12:46:49.2,72.0,510.0,0.89,0.44,-0.06,4.37,2.57,-6.03
2024-12-06 12:46:49.12,69.97,524.0,0.88,0.44,-0.06,4.31,3.12,-6.15
2024-12-06 12:46:49.18,72.45,507.0,0.89,0.44,-0.06,4.43,2.87,-6.28
2024-12-06 12:46:49.34,69.75,496.0,0.89,0.45,-0.06,4.49,2.81,-6.4
2024-12-06 12:46:49.37,67.05,508.0,0.89,0.45,-0.06,4.49,2.39,-6.46
2024-12-06 12:46:49.41,67.28,515.0,0.89,0.46,-0.05,4.49,2.39,-6.46
2024-12-06 12:46:49.97,71.55,495.0,0.9,0.48,-0.06,5.1,5.56,-6.89
2024-12-06 12:46:49.102,67.95,505.0,0.9,0.51,-0.06,4.98,5.07,-5.24
2024-12-06 12:46:49.110,67.72,497.0,0.9,0.51,-0.06,4.86,5.44,-3.77
2024-12-06 12:46:49.118,71.78,486.0,0.88,0.51,-0.06,4.86,6.47,-2.31
2024-12-06 12:46:49.127,70.42,487.0,0.88,0.51,-0.06,4.55,6.47,-2.31
2024-12-06 12:46:49.133,69.97,479.0,0.88,0.5,-0.07,4.37,6.96,-0.78
2024-12-06 12:46:49.150,67.5,496.0,0.87,0.49,-0.08,4.13,9.16,0.38
2024-12-06 12:46:49.157,69.07,479.0,0.86,0.5,-0.07,3.82,11.6,1.23
2024-12-06 12:46:49.164,67.5,492.0,0.86,0.5,-0.07,3.27,10.26,2.7
2024-12-06 12:46:49.166,68.62,476.0,0.87,0.5,-0.07,3.27,10.26,2.7
2024-12-06 12:46:49.172,67.28,476.0,0.87,0.47,-0.09,2.6,9.16,4.16
2024-12-06 12:46:49.186,64.8,481.0,0.87,0.46,-0.08,2.91,9.1,5.32
2024-12-06 12:46:49.188,66.38,490.0,0.88,0.47,-0.07,3.15,9.77,6.48
2024-12-06 12:46:49.198,62.1,498.0,0.88,0.47,-0.06,2.97,10.2,7.64
2024-12-06 12:46:49.204,65.92,478.0,0.88,0.47,-0.06,3.09,10.32,7.58
2024-12-06 12:46:49.229,61.65,487.0,0.88,0.44,-0.06,3.09,11.17,6.72
2024-12-06 12:46:49.235,66.15,476.0,0.9,0.46,-0.06,2.91,9.04,7.21
2024-12-06 12:46:49.237,62.32,487.0,0.9,0.44,-0.06,2.97,8.18,7.21
2024-12-06 12:46:49.248,58.72,469.0,0.91,0.43,-0.06,3.09,9.47,6.54
2024-12-06 12:46:49.261,61.88,478.0,0.91,0.43,-0.06,2.85,8.73,7.27
2024-12-06 12:46:49.266,57.82,512.0,0.94,0.46,-0.04,2.85,8.73,7.27
2024-12-06 12:46:49.268,62.77,498.0,0.93,0.44,-0.05,2.54,6.05,8.07
2024-12-06 12:46:49.274,60.07,488.0,0.91,0.42,-0.06,2.72,7.02,7.52
2024-12-06 12:46:49.305,60.97,475.0,0.9,0.43,-0.05,2.72,7.45,7.27
2024-12-06 12:46:49.311,55.57,474.0,0.89,0.41,-0.05,3.82,6.41,5.32
2024-12-06 12:46:49.313,55.35,496.0,0.9,0.45,-0.04,4.25,4.95,5.63
2024-12-06 12:46:49.320,55.57,477.0,0.88,0.42,-0.05,4.62,4.22,5.87
2024-12-06 12:46:49.329,56.25,477.0,0.89,0.4,-0.04,4.74,5.38,5.5
2024-12-06 12:46:49.339,50.62,480.0,0.89,0.4,-0.04,4.37,5.68,6.11
2024-12-06 12:46:49.345,49.72,480.0,0.91,0.42,-0.03,4.37,5.68,6.85
2024-12-06 12:46:49.352,53.1,486.0,0.9,0.42,-0.04,3.88,4.58,6.85
2024-12-06 12:46:49.362,53.1,490.0,0.89,0.39,-0.03,3.64,4.7,6.48
2024-12-06 12:46:49.368,51.75,503.0,0.89,0.39,-0.03,3.46,4.58,5.99
2024-12-06 12:46:49.376,53.1,478.0,0.9,0.39,-0.03,3.09,3.85,5.5
2024-12-06 12:46:49.388,46.35,485.0,0.9,0.39,-0.03,2.72,2.69,4.71
2024-12-06 12:46:49.391,51.07,475.0,0.89,0.38,-0.03,2.72,2.69,3.55
2024-12-06 12:46:49.403,49.95,482.0,0.89,0.38,-0.03,2.36,3.73,3.55
2024-12-06 12:46:49.417,47.02,553.0,0.94,0.44,0.0,1.99,3.48,4.77
2024-12-06 12:46:49.422,46.57,489.0,0.94,0.44,-0.03,2.54,2.51,5.44
2024-12-06 12:46:49.431,46.12,477.0,0.91,0.41,-0.03,3.09,3.67,4.28
2024-12-06 12:46:49.438,47.7,480.0,0.88,0.38,-0.04,3.09,3.67,4.28
2024-12-06 12:46:49.446,42.3,488.0,0.9,0.4,-0.03,2.85,3.73,3.25
2024-12-06 12:46:49.456,45.9,485.0,0.92,0.41,-0.02,2.66,1.59,3.37
2024-12-06 12:46:49.461,46.57,463.0,0.91,0.4,-0.02,2.3,0.43,3.61
2024-12-06 12:46:49.469,44.32,487.0,0.91,0.4,-0.02,2.11,0.55,3.18
2024-12-06 12:46:49.481,47.47,487.0,0.9,0.39,-0.02,1.44,1.29,3.12
2024-12-06 12:46:49.493,47.02,480.0,0.92,0.4,-0.02,1.44,1.29,3.12
2024-12-06 12:46:49.495,43.88,484.0,0.94,0.41,-0.01,1.14,0.55,4.04
2024-12-06 12:46:49.502,45.0,493.0,0.93,0.39,-0.02,0.71,-0.67,4.89
2024-12-06 12:46:49.532,45.67,475.0,0.9,0.4,-0.02,0.53,0.55,2.57
2024-12-06 12:46:49.539,42.97,473.0,0.92,0.42,-0.02,0.59,0.86,2.82
2024-12-06 12:46:49.547,39.38,472.0,0.92,0.43,-0.01,0.4,0.86,3.61
2024-12-06 12:46:49.556,42.52,490.0,0.9,0.41,-0.01,0.28,0.25,3.67
2024-12-06 12:46:49.563,41.62,479.0,0.9,0.41,-0.01,0.1,1.23,2.94
2024-12-06 12:46:49.571,41.85,486.0,0.89,0.38,-0.03,-0.02,1.53,2.27
2024-12-06 12:46:49.584,40.5,475.0,0.9,0.37,-0.03,-0.02,1.53,2.27
2024-12-06 12:46:49.587,41.85,475.0,0.91,0.39,-0.04,-0.21,0.49,2.15
2024-12-06 12:46:49.594,38.47,472.0,0.91,0.41,-0.03,-0.33,-0.18,2.45
2024-12-06 12:46:49.604,40.05,487.0,0.9,0.41,-0.03,-0.27,-1.09,2.88
2024-12-06 12:46:49.610,40.05,481.0,0.9,0.41,-0.03,-0.63,-0.48,3.06
2024-12-06 12:46:49.618,32.62,472.0,0.89,0.4,-0.01,-1.3,-0.18,2.88
2024-12-06 12:46:49.628,36.9,485.0,0.9,0.39,-0.0,-1.3,-0.18,2.88
2024-12-06 12:46:49.635,37.58,496.0,0.91,0.39,-0.01,-1.85,-0.3,3.12
2024-12-06 12:46:49.644,37.35,486.0,0.89,0.39,-0.02,-2.04,-1.09,3.31
2024-12-06 12:46:49.650,38.25,476.0,0.87,0.39,-0.04,-2.04,-1.46,2.63
2024-12-06 12:46:49.772,29.92,481.0,0.94,0.42,-0.03,-0.63,0.31,2.09
2024-12-06 12:46:49.778,25.42,476.0,0.93,0.41,-0.02,-0.63,0.31,2.09
2024-12-06 12:46:49.791,30.15,481.0,0.9,0.4,-0.03,-0.69,-0.54,2.02
2024-12-06 12:46:49.797,28.35,481.0,0.89,0.39,-0.04,-0.82,-0.06,0.99
2024-12-06 12:46:49.803,25.65,473.0,0.91,0.4,-0.03,-0.76,0.8,0.74
2024-12-06 12:46:49.814,28.12,499.0,0.92,0.41,-0.03,-0.39,0.07,1.35
2024-12-06 12:46:49.829,25.42,478.0,0.91,0.41,-0.03,-0.45,0.13,1.96
2024-12-06 12:46:49.835,26.55,496.0,0.89,0.4,-0.03,-0.45,0.13,1.96
2024-12-06 12:46:49.845,26.32,501.0,0.91,0.4,-0.03,-0.69,2.08,2.02
2024-12-06 12:46:49.851,20.7,494.0,0.93,0.4,-0.02,-0.76,2.14,2.7
2024-12-06 12:46:49.859,21.82,475.0,0.93,0.41,-0.03,-0.69,1.65,3.37
2024-12-06 12:46:49.866,22.27,488.0,0.93,0.41,-0.04,-0.57,0.74,3.61
2024-12-06 12:46:49.879,23.62,473.0,0.9,0.39,-0.04,-0.51,0.62,2.39
2024-12-06 12:46:49.881,22.72,487.0,0.89,0.38,-0.05,-0.51,0.62,2.39
2024-12-06 12:46:49.892,24.75,474.0,0.91,0.38,-0.03,-0.69,1.47,1.29
2024-12-06 12:46:49.900,25.42,473.0,0.92,0.39,-0.04,-0.21,0.55,1.11
2024-12-06 12:46:49.905,24.52,475.0,0.91,0.4,-0.05,0.04,-0.42,0.86
2024-12-06 12:46:49.919,24.07,477.0,0.91,0.4,-0.05,0.22,-1.52,0.19
2024-12-06 12:46:49.922,24.97,498.0,0.91,0.39,-0.03,0.16,-1.28,-0.23
2024-12-06 12:46:49.928,19.57,479.0,0.92,0.39,-0.02,0.16,-1.28,-0.23
2024-12-06 12:46:49.938,21.82,473.0,0.92,0.39,-0.02,0.4,-1.28,-0.36
2024-12-06 12:46:49.947,20.25,477.0,0.89,0.38,-0.02,0.71,-1.4,-0.97
2024-12-06 12:46:49.952,24.52,472.0,0.87,0.37,-0.03,1.14,-1.64,-2.25
2024-12-06 12:46:49.963,20.25,472.0,0.87,0.37,-0.03,1.62,-1.09,-3.47
2024-12-06 12:46:49.996,16.65,486.0,0.89,0.39,-0.04,3.76,-0.3,-2.74
2024-12-06 12:46:49.998,17.55,491.0,0.89,0.39,-0.04,3.94,-0.48,-3.04
2024-12-06 12:46:50.6,20.02,482.0,0.88,0.38,-0.04,3.88,-0.06,-3.83
2024-12-06 12:46:50.13,16.65,492.0,0.88,0.38,-0.05,3.88,-0.06,-3.83
2024-12-06 12:46:50.21,16.88,473.0,0.89,0.39,-0.05,4.07,0.8,-4.14
2024-12-06 12:46:50.33,19.57,473.0,0.89,0.4,-0.06,4.62,-0.54,-4.02
2024-12-06 12:46:50.39,16.42,492.0,0.88,0.39,-0.06,4.55,0.0,-4.32
2024-12-06 12:46:50.47,15.3,480.0,0.87,0.39,-0.05,4.68,-0.61,-4.87
2024-12-06 12:46:50.54,12.38,484.0,0.87,0.39,-0.05,4.37,-0.42,-4.99
2024-12-06 12:46:50.66,13.95,477.0,0.89,0.39,-0.04,3.82,0.62,-4.38
2024-12-06 12:46:50.78,15.52,488.0,0.91,0.41,-0.03,3.82,0.62,-4.38
2024-12-06 12:46:50.84,17.55,476.0,0.92,0.42,-0.03,3.39,0.19,-3.16
2024-12-06 12:46:50.87,14.62,493.0,0.91,0.41,-0.04,3.15,0.13,-2.31
2024-12-06 12:46:50.95,16.88,469.0,0.9,0.4,-0.04,2.85,0.86,-2.25
2024-12-06 12:46:50.107,13.95,487.0,0.9,0.4,-0.04,2.6,1.16,-2.8
2024-12-06 12:46:50.115,9.68,479.0,0.88,0.39,-0.03,2.6,1.16,-2.8
2024-12-06 12:46:50.118,9.68,483.0,0.88,0.38,-0.03,2.66,1.59,-3.53
2024-12-06 12:46:50.123,13.95,477.0,0.89,0.39,-0.02,2.54,2.39,-3.71
2024-12-06 12:46:50.131,14.62,479.0,0.91,0.39,-0.01,2.54,2.26,-3.29
2024-12-06 12:46:50.139,12.15,489.0,0.91,0.39,-0.01,2.24,3.0,-2.61
2024-12-06 12:46:50.147,11.47,470.0,0.92,0.39,-0.01,1.75,2.63,-2.43
2024-12-06 12:46:50.155,10.12,474.0,0.91,0.39,-0.01,1.75,2.63,-2.43
2024-12-06 12:46:50.166,14.4,473.0,0.9,0.38,-0.02,1.5,3.36,-2.86
2024-12-06 12:46:50.175,10.57,489.0,0.9,0.37,-0.02,1.44,2.63,-3.1
2024-12-06 12:46:50.187,11.02,481.0,0.89,0.37,-0.01,0.77,1.96,-3.59
2024-12-06 12:46:50.191,7.42,490.0,0.88,0.37,-0.02,0.4,1.65,-4.2
2024-12-06 12:46:50.195,10.57,471.0,0.88,0.37,-0.02,0.47,2.63,-4.08
2024-12-06 12:46:50.205,8.55,471.0,0.91,0.38,-0.02,0.47,2.63,-4.08
2024-12-06 12:46:50.210,7.88,478.0,0.92,0.4,-0.02,0.16,2.32,-2.98
2024-12-06 12:46:50.218,6.52,489.0,0.92,0.4,-0.02,-0.45,2.08,-2.19
2024-12-06 12:46:50.229,11.47,470.0,0.91,0.39,-0.02,-1.0,1.84,-2.0
2024-12-06 12:46:50.237,10.35,469.0,0.91,0.39,-0.01,-1.55,1.84,-2.37
2024-12-06 12:46:50.247,9.9,479.0,0.9,0.39,-0.01,-1.73,0.92,-2.8
2024-12-06 12:46:50.257,6.3,482.0,0.91,0.4,-0.03,-1.73,0.92,-2.8
2024-12-06 12:46:50.262,11.47,472.0,0.91,0.4,-0.02,-2.04,0.86,-2.74
2024-12-06 12:46:50.288,6.52,493.0,0.92,0.38,0.01,-2.95,-2.99,-2.13
2024-12-06 12:46:50.295,7.2,480.0,0.91,0.37,-0.01,-3.81,-2.38,-3.35
2024-12-06 12:46:50.304,9.9,474.0,0.94,0.39,0.0,-4.66,-0.85,-3.59
2024-12-06 12:46:50.311,2.02,471.0,0.91,0.39,0.0,-4.17,-2.74,-3.53
2024-12-06 12:46:50.326,9.68,463.0,0.9,0.39,-0.03,-4.05,-1.52,-4.14
2024-12-06 12:46:50.331,8.77,469.0,0.9,0.39,-0.03,-4.36,0.13,-3.83
2024-12-06 12:46:50.335,10.8,472.0,0.91,0.41,-0.01,-4.36,0.13,-3.83
2024-12-06 12:46:50.342,8.1,494.0,0.91,0.41,-0.01,-3.69,-1.52,-3.22
2024-12-06 12:46:50.351,9.9,470.0,0.91,0.4,-0.0,-4.05,-0.18,-2.8
2024-12-06 12:46:50.357,3.6,485.0,0.91,0.4,0.01,-4.6,-2.07,-2.68
2024-12-06 12:46:50.368,2.92,466.0,0.91,0.4,0.01,-5.52,-0.85,-2.13
2024-12-06 12:46:50.373,5.4,477.0,0.94,0.41,0.0,-6.19,-2.25,-0.78
2024-12-06 12:46:50.387,5.62,474.0,0.93,0.4,0.02,-6.19,-2.25,-0.78
2024-12-06 12:46:50.395,7.65,471.0,0.9,0.39,0.01,-7.16,-2.19,-0.6
2024-12-06 12:46:50.398,8.1,468.0,0.9,0.39,-0.01,-7.77,0.13,-0.05
2024-12-06 12:46:50.407,10.35,483.0,0.88,0.39,-0.02,-7.41,-1.22,0.25
2024-12-06 12:46:50.438,7.65,469.0,0.9,0.4,-0.03,-6.25,-2.19,1.48
2024-12-06 12:46:50.447,9.45,461.0,0.88,0.38,-0.05,-6.55,-2.25,-0.05
2024-12-06 12:46:50.458,2.92,494.0,0.88,0.38,-0.05,-6.55,-2.68,-1.39
2024-12-06 12:46:50.462,8.77,505.0,0.91,0.39,-0.05,-6.25,-5.0,-1.82
2024-12-06 12:46:50.466,6.52,493.0,0.93,0.41,-0.05,-6.25,-5.0,-1.82
2024-12-06 12:46:50.475,9.9,469.0,0.91,0.41,-0.05,-6.0,-5.73,-2.19
2024-12-06 12:46:50.482,7.2,482.0,0.88,0.41,-0.04,-5.76,-6.22,-3.16
2024-12-06 12:46:50.490,9.22,467.0,0.88,0.42,-0.03,-5.33,-5.67,-3.83
2024-12-06 12:46:50.506,7.42,483.0,0.88,0.42,-0.03,-4.6,-4.02,-3.53
2024-12-06 12:46:50.515,7.2,468.0,0.87,0.44,-0.04,-3.87,-2.62,-2.8
2024-12-06 12:46:50.521,9.0,474.0,0.87,0.44,-0.04,-3.38,-0.85,-2.43
2024-12-06 12:46:50.533,3.15,485.0,0.87,0.44,-0.04,-2.77,0.74,-2.0
2024-12-06 12:46:50.543,7.42,470.0,0.88,0.44,-0.04,-2.22,0.98,-1.7
2024-12-06 12:46:50.551,10.12,465.0,0.88,0.44,-0.04,-2.04,1.1,-1.76
2024-12-06 12:46:50.556,10.12,467.0,0.88,0.44,-0.05,-2.04,1.1,-1.76
2024-12-06 12:46:50.559,4.28,464.0,0.89,0.44,-0.06,-1.49,1.23,-2.0
2024-12-06 12:46:50.567,8.77,474.0,0.89,0.43,-0.06,-1.0,0.74,-2.25
2024-12-06 12:46:50.575,9.45,488.0,0.89,0.43,-0.06,-0.63,-0.06,-2.74
2024-12-06 12:46:50.582,9.9,472.0,0.89,0.43,-0.06,-0.15,-0.85,-3.1
2024-12-06 12:46:50.595,8.32,513.0,0.9,0.42,-0.05,0.28,-1.52,-3.47
2024-12-06 12:46:50.598,6.75,472.0,0.9,0.42,-0.04,0.28,-1.52,-3.47
2024-12-06 12:46:50.607,8.77,463.0,0.9,0.42,-0.04,0.77,-1.95,-3.9
2024-12-06 12:46:50.614,7.88,478.0,0.91,0.43,-0.04,1.14,-1.09,-4.2
2024-12-06 12:46:50.622,7.88,469.0,0.93,0.44,-0.02,1.5,-0.73,-3.71
2024-12-06 12:46:50.638,7.88,469.0,0.93,0.44,-0.02,1.69,-0.85,-2.98
2024-12-06 12:46:50.667,9.9,482.0,0.91,0.38,0.01,-0.15,-1.22,-1.82
2024-12-06 12:46:50.672,2.25,477.0,0.91,0.38,0.01,-1.37,-2.01,-2.06
2024-12-06 12:46:50.676,4.72,485.0,0.88,0.37,0.02,-1.37,-2.01,-2.06
2024-12-06 12:46:50.686,3.15,502.0,0.86,0.37,0.03,-3.38,-3.54,-3.53
2024-12-06 12:46:50.695,5.4,476.0,0.88,0.37,-0.01,-4.48,-2.62,-4.87
2024-12-06 12:46:50.698,4.5,482.0,0.93,0.4,-0.02,-4.6,-0.42,-4.57
2024-12-06 12:46:50.706,6.97,473.0,0.97,0.44,-0.03,-3.87,-0.42,-2.61
2024-12-06 12:46:50.715,8.1,484.0,0.97,0.44,-0.03,-3.07,0.0,-0.05
2024-12-06 12:46:50.825,7.65,474.0,0.86,0.41,-0.03,-1.3,2.02,-1.45
2024-12-06 12:46:50.828,7.88,469.0,0.86,0.41,-0.03,-0.76,3.0,-2.25
2024-12-06 12:46:50.837,9.9,468.0,0.86,0.41,-0.05,-0.76,3.0,-2.25
2024-12-06 12:46:50.848,4.72,474.0,0.88,0.42,-0.04,-0.39,3.54,-2.86
2024-12-06 12:46:50.851,5.17,484.0,0.9,0.42,-0.02,-0.21,2.81,-2.86
2024-12-06 12:46:50.866,5.4,475.0,0.91,0.43,-0.02,-0.08,3.06,-2.8
2024-12-06 12:46:50.889,6.07,471.0,0.93,0.44,-0.01,0.04,3.3,-2.25
2024-12-06 12:46:50.895,2.92,476.0,0.95,0.44,-0.02,0.04,3.42,-1.52
2024-12-06 12:46:50.897,7.42,473.0,0.95,0.45,-0.01,-0.02,2.39,-0.84
2024-12-06 12:46:50.903,3.82,485.0,0.95,0.45,-0.01,-0.15,1.65,-0.36
2024-12-06 12:46:50.912,2.47,488.0,0.94,0.44,-0.01,-0.15,0.98,-0.36
2024-12-06 12:46:50.922,7.88,491.0,0.93,0.43,-0.01,-0.15,0.98,-0.36
2024-12-06 12:46:50.927,10.8,478.0,0.91,0.42,-0.01,-0.21,0.49,-0.84
2024-12-06 12:46:50.935,7.2,473.0,0.9,0.41,-0.01,-0.21,0.13,-1.58
2024-12-06 12:46:50.944,6.52,475.0,0.9,0.41,-0.02,-0.15,0.19,-2.25
2024-12-06 12:46:50.949,6.52,484.0,0.9,0.41,-0.02,-0.15,0.19,-2.55
2024-12-06 12:46:50.958,5.17,473.0,0.9,0.41,-0.02,-0.15,0.19,-2.55
2024-12-06 12:46:50.968,8.1,492.0,0.89,0.41,-0.01,-0.02,-0.06,-2.55
2024-12-06 12:46:50.977,9.68,484.0,0.89,0.41,-0.01,0.1,0.49,-2.61
2024-12-06 12:46:50.982,6.3,483.0,0.89,0.41,-0.01,0.28,0.8,-2.49
2024-12-06 12:46:50.992,2.25,474.0,0.89,0.41,-0.01,0.4,1.35,-2.13
2024-12-06 12:46:51.0,5.85,481.0,0.89,0.41,-0.01,0.47,1.53,-2.06
2024-12-06 12:46:51.11,5.85,484.0,0.88,0.41,-0.01,0.47,1.53,-2.06
2024-12-06 12:46:51.14,8.1,483.0,0.88,0.41,-0.02,0.4,2.02,-2.37
2024-12-06 12:46:51.31,9.0,471.0,0.88,0.42,-0.03,0.77,2.26,-2.8
2024-12-06 12:46:51.38,9.22,496.0,0.89,0.43,-0.03,0.83,2.14,-3.16
2024-12-06 12:46:51.44,6.75,481.0,0.9,0.43,-0.02,0.83,1.96,-2.92
2024-12-06 12:46:51.51,9.9,479.0,0.91,0.44,-0.02,0.71,1.96,-2.92
2024-12-06 12:46:51.59,8.55,474.0,0.92,0.44,-0.02,0.71,1.35,-2.61
2024-12-06 12:46:51.68,10.57,482.0,0.91,0.44,-0.02,0.71,0.8,-2.55
2024-12-06 12:46:51.75,4.5,478.0,0.9,0.43,-0.02,0.77,0.25,-2.8
2024-12-06 12:46:51.87,4.72,502.0,0.9,0.43,-0.02,0.89,0.0,-3.47
2024-12-06 12:46:51.113,9.22,498.0,0.87,0.42,-0.01,1.01,-0.42,-5.18
2024-12-06 12:46:51.116,5.85,487.0,0.88,0.42,-0.01,1.08,0.13,-5.79
2024-12-06 12:46:51.120,7.88,491.0,0.88,0.42,-0.01,1.2,0.98,-5.73
2024-12-06 12:46:51.129,7.65,477.0,0.89,0.42,-0.0,1.38,1.47,-4.87
2024-12-06 12:46:51.137,8.1,477.0,0.91,0.42,-0.0,1.38,1.47,-4.87
2024-12-06 12:46:51.144,5.4,481.0,0.91,0.42,-0.01,1.26,1.71,-3.59
2024-12-06 12:46:51.152,8.32,471.0,0.92,0.42,-0.02,0.95,2.14,-2.49
2024-12-06 12:46:51.162,7.88,488.0,0.92,0.42,-0.03,1.01,2.2,-1.7
2024-12-06 12:46:51.169,8.32,500.0,0.92,0.42,-0.03,0.83,2.02,-1.21
2024-12-06 12:46:51.179,10.35,466.0,0.91,0.42,-0.02,0.59,1.23,-1.33
2024-12-06 12:46:51.189,7.65,491.0,0.9,0.42,-0.02,0.59,1.23,-1.33
2024-12-06 12:46:51.199,6.75,488.0,0.9,0.42,-0.02,0.34,0.43,-1.76
2024-12-06 12:46:51.202,7.65,476.0,0.9,0.43,-0.01,0.22,-0.06,-2.31
2024-12-06 12:46:51.207,4.72,481.0,0.9,0.43,-0.0,0.22,0.07,-2.74
2024-12-06 12:46:51.219,11.02,474.0,0.9,0.43,-0.0,0.34,0.19,-2.92
2024-12-06 12:46:51.221,3.6,491.0,0.9,0.44,0.0,0.34,0.19,-2.92
2024-12-06 12:46:51.232,8.55,474.0,0.9,0.44,-0.0,0.53,0.49,-2.86
2024-12-06 12:46:51.239,8.1,465.0,0.91,0.44,-0.0,0.71,0.92,-2.61
2024-12-06 12:46:51.247,9.45,476.0,0.91,0.44,-0.0,0.83,1.1,-2.25
2024-12-06 12:46:51.254,3.6,485.0,0.91,0.44,-0.01,0.89,1.16,-1.94
2024-12-06 12:46:51.268,8.77,475.0,0.9,0.44,-0.01,1.01,0.98,-1.76
2024-12-06 12:46:51.271,6.07,535.0,0.89,0.43,-0.02,1.01,0.98,-1.76
2024-12-06 12:46:51.276,7.88,483.0,0.89,0.42,-0.02,1.14,0.55,-1.76
2024-12-06 12:46:51.285,8.32,475.0,0.89,0.42,-0.03,1.08,0.37,-1.88
2024-12-06 12:46:51.292,7.42,479.0,0.89,0.43,-0.02,0.95,0.19,-2.0
2024-12-06 12:46:51.301,9.68,475.0,0.89,0.43,-0.02,0.89,0.07,-1.94
2024-12-06 12:46:51.341,9.9,495.0,0.89,0.44,-0.02,0.89,0.25,-1.76
2024-12-06 12:46:51.344,6.75,501.0,0.9,0.45,-0.0,0.59,0.86,-0.97
2024-12-06 12:46:51.347,8.77,483.0,0.89,0.44,-0.0,0.59,0.92,-0.91
2024-12-06 12:46:51.354,4.72,490.0,0.89,0.43,-0.0,0.59,0.92,-0.91
2024-12-06 12:46:51.362,7.42,485.0,0.89,0.43,-0.01,0.59,0.92,-1.03
2024-12-06 12:46:51.369,11.02,486.0,0.89,0.42,-0.01,0.47,0.86,-1.21
2024-12-06 12:46:51.376,10.57,484.0,0.89,0.42,-0.01,0.4,0.49,-1.45
2024-12-06 12:46:51.386,10.57,503.0,0.89,0.42,-0.01,0.4,0.13,-1.64
2024-12-06 12:46:51.396,8.32,482.0,0.89,0.43,-0.01,0.34,-0.06,-1.88
2024-12-06 12:46:51.400,8.77,476.0,0.89,0.43,-0.01,0.34,-0.06,-1.88
2024-12-06 12:46:51.408,8.32,484.0,0.89,0.43,-0.01,0.4,-0.18,-2.25
2024-12-06 12:46:51.419,5.62,472.0,0.88,0.43,-0.02,0.53,-0.36,-2.55
2024-12-06 12:46:51.423,6.07,484.0,0.88,0.43,-0.02,0.71,-0.48,-2.74
2024-12-06 12:46:51.436,9.68,489.0,0.88,0.43,-0.02,0.83,-0.48,-2.92
2024-12-06 12:46:51.443,6.3,491.0,0.88,0.43,-0.02,0.83,-0.48,-2.92
2024-12-06 12:46:51.456,9.22,479.0,0.88,0.43,-0.02,0.95,-0.42,-3.1
2024-12-06 12:46:51.459,8.1,481.0,0.88,0.43,-0.02,1.01,-0.24,-3.1
2024-12-06 12:46:51.462,9.22,479.0,0.88,0.43,-0.01,0.83,-0.12,-3.16
2024-12-06 12:46:51.469,4.72,496.0,0.88,0.43,-0.01,0.47,0.07,-3.29
2024-12-06 12:46:51.478,7.65,473.0,0.87,0.44,0.0,0.1,0.55,-3.35
2024-12-06 12:46:51.489,5.4,493.0,0.88,0.44,0.0,0.1,0.55,-3.35
2024-12-06 12:46:51.501,9.9,482.0,0.88,0.44,0.0,-0.45,1.1,-3.29
2024-12-06 12:46:51.520,6.07,475.0,0.88,0.43,-0.0,-0.76,1.23,-3.29
2024-12-06 12:46:51.524,2.47,480.0,0.89,0.42,-0.01,-1.0,1.16,-3.35
2024-12-06 12:46:51.531,7.65,476.0,0.9,0.42,-0.01,-1.18,0.98,-3.29
2024-12-06 12:46:51.563,6.52,485.0,0.9,0.42,-0.01,-1.3,0.8,-3.22
2024-12-06 12:46:51.566,7.42,487.0,0.9,0.43,-0.02,-1.06,-0.06,-3.22
2024-12-06 12:46:51.569,10.35,491.0,0.9,0.43,-0.03,-0.69,0.0,-3.22
2024-12-06 12:46:51.577,6.07,475.0,0.91,0.44,-0.02,-0.39,-0.24,-3.1
2024-12-06 12:46:51.585,2.92,481.0,0.91,0.44,-0.02,-0.08,-0.36,-2.92
2024-12-06 12:46:51.600,4.28,483.0,0.91,0.44,-0.02,0.16,-0.18,-2.74
2024-12-06 12:46:51.604,6.75,478.0,0.91,0.45,-0.02,0.34,0.07,-2.43
2024-12-06 12:46:51.619,9.9,475.0,0.91,0.46,-0.02,0.34,0.07,-2.43
2024-12-06 12:46:51.622,6.07,488.0,0.91,0.46,-0.02,0.47,0.37,-1.94
2024-12-06 12:46:51.625,9.68,495.0,0.91,0.46,-0.02,0.65,0.62,-1.33
2024-12-06 12:46:51.639,9.68,477.0,0.91,0.45,-0.02,0.77,0.74,-0.6
2024-12-06 12:46:51.644,7.65,482.0,0.91,0.45,-0.02,0.77,0.8,-0.17
2024-12-06 12:46:51.646,7.88,487.0,0.91,0.44,-0.02,0.77,0.8,-0.17
2024-12-06 12:46:51.658,5.4,502.0,0.9,0.43,-0.02,0.77,0.55,0.01
2024-12-06 12:46:51.673,4.72,484.0,0.9,0.43,-0.01,0.77,0.19,-0.05
2024-12-06 12:46:51.681,10.8,472.0,0.9,0.43,-0.02,0.83,-0.06,-0.23
2024-12-06 12:46:51.684,8.55,489.0,0.9,0.43,-0.02,0.95,-0.18,-0.42
2024-12-06 12:46:51.686,10.8,475.0,0.9,0.44,-0.01,1.08,-0.3,-0.48
2024-12-06 12:46:51.692,5.85,476.0,0.9,0.45,-0.01,1.08,-0.3,-0.48
2024-12-06 12:46:51.705,4.28,477.0,0.9,0.45,-0.01,1.26,-0.18,-0.42
2024-12-06 12:46:51.710,5.85,475.0,0.9,0.45,-0.02,1.44,0.07,-0.29
2024-12-06 12:46:51.716,8.1,476.0,0.89,0.45,-0.02,1.69,0.0,-0.17
2024-12-06 12:46:51.725,9.22,477.0,0.89,0.45,-0.02,1.87,0.0,-0.17
2024-12-06 12:46:51.733,10.12,481.0,0.89,0.44,-0.02,1.87,0.0,-0.17
2024-12-06 12:46:51.740,10.8,461.0,0.89,0.44,-0.01,1.62,0.74,-0.17
2024-12-06 12:46:51.749,11.25,473.0,0.9,0.45,0.0,1.32,0.68,0.07
2024-12-06 12:46:51.757,4.72,480.0,0.9,0.45,0.01,1.01,0.43,0.68
2024-12-06 12:46:51.764,6.3,484.0,0.9,0.45,0.01,0.47,0.8,1.23
2024-12-06 12:46:51.866,6.52,478.0,0.88,0.45,-0.02,2.24,3.24,2.7
2024-12-06 12:46:51.869,8.55,483.0,0.89,0.45,-0.02,2.24,3.67,3.06
2024-12-06 12:46:51.876,8.55,484.0,0.89,0.44,-0.02,2.3,3.06,3.49
2024-12-06 12:46:51.884,7.65,470.0,0.89,0.44,-0.02,2.3,2.87,3.73
2024-12-06 12:46:51.894,6.97,459.0,0.9,0.43,-0.02,2.3,2.87,3.73
2024-12-06 12:46:51.901,8.32,480.0,0.9,0.42,-0.02,2.17,1.96,3.92
2024-12-06 12:46:51.910,5.4,454.0,0.91,0.41,-0.01,1.81,0.92,3.86
2024-12-06 12:46:51.916,7.88,466.0,0.91,0.4,-0.01,1.93,0.19,3.79
2024-12-06 12:46:51.933,10.57,482.0,0.89,0.4,-0.0,1.62,-1.28,3.25
2024-12-06 12:46:51.943,7.65,483.0,0.89,0.4,-0.0,1.08,-1.22,2.15
2024-12-06 12:46:51.947,8.77,483.0,0.88,0.4,0.01,1.08,-1.22,2.15
2024-12-06 12:46:51.951,4.5,486.0,0.88,0.4,0.01,1.32,-2.07,1.23
2024-12-06 12:46:51.954,10.8,464.0,0.88,0.4,0.0,1.5,-1.22,0.38
2024-12-06 12:46:51.964,11.7,469.0,0.88,0.41,0.01,1.44,-0.54,-0.17
2024-12-06 12:46:51.969,5.85,476.0,0.88,0.41,0.01,1.62,-0.85,-0.23
2024-12-06 12:46:51.977,4.72,475.0,0.89,0.42,0.01,1.5,0.0,-0.17
2024-12-06 12:46:51.986,8.1,471.0,0.88,0.42,0.0,1.5,0.0,-0.17
2024-12-06 12:46:52.0,8.77,463.0,0.88,0.41,-0.01,1.75,0.0,-0.42
2024-12-06 12:46:52.2,11.02,471.0,0.87,0.41,-0.03,1.87,0.31,-0.78
2024-12-06 12:46:52.8,10.12,469.0,0.88,0.41,-0.03,1.69,0.98,-1.21
2024-12-06 12:46:52.53,8.32,484.0,0.91,0.43,-0.01,1.56,0.13,0.44
2024-12-06 12:46:52.58,9.0,465.0,0.91,0.43,-0.01,1.56,-0.36,0.99
2024-12-06 12:46:52.61,7.65,460.0,0.91,0.43,-0.02,1.56,-0.36,0.99
2024-12-06 12:46:52.70,10.35,467.0,0.9,0.43,-0.02,1.69,-0.24,0.8
2024-12-06 12:46:52.77,7.88,466.0,0.9,0.43,-0.02,1.62,-0.18,0.25
2024-12-06 12:46:52.89,4.95,481.0,0.89,0.42,-0.02,1.87,-0.24,-0.29
2024-12-06 12:46:52.93,6.3,471.0,0.89,0.42,-0.02,2.11,0.49,-0.97
2024-12-06 12:46:52.103,9.9,486.0,0.89,0.42,-0.02,2.3,0.92,-1.39
2024-12-06 12:46:52.108,5.85,472.0,0.89,0.43,-0.01,2.3,0.92,-1.39
2024-12-06 12:46:52.122,10.57,460.0,0.89,0.43,-0.01,2.54,0.74,-1.45
2024-12-06 12:46:52.126,4.5,452.0,0.9,0.43,-0.02,2.85,1.16,-1.45
2024-12-06 12:46:52.133,9.68,476.0,0.91,0.43,-0.01,2.91,0.86,-0.91
2024-12-06 12:46:52.141,8.32,472.0,0.92,0.43,-0.0,2.78,-0.3,-0.11
2024-12-06 12:46:52.151,9.45,481.0,0.92,0.43,-0.0,2.36,-0.42,0.62
2024-12-06 12:46:52.156,8.77,466.0,0.93,0.42,-0.01,2.36,-0.42,0.62
2024-12-06 12:46:52.164,10.35,468.0,0.92,0.42,-0.0,1.87,-1.22,1.29
2024-12-06 12:46:52.176,6.75,462.0,0.91,0.42,-0.0,1.2,-1.64,1.29
2024-12-06 12:46:52.179,8.1,469.0,0.9,0.43,-0.0,0.83,-1.46,0.99
2024-12-06 12:46:52.187,10.57,464.0,0.9,0.43,-0.0,1.08,-1.7,0.62
2024-12-06 12:46:52.197,8.77,473.0,0.9,0.43,-0.01,1.62,-1.28,0.38
2024-12-06 12:46:52.209,8.77,469.0,0.89,0.43,-0.02,1.62,-1.28,0.38
2024-12-06 12:46:52.211,8.32,468.0,0.9,0.42,-0.01,1.87,-0.73,0.32
2024-12-06 12:46:52.245,9.0,474.0,0.89,0.42,0.0,2.05,-0.67,0.5
2024-12-06 12:46:52.248,7.2,477.0,0.88,0.42,-0.01,2.48,1.41,0.5
2024-12-06 12:46:52.252,4.95,482.0,0.88,0.43,-0.01,2.54,1.53,0.62
2024-12-06 12:46:52.256,9.9,483.0,0.88,0.43,-0.02,2.66,1.59,0.68
2024-12-06 12:46:52.272,8.1,472.0,0.88,0.42,-0.03,2.91,1.35,0.44
2024-12-06 12:46:52.274,2.7,481.0,0.88,0.42,-0.03,3.09,1.23,0.13
2024-12-06 12:46:52.280,9.9,486.0,0.89,0.41,-0.03,3.15,0.49,-0.05
2024-12-06 12:46:52.288,10.12,477.0,0.89,0.41,-0.03,3.15,0.49,-0.05
2024-12-06 12:46:52.300,8.1,482.0,0.9,0.41,-0.03,3.27,0.25,-0.54
2024-12-06 12:46:52.305,6.3,471.0,0.92,0.42,-0.02,3.09,0.62,-0.54
2024-12-06 12:46:52.317,4.05,472.0,0.91,0.43,-0.01,3.09,-0.36,-0.11
2024-12-06 12:46:52.321,5.62,478.0,0.91,0.43,-0.01,3.03,-0.12,0.01
2024-12-06 12:46:52.327,8.55,471.0,0.89,0.44,-0.02,3.03,-0.12,0.01
2024-12-06 12:46:52.334,8.1,471.0,0.89,0.45,-0.02,3.03,1.47,0.13
2024-12-06 12:46:52.343,2.02,468.0,0.91,0.46,-0.01,3.58,1.65,0.99
2024-12-06 12:46:52.349,3.15,477.0,0.94,0.45,-0.02,3.64,1.9,2.57
2024-12-06 12:46:52.358,4.5,481.0,0.96,0.44,-0.02,3.76,2.08,4.77
2024-12-06 12:46:52.366,8.55,469.0,0.96,0.44,-0.02,3.64,1.1,6.85
2024-12-06 12:46:52.373,8.77,482.0,0.96,0.43,-0.03,3.64,1.1,8.01
2024-12-06 12:46:52.397,10.8,470.0,0.9,0.41,-0.02,2.66,-1.22,6.66
2024-12-06 12:46:52.406,9.45,465.0,0.9,0.41,-0.01,2.24,-2.25,5.2
2024-12-06 12:46:52.415,9.68,468.0,0.89,0.42,-0.01,1.99,-3.29,3.86
2024-12-06 12:46:52.423,7.65,486.0,0.89,0.42,-0.0,1.99,-3.29,3.86
2024-12-06 12:46:52.427,10.8,474.0,0.88,0.42,-0.01,1.87,-3.41,2.82
2024-12-06 12:46:52.436,8.32,472.0,0.89,0.41,-0.01,1.93,-2.86,2.27
2024-12-06 12:46:52.471,7.65,479.0,0.87,0.41,0.01,2.11,0.13,3.55
2024-12-06 12:46:52.475,7.42,472.0,0.86,0.41,0.0,1.62,1.1,3.61
2024-12-06 12:46:52.481,4.72,463.0,0.85,0.41,-0.01,1.08,1.96,3.12
2024-12-06 12:46:52.491,10.12,467.0,0.85,0.41,-0.01,0.4,2.69,2.51
2024-12-06 12:46:52.501,9.0,479.0,0.86,0.41,-0.02,-0.08,2.63,2.45
2024-12-06 12:46:52.505,7.65,482.0,0.88,0.41,-0.02,-0.08,2.63,2.45
2024-12-06 12:46:52.512,7.65,486.0,0.9,0.41,-0.03,-0.33,2.02,3.18
2024-12-06 12:46:52.520,2.92,481.0,0.92,0.41,-0.04,-0.51,2.26,4.47
2024-12-06 12:46:52.528,7.88,468.0,0.94,0.42,-0.04,-0.76,1.96,6.18
2024-12-06 12:46:52.538,8.32,496.0,0.94,0.42,-0.04,-1.06,1.16,7.95
2024-12-06 12:46:52.566,6.3,465.0,0.94,0.43,-0.04,-1.06,1.16,8.98
2024-12-06 12:46:52.572,9.9,468.0,0.9,0.41,-0.02,-1.98,-0.18,8.74
2024-12-06 12:46:52.575,9.9,481.0,0.9,0.41,-0.02,-2.16,-0.48,8.19
2024-12-06 12:46:52.584,9.0,473.0,0.9,0.41,-0.01,-2.16,-0.73,7.88
2024-12-06 12:46:52.589,10.8,479.0,0.91,0.4,-0.01,-2.16,-0.73,7.88
2024-12-06 12:46:52.597,11.7,464.0,0.92,0.4,-0.02,-2.1,-0.3,7.82
2024-12-06 12:46:52.606,8.1,473.0,0.93,0.4,-0.01,-1.85,0.13,8.19
2024-12-06 12:46:52.617,9.45,472.0,0.91,0.39,0.0,-1.73,-0.48,8.56
2024-12-06 12:46:52.622,5.85,496.0,0.91,0.39,0.0,-1.55,-3.29,7.46
2024-12-06 12:46:52.631,9.45,467.0,0.86,0.37,0.0,-1.55,-3.29,4.89
2024-12-06 12:46:52.636,8.55,485.0,0.84,0.35,-0.03,-1.43,-3.05,4.89
2024-12-06 12:46:52.645,2.47,481.0,0.86,0.35,-0.02,-1.24,0.62,2.45
2024-12-06 12:46:52.652,10.57,487.0,0.86,0.35,0.0,-1.0,-1.03,0.19
2024-12-06 12:46:52.666,10.57,465.0,0.86,0.34,-0.01,-0.88,-2.44,-2.43
2024-12-06 12:46:52.692,8.55,469.0,0.85,0.33,-0.02,0.83,-2.25,-9.39
2024-12-06 12:46:52.701,13.27,475.0,0.86,0.33,-0.04,1.69,-1.09,-12.2
2024-12-06 12:46:52.709,10.8,479.0,0.86,0.33,-0.04,1.99,0.98,-13.23
2024-12-06 12:46:52.713,15.75,478.0,0.9,0.36,-0.01,1.99,0.98,-13.23
2024-12-06 12:46:52.723,11.7,498.0,0.89,0.37,0.0,2.66,-3.72,-13.17
2024-12-06 12:46:52.729,14.62,474.0,0.87,0.37,-0.04,2.78,-5.98,-14.21
2024-12-06 12:46:52.737,18.23,483.0,0.87,0.38,-0.03,2.42,-0.97,-15.31
2024-12-06 12:46:52.746,19.12,473.0,0.85,0.39,-0.01,2.48,-3.29,-16.84
2024-12-06 12:46:52.753,19.8,486.0,0.85,0.39,-0.01,1.5,-1.28,-18.48
2024-12-06 12:46:52.765,17.77,469.0,0.86,0.4,-0.03,2.05,-0.3,-19.4
2024-12-06 12:46:52.769,23.62,472.0,0.87,0.4,-0.02,2.05,-0.3,-19.4
2024-12-06 12:46:52.777,19.12,489.0,0.88,0.4,-0.03,2.36,-2.19,-20.13
2024-12-06 12:46:52.788,22.95,480.0,0.9,0.4,-0.02,2.05,-0.54,-19.76
2024-12-06 12:46:52.792,23.4,487.0,0.91,0.41,-0.03,2.97,-1.34,-19.03
2024-12-06 12:46:52.801,27.9,469.0,0.91,0.41,-0.03,2.54,-0.06,-17.93
2024-12-06 12:46:52.808,21.82,487.0,0.92,0.41,-0.03,4.01,-0.06,-17.38
2024-12-06 12:46:52.951,39.83,511.0,0.93,0.46,-0.0,-1.85,-4.76,-8.47
2024-12-06 12:46:52.954,38.92,494.0,0.91,0.46,-0.02,-2.22,-6.04,-7.25
2024-12-06 12:46:52.961,38.02,479.0,0.91,0.46,-0.02,-3.26,-3.72,-6.76
2024-12-06 12:46:52.969,39.6,496.0,0.9,0.46,-0.02,-3.44,-3.23,-6.03
2024-12-06 12:46:52.977,40.05,474.0,0.89,0.48,-0.01,-3.44,-3.23,-6.03
2024-12-06 12:46:52.984,43.65,468.0,0.88,0.48,-0.02,-3.62,-3.6,-5.48
2024-12-06 12:46:52.993,41.17,487.0,0.87,0.47,-0.03,-3.99,-2.56,-5.79
2024-12-06 12:46:53.0,39.83,493.0,0.9,0.48,-0.01,-4.48,-2.62,-5.42
2024-12-06 12:46:53.9,45.0,493.0,0.91,0.47,-0.02,-4.42,-5.18,-4.02
2024-12-06 12:46:53.19,39.83,482.0,0.91,0.47,-0.02,-4.84,-4.51,-3.41
2024-12-06 12:46:53.27,42.97,498.0,0.88,0.46,-0.05,-4.84,-4.51,-3.41
2024-12-06 12:46:53.33,41.85,479.0,0.87,0.45,-0.03,-5.15,-4.15,-3.59
2024-12-06 12:46:53.42,41.85,477.0,0.87,0.45,-0.02,-5.39,-4.39,-3.83
2024-12-06 12:46:53.48,46.12,490.0,0.89,0.48,-0.02,-6.31,-5.18,-3.9
2024-12-06 12:46:53.77,44.77,473.0,0.87,0.48,-0.02,-6.31,-5.43,-2.61
2024-12-06 12:46:53.80,47.47,476.0,0.86,0.46,-0.03,-6.25,-5.43,-2.8
2024-12-06 12:46:53.88,47.92,467.0,0.87,0.45,-0.03,-6.43,-4.57,-2.98
2024-12-06 12:46:53.95,47.47,475.0,0.89,0.46,-0.03,-6.49,-4.82,-2.55
2024-12-06 12:46:53.105,43.2,471.0,0.89,0.46,-0.03,-6.68,-6.53,-1.82
2024-12-06 12:46:53.114,48.15,473.0,0.89,0.48,-0.02,-7.1,-7.26,-1.88
2024-12-06 12:46:53.118,45.67,490.0,0.86,0.46,-0.02,-7.1,-7.26,-1.88
2024-12-06 12:46:53.151,47.25,480.0,0.89,0.47,-0.03,-7.29,-4.76,-3.9
2024-12-06 12:46:53.155,52.65,475.0,0.89,0.47,-0.03,-7.23,-6.34,-3.29
2024-12-06 12:46:53.158,54.45,476.0,0.89,0.47,-0.03,-7.23,-6.34,-3.29
2024-12-06 12:46:53.164,45.9,473.0,0.88,0.45,-0.06,-6.86,-6.95,-3.65
2024-12-06 12:46:53.176,51.97,475.0,0.89,0.45,-0.06,-6.61,-6.34,-3.9
2024-12-06 12:46:53.186,49.72,483.0,0.9,0.47,-0.05,-6.19,-8.3,-3.29
2024-12-06 12:46:53.192,50.85,479.0,0.9,0.47,-0.05,-6.25,-10.31,-3.59
2024-12-06 12:46:53.225,53.55,496.0,0.9,0.48,-0.04,-6.25,-11.78,-5.97
2024-12-06 12:46:53.230,57.82,491.0,0.88,0.47,-0.05,-5.76,-12.87,-6.03
2024-12-06 12:46:53.234,56.92,462.0,0.88,0.47,-0.05,-5.94,-10.37,-7.13
2024-12-06 12:46:53.268,54.0,480.0,0.84,0.46,-0.06,-4.84,-12.26,-6.03
2024-12-06 12:46:53.273,56.47,500.0,0.84,0.46,-0.06,-5.33,-10.68,-6.34
2024-12-06 12:46:53.289,60.07,500.0,0.86,0.47,-0.05,-5.58,-11.9,-5.6
2024-12-06 12:46:53.292,63.45,511.0,0.88,0.48,-0.06,-5.58,-11.9,-5.6
2024-12-06 12:46:53.302,60.07,503.0,0.87,0.47,-0.05,-5.46,-12.45,-5.06
2024-12-06 12:46:53.308,63.9,484.0,0.89,0.47,-0.05,-5.76,-11.23,-4.14
2024-12-06 12:46:53.313,61.42,488.0,0.89,0.49,-0.06,-5.76,-10.62,-2.43
2024-12-06 12:46:53.320,64.35,486.0,0.89,0.49,-0.06,-5.52,-11.23,-1.94
2024-12-06 12:46:53.330,60.97,512.0,0.85,0.49,-0.06,-5.15,-9.82,-2.55
2024-12-06 12:46:53.342,63.9,508.0,0.85,0.48,-0.07,-5.15,-9.82,-2.55
2024-12-06 12:46:53.346,60.52,497.0,0.88,0.52,-0.03,-4.97,-10.07,-2.37
2024-12-06 12:46:53.351,61.42,498.0,0.89,0.55,-0.04,-4.84,-12.51,-0.17
2024-12-06 12:46:53.360,69.07,532.0,0.85,0.52,-0.07,-5.46,-10.01,0.44
2024-12-06 12:46:53.371,64.57,527.0,0.85,0.49,-0.06,-5.58,-7.62,-0.6
2024-12-06 12:46:53.375,62.55,510.0,0.83,0.49,-0.06,-5.15,-6.53,-0.84
2024-12-06 12:46:53.391,66.38,504.0,0.85,0.49,-0.08,-5.15,-6.53,-0.84
2024-12-06 12:46:53.393,64.35,513.0,0.87,0.5,-0.09,-5.09,-6.22,0.13
2024-12-06 12:46:53.398,67.5,511.0,0.87,0.5,-0.08,-4.97,-7.38,1.17
2024-12-06 12:46:53.407,66.82,513.0,0.86,0.48,-0.07,-5.09,-7.26,1.48
2024-12-06 12:46:53.440,69.53,520.0,0.82,0.5,-0.06,-5.58,-3.96,0.62
2024-12-06 12:46:53.446,67.95,529.0,0.84,0.5,-0.06,-5.21,-2.74,0.74
2024-12-06 12:46:53.455,67.5,520.0,0.85,0.49,-0.08,-4.72,-0.54,0.68
2024-12-06 12:46:53.461,64.57,528.0,0.85,0.49,-0.08,-3.87,0.0,0.74
2024-12-06 12:46:53.494,66.82,516.0,0.85,0.47,-0.07,-4.05,-1.83,1.05
2024-12-06 12:46:53.498,69.07,537.0,0.85,0.47,-0.07,-3.81,-2.92,-0.11
2024-12-06 12:46:53.509,69.53,536.0,0.86,0.47,-0.08,-3.87,-3.35,-0.66
2024-12-06 12:46:53.514,69.75,514.0,0.87,0.47,-0.1,-3.87,-3.35,-0.66
2024-12-06 12:46:53.522,69.07,517.0,0.88,0.48,-0.09,-3.62,-4.02,-0.84
2024-12-06 12:46:53.533,72.0,535.0,0.88,0.47,-0.08,-3.32,-5.12,-1.03
2024-12-06 12:46:53.538,71.55,536.0,0.89,0.47,-0.07,-2.77,-5.61,-1.33
2024-12-06 12:46:53.546,71.78,534.0,0.89,0.47,-0.07,-2.46,-5.98,-1.39
2024-12-06 12:46:53.561,67.05,541.0,0.88,0.48,-0.07,-2.16,-5.55,-1.27
2024-12-06 12:46:53.563,68.4,526.0,0.87,0.48,-0.07,-2.16,-5.55,-1.27
2024-12-06 12:46:53.598,68.4,531.0,0.86,0.46,-0.07,-1.73,-5.18,-1.45
2024-12-06 12:46:53.605,72.45,531.0,0.87,0.48,-0.08,-1.43,-5.18,-1.82
2024-12-06 12:46:53.609,69.75,532.0,0.87,0.49,-0.08,-1.3,-4.69,-0.97
2024-12-06 12:46:53.616,70.42,538.0,0.87,0.49,-0.07,-1.0,-4.45,-0.17
2024-12-06 12:46:53.624,74.47,530.0,0.88,0.48,-0.07,-0.88,-4.69,0.38
2024-12-06 12:46:53.631,72.22,538.0,0.88,0.48,-0.07,-1.37,-4.39,1.11
2024-12-06 12:46:53.639,74.47,549.0,0.88,0.47,-0.07,-1.55,-4.63,1.84
2024-12-06 12:46:53.647,71.55,548.0,0.87,0.46,-0.08,-1.55,-4.63,1.84
2024-12-06 12:46:53.656,70.65,533.0,0.88,0.44,-0.07,-1.98,-4.08,2.15
2024-12-06 12:46:53.664,74.92,565.0,0.89,0.45,-0.07,-2.22,-3.96,2.21
2024-12-06 12:46:53.670,75.15,539.0,0.89,0.46,-0.06,-2.46,-3.72,2.39
2024-12-06 12:46:53.678,72.0,545.0,0.89,0.46,-0.06,-2.4,-3.54,2.51
2024-12-06 12:46:53.718,75.38,569.0,0.87,0.49,-0.08,-1.79,-1.58,2.51
2024-12-06 12:46:53.721,76.05,550.0,0.87,0.48,-0.08,-1.61,-1.89,3.06
2024-12-06 12:46:53.726,75.15,553.0,0.87,0.48,-0.08,-1.55,-1.64,3.43
2024-12-06 12:46:53.734,73.35,546.0,0.87,0.45,-0.09,-1.55,-1.64,3.43
2024-12-06 12:46:53.741,75.82,555.0,0.87,0.43,-0.09,-1.3,-2.13,3.49
2024-12-06 12:46:53.749,77.62,574.0,0.87,0.43,-0.09,-1.43,-2.38,2.94
2024-12-06 12:46:53.755,77.62,568.0,0.89,0.45,-0.08,-1.92,-2.5,2.63
2024-12-06 12:46:53.768,74.7,570.0,0.89,0.45,-0.07,-2.04,-3.05,2.76
2024-12-06 12:46:53.772,75.6,574.0,0.88,0.45,-0.07,-1.79,-2.68,2.45
2024-12-06 12:46:53.781,75.6,569.0,0.87,0.45,-0.07,-1.79,-1.52,1.96
2024-12-06 12:46:53.797,77.62,586.0,0.85,0.46,-0.07,-1.61,-1.52,1.96
2024-12-06 12:46:53.846,78.97,579.0,0.83,0.47,-0.08,-1.24,0.98,1.17
2024-12-06 12:46:53.849,79.65,583.0,0.85,0.45,-0.09,-1.67,0.31,0.86
2024-12-06 12:46:53.954,79.88,575.0,0.84,0.46,-0.09,-1.73,0.43,0.44
2024-12-06 12:46:53.962,79.42,578.0,0.89,0.46,-0.08,-0.21,-0.48,-3.29
2024-12-06 12:46:53.971,78.07,589.0,0.89,0.46,-0.08,-0.15,-1.22,-3.41
2024-12-06 12:46:53.978,81.67,569.0,0.89,0.47,-0.08,-0.15,-1.22,-3.59
2024-12-06 12:46:53.986,80.32,580.0,0.88,0.48,-0.07,-0.08,-1.46,-3.59
2024-12-06 12:46:53.994,75.15,577.0,0.88,0.48,-0.08,-0.02,-1.7,-3.71
2024-12-06 12:46:54.3,80.78,558.0,0.88,0.49,-0.08,0.1,-1.95,-3.77
2024-12-06 12:46:54.12,79.65,574.0,0.87,0.49,-0.08,0.1,-2.19,-3.77
2024-12-06 12:46:54.18,82.35,555.0,0.87,0.49,-0.08,0.22,-2.31,-3.41
2024-12-06 12:46:54.50,75.38,582.0,0.88,0.48,-0.07,-0.57,-3.05,-0.91
2024-12-06 12:46:54.56,82.12,576.0,0.88,0.48,-0.07,-0.94,-2.99,-0.23
2024-12-06 12:46:54.66,76.72,584.0,0.88,0.48,-0.07,-1.0,-2.8,0.25
2024-12-06 12:46:54.78,80.32,597.0,0.88,0.48,-0.07,-1.0,-2.8,0.44
2024-12-06 12:46:54.86,78.3,561.0,0.87,0.48,-0.07,-1.0,-2.19,0.44
2024-12-06 12:46:54.89,80.55,576.0,0.87,0.49,-0.06,-1.06,-1.34,0.44
2024-12-06 12:46:54.97,75.6,577.0,0.87,0.48,-0.06,-0.88,-0.85,0.32
2024-12-06 12:46:54.109,76.5,593.0,0.87,0.48,-0.09,-0.51,-0.91,0.07
2024-12-06 12:46:54.114,76.72,588.0,0.88,0.47,-0.06,-0.33,-1.28,-0.23
2024-12-06 12:46:54.119,79.65,573.0,0.88,0.46,-0.07,-0.33,-1.28,-0.23
2024-12-06 12:46:54.131,81.0,582.0,0.88,0.46,-0.08,-0.57,-1.4,-0.48
2024-12-06 12:46:54.138,80.1,585.0,0.88,0.46,-0.08,-0.69,-1.46,-0.66
2024-12-06 12:46:54.148,76.72,580.0,0.87,0.46,-0.08,-0.45,-1.52,-0.84
2024-12-06 12:46:54.151,79.65,560.0,0.87,0.46,-0.08,-0.02,-1.28,-1.27
2024-12-06 12:46:54.160,78.97,573.0,0.87,0.46,-0.09,0.47,-0.42,-1.64
2024-12-06 12:46:54.167,78.07,573.0,0.86,0.46,-0.08,0.47,-0.42,-1.64
2024-12-06 12:46:54.182,82.12,572.0,0.85,0.46,-0.07,1.87,0.43,-2.92
2024-12-06 12:46:54.189,80.32,589.0,0.85,0.46,-0.07,2.17,0.86,-3.41
2024-12-06 12:46:54.202,78.75,567.0,0.85,0.46,-0.07,2.24,0.8,-3.77
2024-12-06 12:46:54.205,81.22,574.0,0.85,0.46,-0.08,2.24,0.8,-3.77
2024-12-06 12:46:54.212,79.88,622.0,0.86,0.47,-0.08,2.05,0.8,-3.96
2024-12-06 12:46:54.221,82.35,569.0,0.86,0.47,-0.09,1.75,0.62,-3.9
2024-12-06 12:46:54.235,80.1,591.0,0.86,0.47,-0.09,1.69,0.25,-3.71
2024-12-06 12:46:54.240,70.42,594.0,0.86,0.47,-0.1,1.69,-0.12,-3.35
2024-12-06 12:46:54.243,81.0,585.0,0.86,0.47,-0.1,1.56,-0.24,-3.04
2024-12-06 12:46:54.278,79.42,568.0,0.87,0.47,-0.08,1.38,0.13,-1.94
2024-12-06 12:46:54.281,79.65,582.0,0.87,0.47,-0.08,1.26,0.37,-1.76
2024-12-06 12:46:54.292,76.72,588.0,0.87,0.47,-0.08,1.26,0.37,-1.64
2024-12-06 12:46:54.299,82.12,587.0,0.88,0.46,-0.08,1.2,0.62,-1.64
2024-12-06 12:46:54.331,81.9,595.0,0.87,0.47,-0.08,1.14,0.62,-1.58
2024-12-06 12:46:54.334,80.32,585.0,0.87,0.47,-0.08,0.83,0.86,-1.94
2024-12-06 12:46:54.345,76.28,571.0,0.87,0.47,-0.08,0.71,1.1,-1.94
2024-12-06 12:46:54.355,76.05,576.0,0.86,0.47,-0.08,0.77,0.8,-1.82
2024-12-06 12:46:54.358,79.88,576.0,0.86,0.47,-0.09,0.59,0.55,-1.82
2024-12-06 12:46:54.367,79.65,564.0,0.86,0.47,-0.09,0.28,0.37,-1.76
2024-12-06 12:46:54.375,80.55,570.0,0.86,0.47,-0.08,0.28,0.07,-1.7
2024-12-06 12:46:54.383,80.32,573.0,0.86,0.47,-0.08,-0.02,0.07,-1.7
2024-12-06 12:46:54.397,80.78,575.0,0.86,0.47,-0.08,-0.21,-0.18,-1.7
2024-12-06 12:46:54.401,78.3,576.0,0.86,0.47,-0.08,-0.33,-0.06,-1.76
2024-12-06 12:46:54.413,74.92,570.0,0.86,0.47,-0.08,-0.21,0.0,-1.82
2024-12-06 12:46:54.416,79.42,573.0,0.86,0.47,-0.08,-0.15,0.07,-1.94
2024-12-06 12:46:54.422,81.0,583.0,0.86,0.47,-0.08,-0.15,0.07,-1.94
2024-12-06 12:46:54.431,80.32,590.0,0.85,0.48,-0.08,-0.08,0.31,-2.06
2024-12-06 12:46:54.437,76.5,589.0,0.85,0.48,-0.08,0.04,0.49,-2.19
2024-12-06 12:46:54.449,79.88,585.0,0.85,0.48,-0.08,0.16,0.49,-2.25
2024-12-06 12:46:54.453,77.62,593.0,0.85,0.48,-0.08,0.1,0.49,-2.37
2024-12-06 12:46:54.461,76.05,562.0,0.86,0.48,-0.08,0.04,0.25,-2.43
2024-12-06 12:46:54.468,79.88,601.0,0.86,0.48,-0.08,0.04,0.25,-2.68
2024-12-06 12:46:54.508,75.82,576.0,0.86,0.48,-0.09,-0.02,-0.91,-3.29
2024-12-06 12:46:54.521,79.88,568.0,0.86,0.48,-0.08,-0.02,-0.91,-3.29
2024-12-06 12:46:54.530,81.45,576.0,0.86,0.49,-0.09,-0.02,-0.67,-3.35
2024-12-06 12:46:54.535,83.03,567.0,0.86,0.49,-0.09,-0.02,-0.42,-3.22
2024-12-06 12:46:54.539,77.17,590.0,0.86,0.49,-0.09,0.04,-0.24,-2.98
2024-12-06 12:46:54.545,81.0,578.0,0.86,0.48,-0.09,-0.02,-0.12,-2.74
2024-12-06 12:46:54.553,78.97,587.0,0.86,0.48,-0.08,-0.02,-0.12,-2.74
2024-12-06 12:46:54.561,80.78,591.0,0.87,0.47,-0.08,-0.08,0.13,-2.37
2024-12-06 12:46:54.568,72.45,590.0,0.87,0.47,-0.08,-0.02,0.13,-2.06
2024-12-06 12:46:54.581,82.57,577.0,0.88,0.47,-0.08,0.04,0.19,-1.7
2024-12-06 12:46:54.584,79.42,580.0,0.88,0.47,-0.08,0.22,-0.18,-1.45
2024-12-06 12:46:54.596,76.95,593.0,0.88,0.47,-0.08,0.28,-0.3,-1.27
2024-12-06 12:46:54.599,82.35,588.0,0.88,0.47,-0.09,0.28,-0.3,-1.27
2024-12-06 12:46:54.608,80.32,577.0,0.88,0.48,-0.09,0.34,-0.48,-1.09
2024-12-06 12:46:54.616,79.88,585.0,0.88,0.48,-0.09,0.34,-0.61,-0.97
2024-12-06 12:46:54.624,80.55,584.0,0.87,0.48,-0.08,0.28,-0.67,-1.03
2024-12-06 12:46:54.634,82.35,582.0,0.87,0.48,-0.08,0.22,-0.36,-0.91
2024-12-06 12:46:54.651,79.65,611.0,0.87,0.48,-0.08,0.34,-0.48,-0.84
2024-12-06 12:46:54.666,81.67,589.0,0.87,0.48,-0.08,0.34,-0.48,-0.84
2024-12-06 12:46:54.668,80.78,601.0,0.85,0.47,-0.08,0.4,-0.24,-0.97
2024-12-06 12:46:54.677,74.92,576.0,0.85,0.47,-0.08,0.34,0.07,-1.03
2024-12-06 12:46:54.688,77.17,600.0,0.85,0.47,-0.08,0.34,0.49,-1.09
2024-12-06 12:46:54.692,78.3,573.0,0.85,0.48,-0.08,0.47,0.55,-1.03
2024-12-06 12:46:54.723,82.35,582.0,0.87,0.5,-0.09,1.01,0.07,-0.42
2024-12-06 12:46:54.725,78.75,588.0,0.87,0.5,-0.09,0.95,-0.3,-0.42
2024-12-06 12:46:54.733,76.72,589.0,0.87,0.49,-0.09,0.95,-0.3,-0.42
2024-12-06 12:46:54.745,77.85,591.0,0.86,0.49,-0.09,0.77,-0.48,-0.48
2024-12-06 12:46:54.747,79.65,581.0,0.87,0.48,-0.09,0.71,-0.85,-0.6
2024-12-06 12:46:54.762,81.0,599.0,0.87,0.48,-0.08,0.83,-1.28,-0.6
2024-12-06 12:46:54.768,80.1,582.0,0.87,0.48,-0.08,0.95,-1.64,-0.66
2024-12-06 12:46:54.773,82.35,573.0,0.87,0.48,-0.08,1.08,-1.46,-0.6
2024-12-06 12:46:54.780,80.1,580.0,0.87,0.49,-0.09,1.08,-1.46,-0.6
2024-12-06 12:46:54.791,80.55,594.0,0.87,0.49,-0.08,1.26,-1.4,-0.48
2024-12-06 12:46:54.795,77.17,586.0,0.87,0.49,-0.08,1.38,-1.64,-0.29
2024-12-06 12:46:54.813,82.8,582.0,0.87,0.49,-0.08,1.26,-1.46,-0.17
2024-12-06 12:46:54.819,80.32,580.0,0.87,0.49,-0.08,1.14,-1.22,-0.23
2024-12-06 12:46:54.825,78.53,585.0,0.86,0.48,-0.08,1.14,-1.15,-0.23
2024-12-06 12:46:54.827,82.12,594.0,0.86,0.47,-0.08,1.14,-1.15,-0.23
2024-12-06 12:46:54.834,75.38,587.0,0.86,0.47,-0.08,1.14,-0.97,-0.29
2024-12-06 12:46:54.842,79.42,587.0,0.86,0.47,-0.08,1.26,-1.09,-0.36
2024-12-06 12:46:54.852,79.88,574.0,0.86,0.47,-0.09,1.32,-1.15,-0.29
2024-12-06 12:46:54.860,75.38,582.0,0.86,0.47,-0.09,1.38,-0.91,-0.23
2024-12-06 12:46:54.871,76.95,594.0,0.86,0.48,-0.09,1.5,-0.61,-0.17
2024-12-06 12:46:54.874,82.35,580.0,0.85,0.48,-0.08,1.5,-0.61,-0.17
2024-12-06 12:46:54.882,79.65,581.0,0.85,0.48,-0.08,1.44,-0.67,-0.29
2024-12-06 12:46:54.895,79.65,584.0,0.85,0.48,-0.08,1.2,-0.24,-0.54
2024-12-06 12:46:54.897,79.88,579.0,0.85,0.48,-0.09,1.01,0.07,-0.72
2024-12-06 12:46:54.910,79.2,594.0,0.85,0.47,-0.09,1.01,0.13,-0.84
2024-12-06 12:46:54.914,83.25,592.0,0.85,0.47,-0.09,1.14,0.43,-0.84
2024-12-06 12:46:55.12,76.72,599.0,0.86,0.48,-0.1,2.78,0.62,-3.53
2024-12-06 12:46:55.19,79.65,573.0,0.85,0.47,-0.09,2.78,0.92,-3.83
2024-12-06 12:46:55.27,79.2,575.0,0.85,0.47,-0.09,2.78,1.04,-4.26
2024-12-06 12:46:55.39,77.17,577.0,0.85,0.46,-0.09,2.78,1.41,-4.75
2024-12-06 12:46:55.48,76.05,553.0,0.85,0.46,-0.1,2.85,1.41,-4.75
2024-12-06 12:46:55.53,79.42,563.0,0.84,0.46,-0.1,2.91,1.96,-5.12
2024-12-06 12:46:55.65,76.05,551.0,0.85,0.47,-0.1,3.09,2.57,-5.24
2024-12-06 12:46:55.68,79.88,559.0,0.85,0.47,-0.1,3.46,2.81,-5.06
2024-12-06 12:46:55.75,80.32,556.0,0.85,0.47,-0.1,3.88,3.24,-4.81
2024-12-06 12:46:55.86,82.57,564.0,0.86,0.48,-0.1,3.88,3.24,-4.63
2024-12-06 12:46:55.96,79.2,567.0,0.86,0.48,-0.09,4.25,3.24,-4.63
2024-12-06 12:46:55.98,81.0,557.0,0.86,0.48,-0.09,4.43,3.18,-4.57
2024-12-06 12:46:55.106,79.88,533.0,0.85,0.48,-0.09,4.31,3.73,-4.99
2024-12-06 12:46:55.114,77.62,537.0,0.85,0.48,-0.08,4.19,3.61,-5.42
2024-12-06 12:46:55.123,75.15,531.0,0.85,0.48,-0.08,3.94,3.73,-5.73
2024-12-06 12:46:55.130,79.88,556.0,0.85,0.48,-0.08,3.88,3.91,-5.97
2024-12-06 12:46:55.139,80.1,535.0,0.86,0.48,-0.08,3.88,3.91,-5.97
2024-12-06 12:46:55.150,81.22,538.0,0.86,0.48,-0.09,4.01,4.03,-6.09
2024-12-06 12:46:55.183,79.42,517.0,0.85,0.49,-0.08,4.55,3.61,-6.34
2024-12-06 12:46:55.191,77.4,536.0,0.85,0.49,-0.08,4.43,4.03,-6.34
2024-12-06 12:46:55.195,80.1,526.0,0.85,0.49,-0.08,4.31,4.34,-6.46
2024-12-06 12:46:55.199,79.88,538.0,0.86,0.49,-0.07,4.31,4.34,-6.46
2024-12-06 12:46:55.207,82.35,526.0,0.86,0.49,-0.07,4.43,3.61,-6.46
2024-12-06 12:46:55.215,76.28,515.0,0.85,0.48,-0.07,4.43,3.36,-6.64
2024-12-06 12:46:55.223,79.42,514.0,0.85,0.48,-0.09,4.43,3.36,-6.64
2024-12-06 12:46:55.233,69.53,523.0,0.86,0.49,-0.09,4.37,3.54,-6.83
2024-12-06 12:46:55.240,77.62,512.0,0.86,0.5,-0.08,4.49,3.61,-6.7
2024-12-06 12:46:55.253,79.42,526.0,0.86,0.51,-0.08,4.68,3.24,-6.34
2024-12-06 12:46:55.261,80.32,500.0,0.86,0.51,-0.08,4.74,3.18,-6.03
2024-12-06 12:46:55.264,79.65,497.0,0.86,0.51,-0.08,4.92,3.18,-5.97
2024-12-06 12:46:55.270,80.1,510.0,0.85,0.51,-0.08,4.92,3.18,-5.97
2024-12-06 12:46:55.280,75.38,509.0,0.85,0.51,-0.08,4.86,3.36,-6.03
2024-12-06 12:46:55.285,77.62,505.0,0.86,0.53,-0.09,4.49,5.01,-5.73
2024-12-06 12:46:55.294,80.78,523.0,0.86,0.56,-0.08,4.13,4.95,-4.69
2024-12-06 12:46:55.309,76.72,525.0,0.84,0.58,-0.09,4.19,5.44,-3.22
2024-12-06 12:46:55.312,77.85,497.0,0.84,0.58,-0.09,4.19,6.47,-1.39
2024-12-06 12:46:55.317,80.1,494.0,0.84,0.59,-0.09,4.19,6.47,-1.39
2024-12-06 12:46:55.325,72.45,493.0,0.84,0.58,-0.09,4.37,6.78,0.68
2024-12-06 12:46:55.333,73.8,491.0,0.84,0.56,-0.1,3.94,7.08,2.63
2024-12-06 12:46:55.343,76.05,504.0,0.83,0.55,-0.1,3.09,7.76,4.16
2024-12-06 12:46:55.353,75.82,488.0,0.83,0.55,-0.09,2.36,7.39,5.63
2024-12-06 12:46:55.357,76.05,486.0,0.84,0.55,-0.09,1.93,6.78,6.91
2024-12-06 12:46:55.403,75.15,494.0,0.86,0.49,-0.06,3.27,11.11,8.98
2024-12-06 12:46:55.412,69.07,489.0,0.86,0.49,-0.06,4.13,12.82,8.43
2024-12-06 12:46:55.423,68.62,480.0,0.86,0.5,-0.07,4.25,13.13,8.31
2024-12-06 12:46:55.426,68.85,476.0,0.86,0.47,-0.07,4.13,11.6,8.07
2024-12-06 12:46:55.439,70.2,475.0,0.86,0.47,-0.08,4.62,10.99,7.33
2024-12-06 12:46:55.446,69.53,516.0,0.87,0.46,-0.08,4.98,11.17,7.15
2024-12-06 12:46:55.450,65.25,483.0,0.89,0.49,-0.07,4.98,11.17,7.15
2024-12-06 12:46:55.459,68.17,473.0,0.88,0.48,-0.08,5.29,9.77,7.33
2024-12-06 12:46:55.466,68.17,473.0,0.88,0.45,-0.07,5.1,10.87,6.36
2024-12-06 12:46:55.474,64.12,465.0,0.89,0.48,-0.06,4.92,7.21,5.87
2024-12-06 12:46:55.482,66.6,474.0,0.88,0.48,-0.09,4.25,4.09,5.63
2024-12-06 12:46:55.493,65.25,492.0,0.88,0.48,-0.09,3.76,3.91,4.47
2024-12-06 12:46:55.500,61.88,467.0,0.86,0.44,-0.08,4.07,4.4,3.18
2024-12-06 12:46:55.507,65.92,510.0,0.87,0.43,-0.08,4.07,4.4,3.18
2024-12-06 12:46:55.514,63.9,471.0,0.87,0.46,-0.07,4.13,4.52,2.76
2024-12-06 12:46:55.522,56.47,486.0,0.87,0.47,-0.06,4.25,3.18,3.0
2024-12-06 12:46:55.530,63.22,483.0,0.87,0.45,-0.05,4.62,2.75,2.94
2024-12-06 12:46:55.541,56.25,485.0,0.87,0.45,-0.05,4.92,2.87,2.88
2024-12-06 12:46:55.545,62.55,478.0,0.86,0.46,-0.05,4.98,2.93,3.25
2024-12-06 12:46:55.553,60.07,498.0,0.86,0.47,-0.06,4.98,2.93,3.25
2024-12-06 12:46:55.561,58.05,472.0,0.86,0.47,-0.07,4.8,4.83,3.55
2024-12-06 12:46:55.572,63.45,474.0,0.86,0.47,-0.06,4.98,4.58,3.79
2024-12-06 12:46:55.578,58.95,485.0,0.86,0.45,-0.06,4.86,3.97,3.43
2024-12-06 12:46:55.586,62.55,473.0,0.87,0.45,-0.06,4.19,4.28,2.82
2024-12-06 12:46:55.594,58.95,486.0,0.87,0.45,-0.06,3.64,3.24,2.94
2024-12-06 12:46:55.635,55.35,466.0,0.89,0.47,-0.05,3.64,2.32,3.25
2024-12-06 12:46:55.637,61.42,492.0,0.86,0.44,-0.08,2.85,5.25,1.6
2024-12-06 12:46:55.642,56.02,474.0,0.88,0.45,-0.06,2.85,2.51,2.76
2024-12-06 12:46:55.649,57.15,470.0,0.9,0.48,-0.03,3.03,2.51,2.76
2024-12-06 12:46:55.660,57.38,484.0,0.89,0.47,-0.04,3.21,0.49,3.98
2024-12-06 12:46:55.665,55.57,475.0,0.86,0.45,-0.06,3.03,2.81,3.61
2024-12-06 12:46:55.670,55.57,487.0,0.85,0.43,-0.06,3.21,5.19,2.82
2024-12-06 12:46:55.678,56.02,467.0,0.85,0.43,-0.06,2.91,6.11,2.76
2024-12-06 12:46:55.686,51.75,475.0,0.87,0.45,-0.06,2.91,6.11,3.92
2024-12-06 12:46:55.697,54.0,480.0,0.89,0.47,-0.05,2.85,4.77,3.92
2024-12-06 12:46:55.711,53.55,471.0,0.89,0.46,-0.04,2.72,4.58,4.95
2024-12-06 12:46:55.713,53.77,464.0,0.87,0.45,-0.05,2.42,5.13,5.08
2024-12-06 12:46:55.722,56.47,478.0,0.87,0.45,-0.06,2.05,5.99,4.77
2024-12-06 12:46:55.728,49.05,467.0,0.86,0.46,-0.06,1.62,6.11,4.89
2024-12-06 12:46:55.732,49.95,459.0,0.87,0.46,-0.06,1.62,6.11,4.89
2024-12-06 12:46:55.741,52.88,477.0,0.89,0.46,-0.05,1.56,5.13,5.26
2024-12-06 12:46:55.753,47.47,469.0,0.89,0.45,-0.05,1.5,3.85,5.56
2024-12-06 12:46:55.757,50.17,480.0,0.88,0.44,-0.06,1.5,3.91,5.2
2024-12-06 12:46:55.764,50.17,486.0,0.88,0.44,-0.06,0.89,5.56,5.14
2024-12-06 12:46:55.772,49.95,477.0,0.89,0.45,-0.05,1.14,3.97,6.3
2024-12-06 12:46:55.780,45.22,467.0,0.91,0.47,-0.03,1.14,3.97,6.3
2024-12-06 12:46:55.787,45.22,485.0,0.88,0.45,-0.05,1.56,3.12,6.85
2024-12-06 12:46:55.797,44.77,465.0,0.85,0.43,-0.06,1.93,4.58,5.5
2024-12-06 12:46:55.810,46.57,465.0,0.88,0.44,-0.05,1.62,6.54,4.65
2024-12-06 12:46:55.813,44.55,473.0,0.88,0.44,-0.05,2.17,5.01,5.2
2024-12-06 12:46:55.820,44.32,480.0,0.91,0.46,-0.04,2.48,3.61,6.11
2024-12-06 12:46:55.853,46.35,481.0,0.89,0.45,-0.05,2.48,3.61,6.11
2024-12-06 12:46:55.855,46.57,502.0,0.9,0.45,-0.02,1.44,5.5,6.48
2024-12-06 12:46:55.858,44.1,478.0,0.9,0.45,-0.02,1.62,4.4,6.42
2024-12-06 12:46:55.865,43.42,488.0,0.87,0.43,-0.05,1.62,4.4,6.42
2024-12-06 12:46:55.873,37.8,466.0,0.86,0.42,-0.07,1.81,5.99,5.38
2024-12-06 12:46:55.880,42.08,484.0,0.9,0.45,-0.06,1.93,5.68,5.26
2024-12-06 12:46:55.889,41.17,469.0,0.9,0.46,-0.07,2.3,3.79,6.05
2024-12-06 12:46:55.896,39.83,476.0,0.9,0.46,-0.07,2.54,4.16,6.24
2024-12-06 12:46:55.904,42.52,471.0,0.89,0.45,-0.07,2.36,4.83,6.66
2024-12-06 12:46:55.912,36.9,468.0,0.91,0.46,-0.06,2.36,4.83,6.66
2024-12-06 12:46:55.925,41.4,465.0,0.91,0.46,-0.05,2.36,3.18,7.7
2024-12-06 12:46:55.928,39.38,470.0,0.88,0.44,-0.06,2.36,1.96,7.64
2024-12-06 12:46:55.947,39.15,474.0,0.88,0.43,-0.06,2.17,2.63,6.54
2024-12-06 12:46:55.951,38.02,485.0,0.88,0.43,-0.05,2.24,2.2,6.24
2024-12-06 12:46:55.954,37.12,486.0,0.9,0.45,-0.05,2.42,0.37,6.54
2024-12-06 12:46:56.48,33.08,456.0,0.89,0.45,-0.04,2.42,0.37,6.54
2024-12-06 12:46:56.56,24.75,465.0,0.92,0.44,-0.01,0.1,2.08,5.26
2024-12-06 12:46:56.68,31.72,488.0,0.91,0.43,-0.0,-0.51,1.84,4.77
2024-12-06 12:46:56.73,30.6,466.0,0.87,0.39,-0.02,-0.51,1.84,4.77
2024-12-06 12:46:56.84,25.42,483.0,0.88,0.39,-0.03,-1.12,3.24,3.12
2024-12-06 12:46:56.96,28.35,484.0,0.92,0.41,-0.01,-1.3,1.29,2.82
2024-12-06 12:46:56.100,22.27,463.0,0.92,0.42,-0.03,-1.3,-0.54,3.43
2024-12-06 12:46:56.104,28.12,488.0,0.92,0.41,-0.05,-1.12,-0.06,3.37
2024-12-06 12:46:56.138,23.85,485.0,0.9,0.41,-0.05,-1.06,1.1,3.18
2024-12-06 12:46:56.144,28.8,474.0,0.89,0.4,-0.03,-1.85,-0.36,4.65
2024-12-06 12:46:56.154,22.05,486.0,0.89,0.4,-0.03,-1.67,0.31,3.25
2024-12-06 12:46:56.164,21.38,487.0,0.86,0.38,-0.04,-1.67,0.31,3.25
2024-12-06 12:46:56.166,21.38,480.0,0.88,0.39,-0.06,-1.18,1.77,1.96
2024-12-06 12:46:56.174,24.3,472.0,0.9,0.42,-0.06,-0.51,1.29,2.09
2024-12-06 12:46:56.191,20.7,466.0,0.85,0.42,-0.05,-0.21,2.02,1.84
2024-12-06 12:46:56.196,24.3,491.0,0.87,0.42,-0.05,-0.27,3.3,1.9
2024-12-06 12:46:56.204,22.27,472.0,0.89,0.42,-0.02,-0.27,3.3,1.9
2024-12-06 12:46:56.235,18.23,485.0,0.89,0.42,-0.06,-0.63,3.24,2.94
2024-12-06 12:46:56.241,20.7,472.0,0.88,0.41,-0.06,-0.57,2.81,1.96
2024-12-06 12:46:56.246,17.77,500.0,0.89,0.42,-0.05,-0.57,2.81,1.96
2024-12-06 12:46:56.251,16.2,476.0,0.91,0.43,-0.04,-0.33,2.32,2.15
2024-12-06 12:46:56.259,19.35,477.0,0.91,0.43,-0.03,-0.33,2.08,2.82
2024-12-06 12:46:56.267,15.97,486.0,0.89,0.42,-0.04,-0.33,2.08,3.06
2024-12-06 12:46:56.274,18.45,479.0,0.91,0.41,-0.03,-0.45,3.06,3.0
2024-12-06 12:46:56.310,19.57,460.0,0.88,0.39,-0.04,0.59,4.95,2.7
2024-12-06 12:46:56.312,14.4,479.0,0.89,0.4,-0.04,1.14,6.11,1.78
2024-12-06 12:46:56.322,17.55,473.0,0.89,0.4,-0.04,1.69,5.8,1.96
2024-12-06 12:46:56.330,16.42,475.0,0.92,0.42,-0.03,1.87,4.89,2.76
2024-12-06 12:46:56.342,15.07,470.0,0.93,0.41,-0.01,1.87,4.89,2.76
2024-12-06 12:46:56.344,13.05,491.0,0.92,0.41,-0.03,2.11,3.12,3.31
2024-12-06 12:46:56.367,10.8,478.0,0.91,0.38,-0.02,0.95,3.12,2.63
2024-12-06 12:46:56.374,14.17,474.0,0.91,0.38,-0.02,0.89,2.26,2.21
2024-12-06 12:46:56.377,12.82,469.0,0.91,0.39,-0.04,1.14,2.39,1.72
2024-12-06 12:46:56.385,8.1,487.0,0.9,0.39,-0.05,1.14,2.39,1.72
2024-12-06 12:46:56.391,10.35,469.0,0.88,0.4,-0.03,1.14,1.9,0.93
2024-12-06 12:46:56.400,9.45,483.0,0.88,0.4,-0.02,1.32,1.47,0.32
2024-12-06 12:46:56.407,6.97,473.0,0.89,0.4,-0.0,1.32,1.53,0.19
2024-12-06 12:46:56.416,7.2,477.0,0.89,0.4,-0.0,0.83,1.47,0.62
2024-12-06 12:46:56.424,9.9,485.0,0.9,0.4,0.01,0.34,2.02,1.35
2024-12-06 12:46:56.433,9.22,470.0,0.9,0.4,0.01,0.34,2.02,1.35
2024-12-06 12:46:56.438,4.72,469.0,0.89,0.39,0.0,-0.45,1.77,1.35
2024-12-06 12:46:56.448,4.05,482.0,0.89,0.38,-0.01,-0.88,3.24,1.11
2024-12-06 12:46:56.459,6.3,478.0,0.9,0.39,-0.02,-0.82,3.0,1.11
2024-12-06 12:46:56.462,5.62,489.0,0.9,0.39,-0.02,-0.82,2.93,1.17
2024-12-06 12:46:56.474,2.7,483.0,0.91,0.4,-0.03,-1.06,1.77,1.11
2024-12-06 12:46:56.479,8.1,483.0,0.91,0.39,-0.02,-1.06,1.77,1.11
2024-12-06 12:46:56.493,8.77,538.0,0.91,0.38,-0.02,-1.06,0.8,0.8
2024-12-06 12:46:56.496,6.75,467.0,0.92,0.38,-0.02,-0.94,0.25,0.44
2024-12-06 12:46:56.500,1.57,487.0,0.93,0.39,-0.02,-1.18,-1.4,-0.05
2024-12-06 12:46:56.510,2.25,472.0,0.93,0.39,-0.02,-1.3,-2.07,-0.42
2024-12-06 12:46:56.518,6.97,468.0,0.92,0.38,-0.01,-1.3,-2.07,-0.42
2024-12-06 12:46:56.528,6.52,470.0,0.91,0.37,0.0,-1.55,-2.74,-0.97
2024-12-06 12:46:56.533,6.52,482.0,0.89,0.37,-0.0,-1.43,-3.11,-1.64
2024-12-06 12:46:56.543,1.35,482.0,0.87,0.37,0.01,-1.43,-2.86,-2.25
2024-12-06 12:46:56.548,5.85,465.0,0.87,0.37,0.01,-1.85,-3.05,-3.16
2024-12-06 12:46:56.586,3.6,466.0,0.87,0.37,0.01,-1.92,-0.54,-2.92
2024-12-06 12:46:56.590,8.77,465.0,0.9,0.39,-0.0,-3.01,-0.18,-2.0
2024-12-06 12:46:56.593,1.57,461.0,0.9,0.38,-0.0,-3.5,-2.25,-2.74
2024-12-06 12:46:56.601,5.62,494.0,0.88,0.37,-0.01,-3.5,-2.25,-2.74
2024-12-06 12:46:56.608,4.95,471.0,0.88,0.37,-0.03,-4.05,-2.31,-4.45
2024-12-06 12:46:56.622,6.07,480.0,0.9,0.38,-0.03,-4.23,-2.92,-5.6
2024-12-06 12:46:56.625,6.52,488.0,0.92,0.4,-0.04,-3.87,-2.44,-5.91
2024-12-06 12:46:56.635,0.45,491.0,0.93,0.4,-0.04,-3.32,-1.89,-5.48
2024-12-06 12:46:56.641,2.92,459.0,0.93,0.4,-0.04,-2.71,-1.83,-5.36
2024-12-06 12:46:56.653,6.75,470.0,0.91,0.41,-0.03,-2.71,-0.48,-5.06
2024-12-06 12:46:56.659,7.42,456.0,0.91,0.42,-0.04,-2.1,-0.48,-5.06
2024-12-06 12:46:56.665,7.42,487.0,0.91,0.42,-0.03,-1.18,-0.3,-4.26
2024-12-06 12:46:56.672,2.47,476.0,0.89,0.4,-0.02,-1.0,0.13,-3.96
2024-12-06 12:46:56.680,5.62,482.0,0.9,0.4,-0.01,-1.18,0.8,-3.83
2024-12-06 12:46:56.687,7.42,462.0,0.9,0.4,-0.01,-1.0,0.74,-3.29
2024-12-06 12:46:56.701,6.75,462.0,0.92,0.42,-0.04,-1.0,0.74,-3.29
2024-12-06 12:46:56.707,1.8,469.0,0.93,0.44,-0.05,-1.0,1.16,-2.31
2024-12-06 12:46:56.710,6.52,465.0,0.94,0.44,-0.03,-1.43,0.07,-1.33
2024-12-06 12:46:56.718,1.8,476.0,0.93,0.42,-0.02,-1.98,-1.22,-1.15
2024-12-06 12:46:56.732,1.35,463.0,0.93,0.42,-0.02,-2.22,-1.77,-1.45
2024-12-06 12:46:56.735,2.25,464.0,0.93,0.41,-0.02,-2.46,-2.99,-2.0
2024-12-06 12:46:56.768,3.38,465.0,0.92,0.41,-0.01,-2.46,-2.99,-2.0
2024-12-06 12:46:56.771,7.2,461.0,0.89,0.42,0.01,-2.34,-2.92,-3.41
2024-12-06 12:46:56.773,5.85,474.0,0.89,0.42,0.01,-1.55,-0.91,-3.22
2024-12-06 12:46:56.780,6.75,461.0,0.89,0.43,-0.01,-1.55,-0.91,-3.22
2024-12-06 12:46:56.790,4.05,464.0,0.89,0.44,-0.02,-0.94,-0.36,-2.49
2024-12-06 12:46:56.796,5.85,473.0,0.89,0.42,-0.01,-0.88,-0.3,-1.88
2024-12-06 12:46:56.806,5.85,461.0,0.88,0.4,-0.01,-1.06,-0.54,-1.58
2024-12-06 12:46:56.812,5.4,484.0,0.88,0.39,-0.04,-0.76,-1.58,-1.52
2024-12-06 12:46:56.820,7.88,483.0,0.88,0.39,-0.04,-0.82,-1.95,-1.33
2024-12-06 12:46:56.829,4.72,461.0,0.9,0.38,-0.05,-0.82,-3.29,-0.6
2024-12-06 12:46:56.835,2.02,480.0,0.91,0.39,-0.01,-2.53,-3.29,-0.6
2024-12-06 12:46:56.843,5.62,480.0,0.89,0.4,0.0,-3.75,-6.04,-0.17
2024-12-06 12:46:56.851,8.32,476.0,0.87,0.4,-0.01,-4.78,-5.49,-0.54
2024-12-06 12:46:56.866,7.65,475.0,0.89,0.42,-0.04,-4.97,-4.27,-0.48
2024-12-06 12:46:56.868,6.07,482.0,0.89,0.42,-0.04,-3.14,-2.56,0.5
2024-12-06 12:46:56.875,6.3,484.0,0.91,0.43,-0.08,-3.14,-2.56,0.99
2024-12-06 12:46:56.889,6.3,469.0,0.89,0.43,-0.07,-2.59,-0.85,0.99
2024-12-06 12:46:56.892,1.12,469.0,0.89,0.42,-0.03,-1.98,-0.48,0.86
2024-12-06 12:46:56.906,5.4,483.0,0.9,0.4,-0.03,-1.55,0.55,0.74
2024-12-06 12:46:56.932,2.25,473.0,0.91,0.39,-0.02,-0.88,0.07,0.13
2024-12-06 12:46:56.940,7.2,488.0,0.9,0.39,-0.04,-1.0,-1.4,-1.33
2024-12-06 12:46:56.946,5.4,472.0,0.9,0.39,-0.04,-1.0,-2.19,-1.94
2024-12-06 12:46:56.954,6.97,471.0,0.9,0.39,-0.04,-1.12,-2.13,-2.31
2024-12-06 12:46:56.986,6.3,489.0,0.9,0.39,-0.03,-1.12,-2.13,-2.31
2024-12-06 12:46:56.989,3.82,498.0,0.87,0.39,-0.02,-2.71,-2.19,-3.29
2024-12-06 12:46:56.994,6.3,466.0,0.87,0.39,-0.02,-1.79,-0.91,-3.35
2024-12-06 12:46:57.9,5.17,481.0,0.88,0.38,-0.05,-1.79,-0.91,-3.35
2024-12-06 12:46:57.15,4.05,483.0,0.87,0.4,-0.05,-1.18,0.25,-3.53
2024-12-06 12:46:57.18,2.02,493.0,0.86,0.41,-0.04,-0.88,0.25,-4.02
2024-12-06 12:46:57.120,2.92,476.0,0.95,0.42,-0.02,-1.55,0.74,-0.48
2024-12-06 12:46:57.125,6.52,483.0,0.94,0.41,-0.03,-1.55,-1.09,-0.84
2024-12-06 12:46:57.135,5.85,497.0,0.93,0.41,-0.02,-1.12,-2.44,-1.52
2024-12-06 12:46:57.151,4.5,480.0,0.91,0.42,-0.02,-0.45,-3.17,-2.37
2024-12-06 12:46:57.158,4.28,469.0,0.9,0.42,-0.01,0.16,-2.86,-3.16
2024-12-06 12:46:57.166,1.57,476.0,0.89,0.43,-0.01,0.77,-2.07,-3.59
2024-12-06 12:46:57.173,0.67,471.0,0.89,0.43,-0.01,1.2,-0.91,-3.59
2024-12-06 12:46:57.185,7.42,481.0,0.89,0.47,-0.01,1.44,0.86,-3.04
2024-12-06 12:46:57.212,7.88,468.0,0.9,0.43,-0.03,1.81,2.87,0.93
2024-12-06 12:46:57.219,4.05,475.0,0.9,0.43,-0.03,1.62,3.3,1.05
2024-12-06 12:46:57.225,6.75,482.0,0.88,0.42,-0.04,1.32,2.69,0.8
2024-12-06 12:46:57.233,7.42,468.0,0.88,0.42,-0.04,1.32,2.69,0.8
2024-12-06 12:46:57.247,6.75,471.0,0.89,0.41,-0.03,1.08,1.59,0.32
2024-12-06 12:46:57.251,5.17,481.0,0.88,0.41,-0.03,0.95,0.31,-0.29
2024-12-06 12:46:57.256,1.57,475.0,0.88,0.41,-0.02,0.95,-0.18,-1.21
2024-12-06 12:46:57.264,9.22,491.0,0.88,0.41,-0.02,1.2,-0.06,-2.06
2024-12-06 12:46:57.272,6.52,473.0,0.88,0.42,-0.02,1.75,0.25,-2.68
2024-12-06 12:46:57.288,4.05,474.0,0.88,0.42,-0.01,1.75,0.25,-2.68
2024-12-06 12:46:57.295,8.32,490.0,0.89,0.42,-0.0,2.11,1.1,-3.16
2024-12-06 12:46:57.305,4.28,472.0,0.89,0.42,0.0,2.17,2.08,-3.22
2024-12-06 12:46:57.307,3.38,484.0,0.89,0.42,0.01,2.05,2.63,-3.16
2024-12-06 12:46:57.310,5.85,477.0,0.9,0.42,0.01,1.93,2.93,-3.16
2024-12-06 12:46:57.322,8.32,483.0,0.89,0.41,0.0,1.93,2.93,-3.16
2024-12-06 12:46:57.327,6.07,468.0,0.89,0.41,-0.0,1.56,3.36,-3.35
2024-12-06 12:46:57.341,1.57,479.0,0.89,0.41,-0.01,1.14,3.24,-3.59
2024-12-06 12:46:57.349,4.28,491.0,0.89,0.41,-0.01,0.22,1.84,-4.14
2024-12-06 12:46:57.356,3.38,475.0,0.89,0.42,-0.01,-0.08,1.65,-4.87
2024-12-06 12:46:57.364,3.6,477.0,0.88,0.42,-0.01,-0.08,1.65,-4.87
2024-12-06 12:46:57.379,8.32,480.0,0.89,0.41,-0.01,-0.21,1.59,-5.54
2024-12-06 12:46:57.382,4.28,479.0,0.89,0.41,-0.0,-0.08,1.23,-6.09
2024-12-06 12:46:57.387,2.25,484.0,0.89,0.41,0.0,-0.21,0.43,-6.34
2024-12-06 12:46:57.399,3.15,484.0,0.89,0.41,0.0,-0.33,0.43,-6.58
2024-12-06 12:46:57.409,2.25,496.0,0.89,0.41,0.0,-0.33,0.43,-6.58
2024-12-06 12:46:57.441,5.62,492.0,0.89,0.42,-0.0,-0.63,1.9,-8.47
2024-12-06 12:46:57.449,6.07,493.0,0.91,0.42,-0.01,-0.63,2.26,-7.62
2024-12-06 12:46:57.456,9.0,498.0,0.93,0.42,-0.01,-0.76,2.75,-6.03
2024-12-06 12:46:57.465,8.55,479.0,0.95,0.43,-0.01,-1.06,2.81,-4.08
2024-12-06 12:46:57.473,4.95,474.0,0.95,0.43,-0.01,-1.24,2.69,-2.0
2024-12-06 12:46:57.479,2.7,483.0,0.96,0.44,-0.02,-1.24,2.08,-0.42
2024-12-06 12:46:57.487,3.6,479.0,0.96,0.46,-0.02,-1.37,2.08,-0.42
2024-12-06 12:46:57.507,6.75,477.0,0.95,0.47,-0.02,-1.55,1.53,0.32
2024-12-06 12:46:57.512,8.55,478.0,0.94,0.46,-0.01,-1.67,0.8,0.5
2024-12-06 12:46:57.514,2.92,478.0,0.93,0.46,-0.01,-1.61,-0.48,0.25
2024-12-06 12:46:57.518,7.88,472.0,0.93,0.46,-0.01,-1.37,-1.52,-0.29
2024-12-06 12:46:57.530,6.97,480.0,0.92,0.46,-0.01,-1.37,-1.52,-0.29
2024-12-06 12:46:57.538,7.88,478.0,0.91,0.45,-0.01,-1.0,-1.83,-0.84
2024-12-06 12:46:57.546,5.85,534.0,0.91,0.46,-0.01,-0.45,-2.38,-1.09
2024-12-06 12:46:57.559,8.32,474.0,0.9,0.46,-0.01,0.04,-2.44,-1.15
2024-12-06 12:46:57.562,2.47,498.0,0.9,0.46,-0.01,0.47,-1.7,-1.15
2024-12-06 12:46:57.567,4.28,474.0,0.89,0.46,-0.01,0.89,-1.15,-1.09
2024-12-06 12:46:57.572,6.75,496.0,0.88,0.46,-0.01,0.89,-1.15,-1.09
2024-12-06 12:46:57.580,6.3,488.0,0.86,0.46,-0.02,1.14,-0.61,-1.03
2024-12-06 12:46:57.589,3.82,469.0,0.86,0.45,-0.03,1.44,0.0,-1.21
2024-12-06 12:46:57.596,4.05,494.0,0.86,0.44,-0.03,1.69,0.68,-1.27
2024-12-06 12:46:57.606,6.07,471.0,0.86,0.44,-0.03,1.87,1.1,-1.09
2024-12-06 12:46:57.616,6.07,476.0,0.87,0.43,-0.03,1.93,1.29,-0.66
2024-12-06 12:46:57.620,6.52,474.0,0.88,0.43,-0.03,1.93,1.29,-0.66
2024-12-06 12:46:57.630,8.77,476.0,0.89,0.42,-0.02,1.87,1.41,-0.17
2024-12-06 12:46:57.666,4.28,471.0,0.89,0.42,-0.01,1.56,1.16,-0.11
2024-12-06 12:46:57.668,3.15,481.0,0.88,0.42,0.0,1.26,0.98,-0.72
2024-12-06 12:46:57.673,5.62,476.0,0.88,0.43,-0.01,1.26,-0.06,-1.58
2024-12-06 12:46:57.680,7.2,473.0,0.86,0.43,-0.03,1.62,0.86,-2.68
2024-12-06 12:46:57.690,8.32,478.0,0.86,0.43,-0.03,1.62,0.37,-3.96
2024-12-06 12:46:57.700,6.07,503.0,0.86,0.43,-0.01,0.83,1.1,-4.26
2024-12-06 12:46:57.705,1.57,481.0,0.89,0.44,0.03,0.83,1.1,-4.26
2024-12-06 12:46:57.722,5.4,491.0,0.9,0.44,0.01,0.89,0.8,-3.35
2024-12-06 12:46:57.725,2.92,507.0,0.9,0.44,-0.01,0.95,2.63,-2.43
2024-12-06 12:46:57.728,2.92,480.0,0.9,0.44,-0.01,1.14,2.63,-1.7
2024-12-06 12:46:57.734,-0.9,477.0,0.89,0.43,-0.01,1.14,2.57,-1.03
2024-12-06 12:46:57.746,8.55,491.0,0.9,0.42,-0.02,1.14,2.57,-1.03
2024-12-06 12:46:57.752,6.75,468.0,0.9,0.42,-0.02,1.14,2.69,-0.42
2024-12-06 12:46:57.757,3.82,476.0,0.91,0.42,-0.01,1.01,1.96,0.13
2024-12-06 12:46:57.767,5.62,474.0,0.92,0.42,-0.02,0.71,1.9,0.68
2024-12-06 12:46:57.776,6.52,477.0,0.92,0.42,-0.02,0.4,1.41,1.41
2024-12-06 12:46:57.782,8.77,470.0,0.93,0.43,-0.01,0.4,0.68,2.15
2024-12-06 12:46:57.794,11.25,471.0,0.93,0.44,-0.0,0.1,0.68,2.15
2024-12-06 12:46:57.798,4.72,482.0,0.93,0.45,-0.0,-0.15,0.31,2.51
2024-12-06 12:46:57.813,0.45,471.0,0.92,0.45,-0.01,-0.21,0.43,2.51
2024-12-06 12:46:57.816,6.07,490.0,0.92,0.45,-0.01,-0.15,0.31,2.39
2024-12-06 12:46:57.819,7.2,471.0,0.91,0.45,-0.0,-0.15,-0.3,2.02
2024-12-06 12:46:57.828,6.52,474.0,0.91,0.44,0.0,-0.15,-0.3,2.02
2024-12-06 12:46:57.836,9.45,474.0,0.9,0.43,0.0,-0.33,-0.3,1.72
2024-12-06 12:46:57.842,6.52,469.0,0.9,0.42,0.0,-0.45,-0.3,1.54
2024-12-06 12:46:57.850,6.97,484.0,0.89,0.42,0.01,-0.69,-0.18,1.6
2024-12-06 12:46:57.858,6.3,479.0,0.89,0.42,0.01,-0.39,-0.61,1.6
2024-12-06 12:46:57.891,5.17,480.0,0.88,0.41,-0.03,0.47,0.62,1.23
2024-12-06 12:46:57.894,8.55,471.0,0.89,0.42,-0.02,0.77,0.55,1.48
2024-12-06 12:46:57.897,6.75,483.0,0.89,0.42,-0.02,1.14,0.43,1.78
2024-12-06 12:46:57.903,8.55,468.0,0.89,0.43,-0.03,1.14,0.43,1.78
2024-12-06 12:46:57.913,9.45,455.0,0.88,0.43,-0.03,1.38,0.8,1.78
2024-12-06 12:46:57.928,6.07,470.0,0.88,0.44,-0.02,1.2,1.65,1.6
2024-12-06 12:46:57.931,6.3,469.0,0.89,0.44,-0.01,1.2,0.74,1.72
2024-12-06 12:46:57.944,7.65,488.0,0.89,0.44,-0.01,1.08,0.49,1.66
2024-12-06 12:46:57.949,6.07,468.0,0.89,0.43,-0.01,1.08,0.68,1.41
2024-12-06 12:46:57.957,6.3,465.0,0.88,0.43,-0.02,1.01,0.68,1.41
2024-12-06 12:46:57.977,1.35,482.0,0.88,0.43,-0.02,1.01,0.86,1.11
2024-12-06 12:46:57.989,7.65,481.0,0.88,0.43,-0.02,1.81,1.47,0.44
2024-12-06 12:46:57.998,6.3,475.0,0.88,0.43,-0.02,2.42,1.53,0.01
2024-12-06 12:46:58.4,6.07,475.0,0.89,0.42,-0.03,3.21,0.86,-0.29
2024-12-06 12:46:58.11,4.28,471.0,0.89,0.42,-0.04,3.33,1.59,-0.48
2024-12-06 12:46:58.19,6.75,460.0,0.89,0.42,-0.04,3.09,2.51,-0.42
2024-12-06 12:46:58.28,8.1,463.0,0.9,0.42,-0.0,3.09,0.19,-0.05
2024-12-06 12:46:58.39,4.28,452.0,0.91,0.42,-0.0,3.58,0.19,-0.05
2024-12-06 12:46:58.49,8.1,467.0,0.89,0.41,-0.04,3.88,0.92,-0.17
2024-12-06 12:46:58.52,6.07,480.0,0.88,0.42,-0.03,3.7,1.71,-0.84
2024-12-06 12:46:58.57,6.75,467.0,0.88,0.42,-0.0,3.58,1.35,-1.33
2024-12-06 12:46:58.66,2.92,487.0,0.89,0.42,-0.0,4.07,0.68,-1.39
2024-12-06 12:46:58.175,4.5,480.0,0.92,0.43,-0.0,4.13,2.32,-0.36
2024-12-06 12:46:58.198,3.6,453.0,0.91,0.42,0.0,3.52,1.9,0.13
2024-12-06 12:46:58.210,6.75,471.0,0.91,0.42,0.02,3.33,1.35,0.32
2024-12-06 12:46:58.213,3.38,465.0,0.91,0.42,0.02,3.21,1.1,0.19
2024-12-06 12:46:58.216,9.45,453.0,0.9,0.42,0.02,3.21,1.1,-15.43
2024-12-06 12:46:58.224,8.1,451.0,0.89,0.42,0.01,3.09,1.59,-0.29
2024-12-06 12:46:58.233,8.1,461.0,0.89,0.42,-0.0,3.15,1.9,-0.78
2024-12-06 12:46:58.243,1.57,455.0,0.89,0.42,-0.01,3.52,1.53,-1.21
2024-12-06 12:46:58.246,3.15,471.0,0.9,0.41,-0.02,3.94,1.41,-1.45
2024-12-06 12:46:58.256,3.6,480.0,0.9,0.41,-0.02,4.19,1.77,-1.39
2024-12-06 12:46:58.262,4.72,463.0,0.9,0.42,-0.02,4.19,1.77,-0.97
2024-12-06 12:46:58.273,4.05,465.0,0.91,0.42,-0.01,4.01,1.96,-0.97
2024-12-06 12:46:58.279,6.75,470.0,0.92,0.43,-0.01,3.82,1.41,-0.05
2024-12-06 12:46:58.285,6.75,478.0,0.92,0.42,-0.02,3.7,0.98,0.99
2024-12-06 12:46:58.293,8.32,467.0,0.92,0.42,-0.02,3.52,1.23,1.54
2024-12-06 12:46:58.302,9.0,464.0,0.91,0.42,-0.02,3.39,1.23,1.78
2024-12-06 12:46:58.312,5.4,486.0,0.9,0.42,-0.02,3.39,1.23,1.78
2024-12-06 12:46:58.316,2.25,471.0,0.91,0.42,-0.01,3.52,1.41,2.02
2024-12-06 12:46:58.346,6.97,469.0,0.9,0.41,-0.02,3.21,2.69,1.78
2024-12-06 12:46:58.352,7.65,459.0,0.93,0.41,-0.01,3.21,2.69,1.78
2024-12-06 12:46:58.358,0.45,462.0,0.93,0.42,0.03,3.15,0.43,2.63
2024-12-06 12:46:58.364,6.75,467.0,0.92,0.43,0.0,2.66,-0.54,3.18
2024-12-06 12:46:58.372,8.1,479.0,0.91,0.43,0.0,1.93,0.86,3.18
2024-12-06 12:46:58.380,4.28,469.0,0.91,0.43,0.0,1.56,-0.06,2.94
2024-12-06 12:46:58.385,4.95,489.0,0.9,0.43,0.02,0.83,0.43,3.25
2024-12-06 12:46:58.395,4.95,481.0,0.91,0.42,0.01,0.83,0.43,3.25
2024-12-06 12:46:58.401,6.07,465.0,0.92,0.42,0.02,0.1,-0.06,3.98
2024-12-06 12:46:58.412,6.75,456.0,0.91,0.42,0.02,-0.69,-0.67,4.89
2024-12-06 12:46:58.416,8.32,473.0,0.9,0.41,0.02,-1.61,-0.3,5.5
2024-12-06 12:46:58.424,9.0,479.0,0.9,0.41,0.02,-2.46,-0.42,5.87
2024-12-06 12:46:58.432,8.77,469.0,0.89,0.41,0.02,-2.46,-0.42,5.87
2024-12-06 12:46:58.440,0.9,479.0,0.9,0.42,0.02,-3.26,-0.24,6.11
2024-12-06 12:46:58.448,5.62,464.0,0.9,0.42,0.01,-3.75,0.0,6.54
2024-12-06 12:46:58.455,6.97,468.0,0.91,0.42,0.0,-4.05,0.0,7.27
2024-12-06 12:46:58.463,4.05,458.0,0.91,0.41,0.0,-4.48,0.19,8.13
2024-12-06 12:46:58.474,3.6,459.0,0.92,0.41,0.0,-4.78,0.07,8.98
2024-12-06 12:46:58.482,-0.22,463.0,0.92,0.41,0.0,-4.78,0.07,8.98
2024-12-06 12:46:58.490,5.17,474.0,0.92,0.42,0.0,-4.97,-0.24,9.65
2024-12-06 12:46:58.499,6.97,464.0,0.91,0.41,-0.0,-5.09,-0.42,9.78
2024-12-06 12:46:58.502,6.3,488.0,0.91,0.41,-0.01,-5.27,-0.24,9.53
2024-12-06 12:46:58.518,7.42,465.0,0.91,0.41,-0.01,-5.33,-0.61,9.23
2024-12-06 12:46:58.520,1.12,458.0,0.91,0.41,-0.01,-5.15,-0.67,9.1
2024-12-06 12:46:58.525,4.72,464.0,0.92,0.4,-0.01,-5.15,-0.67,9.1
2024-12-06 12:46:58.537,10.35,468.0,0.93,0.39,-0.01,-5.03,-1.15,9.29
2024-12-06 12:46:58.541,6.97,484.0,0.93,0.39,-0.0,-4.91,-1.89,9.35
2024-12-06 12:46:58.578,1.57,464.0,0.91,0.39,-0.01,-4.36,-2.19,8.25
2024-12-06 12:46:58.580,6.07,485.0,0.91,0.39,-0.01,-3.87,-2.19,7.7
2024-12-06 12:46:58.588,9.22,485.0,0.92,0.38,-0.02,-3.38,-1.4,7.52
2024-12-06 12:46:58.600,7.2,473.0,0.92,0.38,-0.01,-3.01,-1.83,7.88
2024-12-06 12:46:58.605,4.72,483.0,0.92,0.38,-0.01,-2.71,-2.01,8.25
2024-12-06 12:46:58.612,1.12,445.0,0.91,0.39,-0.02,-2.4,-1.77,8.07
2024-12-06 12:46:58.619,8.55,476.0,0.89,0.38,-0.02,-2.4,-1.77,8.07
2024-12-06 12:46:58.631,4.28,489.0,0.83,0.37,-0.02,-1.61,-3.6,6.36
2024-12-06 12:46:58.636,3.82,486.0,0.79,0.35,-0.06,-1.06,-2.25,2.21
2024-12-06 12:46:58.643,4.5,496.0,0.83,0.36,-0.04,-0.94,1.53,-1.21
2024-12-06 12:46:58.650,5.4,485.0,0.83,0.36,-0.04,0.16,-1.95,-2.61
2024-12-06 12:46:58.660,10.57,470.0,0.86,0.37,0.01,0.16,-1.95,-3.77
2024-12-06 12:46:58.669,9.9,469.0,0.85,0.37,-0.02,-0.08,-2.44,-3.77
2024-12-06 12:46:58.689,11.47,466.0,0.83,0.36,-0.0,0.28,-1.52,-7.68
2024-12-06 12:46:58.692,12.6,496.0,0.83,0.36,-0.0,0.28,-0.36,-9.76
2024-12-06 12:46:58.697,14.17,467.0,0.84,0.37,-0.01,0.22,0.19,-10.91
2024-12-06 12:46:58.706,11.7,467.0,0.87,0.39,0.0,0.22,0.19,-10.91
2024-12-06 12:46:58.713,12.6,485.0,0.85,0.38,-0.01,0.95,-2.68,-11.89
2024-12-06 12:46:58.722,13.95,482.0,0.84,0.36,-0.05,1.26,-1.03,-14.39
2024-12-06 12:46:58.729,9.68,469.0,0.88,0.37,-0.02,1.56,2.57,-15.8
2024-12-06 12:46:58.738,15.52,474.0,0.88,0.37,0.01,2.91,-2.8,-15.86
2024-12-06 12:46:58.746,15.75,476.0,0.89,0.37,0.01,2.91,-1.15,-17.08
2024-12-06 12:46:58.756,18.0,477.0,0.87,0.37,-0.04,2.91,-1.15,-17.08
2024-12-06 12:46:58.762,16.42,470.0,0.88,0.38,0.0,2.42,1.47,-18.24
2024-12-06 12:46:58.768,18.0,470.0,0.88,0.39,0.0,3.52,-2.62,-18.67
2024-12-06 12:46:58.800,19.35,465.0,0.9,0.4,-0.02,2.48,1.23,-18.85
2024-12-06 12:46:58.805,18.45,475.0,0.9,0.41,-0.03,3.21,-0.36,-18.36
2024-12-06 12:46:58.809,20.7,475.0,0.91,0.42,-0.03,3.21,1.9,-17.99
2024-12-06 12:46:58.814,20.7,485.0,0.91,0.42,-0.02,4.19,-0.61,-17.57
2024-12-06 12:46:58.826,27.22,468.0,0.91,0.43,-0.03,3.52,1.53,-17.02
2024-12-06 12:46:58.836,21.38,486.0,0.92,0.43,-0.03,4.86,0.43,-16.9
2024-12-06 12:46:58.839,20.02,486.0,0.91,0.42,-0.03,4.86,0.43,-16.9
2024-12-06 12:46:58.845,24.75,485.0,0.92,0.43,-0.02,3.82,1.23,-16.53
2024-12-06 12:46:58.855,25.65,463.0,0.92,0.43,-0.0,4.37,0.0,-15.86
2024-12-06 12:46:58.860,24.3,473.0,0.92,0.42,0.01,2.78,-1.15,-15.19
2024-12-06 12:46:58.871,29.25,484.0,0.92,0.42,0.01,1.75,-1.64,-15.19
2024-12-06 12:46:58.882,27.9,491.0,0.9,0.41,0.05,1.32,-1.7,-15.61
2024-12-06 12:46:58.887,31.5,494.0,0.91,0.41,-0.01,1.32,-1.7,-15.61
2024-12-06 12:46:58.892,26.1,485.0,0.93,0.44,-0.0,0.89,0.86,-14.94
2024-12-06 12:46:58.910,31.5,485.0,0.92,0.45,0.02,1.14,-5.06,-13.91
2024-12-06 12:46:58.913,27.9,473.0,0.9,0.45,-0.03,0.22,-2.56,-13.78
2024-12-06 12:46:58.916,30.82,479.0,0.9,0.45,-0.03,0.16,-0.67,-13.91
2024-12-06 12:46:58.925,36.0,488.0,0.89,0.45,-0.01,0.47,-2.99,-13.42
2024-12-06 12:46:58.939,33.3,508.0,0.91,0.46,0.0,0.47,-2.99,-13.42
2024-12-06 12:46:58.943,32.85,488.0,0.93,0.47,-0.0,-0.57,-1.89,-11.95
2024-12-06 12:46:58.948,33.97,473.0,0.92,0.46,-0.0,-0.51,-3.41,-10.37
2024-12-06 12:46:58.956,35.1,481.0,0.9,0.45,-0.03,-1.06,-3.72,-9.69
2024-12-06 12:46:58.964,40.05,467.0,0.9,0.46,-0.01,-1.67,-2.5,-9.33
2024-12-06 12:46:58.974,40.27,479.0,0.9,0.46,-0.01,-1.73,-3.84,-8.47
2024-12-06 12:46:58.991,41.4,478.0,0.91,0.46,0.0,-1.73,-3.84,-7.92
2024-12-06 12:46:59.19,39.83,486.0,0.9,0.46,-0.0,-3.99,-9.03,-6.22
2024-12-06 12:46:59.25,41.85,481.0,0.89,0.45,0.01,-4.36,-9.21,-6.22
2024-12-06 12:46:59.33,38.7,475.0,0.9,0.46,0.01,-4.11,-9.46,-5.6
2024-12-06 12:46:59.41,41.62,478.0,0.93,0.49,0.03,-4.05,-11.84,-3.71
2024-12-06 12:46:59.48,42.52,484.0,0.89,0.49,-0.0,-5.33,-10.62,-2.37
2024-12-06 12:46:59.59,44.1,479.0,0.89,0.49,-0.0,-7.16,-5.55,-3.29
2024-12-06 12:46:59.77,38.92,476.0,0.84,0.46,-0.03,-7.35,-3.29,-4.75
2024-12-06 12:46:59.80,45.67,466.0,0.89,0.48,-0.01,-7.41,-4.51,-4.45
2024-12-06 12:46:59.89,40.5,487.0,0.9,0.48,-0.01,-7.53,-7.62,-2.8
2024-12-06 12:46:59.102,47.02,470.0,0.9,0.45,-0.04,-8.02,-8.42,-2.43
2024-12-06 12:46:59.107,47.25,487.0,0.87,0.46,-0.04,-8.63,-6.89,-3.29
2024-12-06 12:46:59.126,47.02,472.0,0.86,0.43,-0.03,-8.63,-6.89,-3.29
2024-12-06 12:46:59.245,56.7,485.0,0.87,0.45,-0.05,-6.8,-9.09,-5.91
2024-12-06 12:46:59.254,48.38,478.0,0.88,0.46,-0.05,-6.19,-10.74,-5.3
2024-12-06 12:46:59.275,58.95,478.0,0.88,0.46,-0.05,-6.19,-8.78,-5.48
2024-12-06 12:46:59.278,54.22,491.0,0.86,0.49,-0.04,-5.76,-9.33,-4.08
2024-12-06 12:46:59.287,58.95,492.0,0.84,0.48,-0.04,-5.82,-7.93,-4.63
2024-12-06 12:46:59.300,59.62,494.0,0.84,0.48,-0.04,-6.37,-6.59,-4.87
2024-12-06 12:46:59.302,57.82,497.0,0.84,0.51,-0.04,-6.61,-5.79,-4.32
2024-12-06 12:46:59.312,57.82,479.0,0.85,0.53,-0.06,-6.61,-5.79,-4.32
2024-12-06 12:46:59.320,59.62,498.0,0.84,0.51,-0.07,-6.19,-5.61,-3.96
2024-12-06 12:46:59.328,58.27,481.0,0.84,0.48,-0.07,-5.52,-5.18,-4.32
2024-12-06 12:46:59.334,60.3,487.0,0.86,0.48,-0.07,-5.7,-5.06,-4.08
2024-12-06 12:46:59.343,61.88,474.0,0.88,0.49,-0.07,-5.64,-6.28,-3.04
2024-12-06 12:46:59.351,62.1,484.0,0.88,0.49,-0.07,-5.46,-7.5,-2.8
2024-12-06 12:46:59.359,63.22,475.0,0.86,0.47,-0.07,-5.46,-7.56,-3.96
2024-12-06 12:46:59.371,65.47,485.0,0.85,0.45,-0.07,-5.03,-7.56,-3.96
2024-12-06 12:46:59.376,61.88,482.0,0.86,0.48,-0.06,-4.72,-6.4,-4.93
2024-12-06 12:46:59.381,67.5,484.0,0.89,0.53,-0.04,-4.66,-8.54,-4.45
2024-12-06 12:46:59.390,62.77,499.0,0.89,0.54,-0.05,-4.54,-9.46,-3.41
2024-12-06 12:46:59.397,65.92,510.0,0.89,0.54,-0.05,-4.48,-7.69,-3.77
2024-12-06 12:46:59.409,61.2,490.0,0.86,0.5,-0.05,-3.69,-7.26,-4.38
2024-12-06 12:46:59.413,67.95,494.0,0.85,0.49,-0.04,-3.69,-7.26,-4.38
2024-12-06 12:46:59.421,65.7,497.0,0.85,0.5,-0.06,-3.56,-6.22,-4.38
2024-12-06 12:46:59.429,67.05,500.0,0.86,0.5,-0.07,-3.5,-5.73,-3.71
2024-12-06 12:46:59.439,67.72,495.0,0.87,0.49,-0.06,-3.26,-5.98,-3.22
2024-12-06 12:46:59.480,69.75,478.0,0.84,0.48,-0.06,-3.01,-3.23,-1.45
2024-12-06 12:46:59.483,64.35,488.0,0.84,0.48,-0.06,-2.89,-2.07,-1.88
2024-12-06 12:46:59.490,69.07,497.0,0.85,0.49,-0.07,-2.46,-1.58,-1.88
2024-12-06 12:46:59.505,68.4,521.0,0.87,0.5,-0.05,-2.46,-1.58,-1.88
2024-12-06 12:46:59.508,68.62,503.0,0.86,0.51,-0.04,-2.34,-3.35,-1.15
2024-12-06 12:46:59.513,67.05,508.0,0.85,0.49,-0.05,-2.46,-3.17,-0.72
2024-12-06 12:46:59.522,69.97,519.0,0.86,0.46,-0.05,-2.71,-2.62,-1.33
2024-12-06 12:46:59.530,69.53,502.0,0.86,0.46,-0.05,-2.89,-3.23,-1.88
2024-12-06 12:46:59.537,60.52,520.0,0.88,0.47,-0.05,-3.2,-3.35,-1.82
2024-12-06 12:46:59.545,71.55,504.0,0.88,0.48,-0.06,-3.2,-3.35,-1.82
2024-12-06 12:46:59.552,72.67,512.0,0.88,0.49,-0.06,-3.14,-4.51,-1.52
2024-12-06 12:46:59.560,71.1,504.0,0.88,0.49,-0.07,-3.01,-4.57,-1.39
2024-12-06 12:46:59.571,71.78,512.0,0.88,0.49,-0.05,-2.59,-5.12,-1.64
2024-12-06 12:46:59.576,71.78,512.0,0.88,0.49,-0.05,-2.16,-6.04,-1.94
2024-12-06 12:46:59.584,69.75,506.0,0.87,0.49,-0.05,-2.16,-6.04,-2.25
2024-12-06 12:46:59.593,73.35,516.0,0.86,0.49,-0.05,-2.16,-6.04,-2.25
2024-12-06 12:46:59.603,70.65,534.0,0.87,0.49,-0.05,-2.34,-5.98,-2.43
2024-12-06 12:46:59.610,72.45,528.0,0.88,0.5,-0.05,-2.65,-5.61,-2.37
2024-12-06 12:46:59.616,73.8,517.0,0.88,0.5,-0.05,-2.46,-5.43,-1.88
2024-12-06 12:46:59.624,71.55,506.0,0.88,0.5,-0.06,-2.22,-5.85,-1.03
2024-12-06 12:46:59.631,74.7,519.0,0.87,0.49,-0.06,-2.16,-5.98,-0.36
2024-12-06 12:46:59.645,74.92,515.0,0.86,0.49,-0.06,-2.16,-5.98,-0.36
2024-12-06 12:46:59.651,72.45,531.0,0.85,0.47,-0.06,-2.28,-6.1,-0.23
2024-12-06 12:46:59.655,76.05,513.0,0.86,0.47,-0.06,-2.59,-5.73,-0.48
2024-12-06 12:46:59.664,74.47,521.0,0.87,0.49,-0.06,-2.83,-5.61,-0.36
2024-12-06 12:46:59.673,74.92,536.0,0.87,0.49,-0.06,-2.77,-5.37,0.01
2024-12-06 12:46:59.697,74.47,526.0,0.86,0.5,-0.06,-2.71,-4.76,0.38
2024-12-06 12:46:59.700,77.4,526.0,0.86,0.49,-0.06,-2.53,-5.12,0.68
2024-12-06 12:46:59.706,78.97,543.0,0.86,0.48,-0.06,-2.4,-4.63,0.68
2024-12-06 12:46:59.712,77.4,554.0,0.85,0.47,-0.07,-2.16,-4.69,0.25
2024-12-06 12:46:59.742,75.15,536.0,0.86,0.5,-0.06,-2.59,-3.29,-0.42
2024-12-06 12:46:59.754,77.4,564.0,0.86,0.5,-0.07,-2.16,-2.92,-0.17
2024-12-06 12:46:59.766,79.2,528.0,0.86,0.5,-0.07,-1.73,-2.74,0.07
2024-12-06 12:46:59.777,77.62,554.0,0.84,0.49,-0.08,-1.43,-2.07,0.01
2024-12-06 12:46:59.782,74.47,555.0,0.84,0.48,-0.07,-1.43,-1.52,-0.17
2024-12-06 12:46:59.796,67.5,587.0,0.85,0.49,-0.07,-1.43,-1.22,-0.23
2024-12-06 12:46:59.804,81.22,531.0,0.85,0.5,-0.07,-1.37,-1.58,-0.23
2024-12-06 12:46:59.806,79.65,532.0,0.85,0.5,-0.07,-1.37,-1.28,0.07
2024-12-06 12:46:59.812,83.03,567.0,0.85,0.5,-0.08,-1.18,-0.42,0.07
2024-12-06 12:46:59.819,79.42,539.0,0.85,0.5,-0.08,-1.18,-0.42,0.07
2024-12-06 12:46:59.828,78.3,545.0,0.85,0.49,-0.08,-0.76,0.0,-0.05
2024-12-06 12:46:59.837,78.07,548.0,0.84,0.49,-0.09,-0.33,0.19,-0.17
2024-12-06 12:46:59.846,77.4,552.0,0.85,0.5,-0.08,-0.02,0.37,-0.11
2024-12-06 12:46:59.856,79.65,535.0,0.85,0.5,-0.08,-0.02,0.0,0.13
2024-12-06 12:46:59.862,80.1,552.0,0.84,0.5,-0.07,-0.08,0.55,-0.05
2024-12-06 12:46:59.865,83.25,552.0,0.84,0.5,-0.07,-0.08,0.55,-0.05
2024-12-06 12:46:59.890,79.42,582.0,0.85,0.51,-0.07,-0.27,0.55,-0.11
2024-12-06 12:46:59.892,79.42,545.0,0.86,0.52,-0.07,-0.63,0.07,0.5
2024-12-06 12:46:59.898,72.45,564.0,0.86,0.52,-0.07,-0.57,-0.91,0.44
2024-12-06 12:46:59.926,80.1,547.0,0.87,0.52,-0.08,-0.57,-0.73,0.62
2024-12-06 12:46:59.932,79.2,561.0,0.86,0.53,-0.08,-0.69,-0.73,1.23
2024-12-06 12:46:59.935,76.05,561.0,0.86,0.53,-0.08,-0.45,0.92,1.23
2024-12-06 12:46:59.942,80.32,563.0,0.84,0.51,-0.07,-0.45,0.92,1.23
2024-12-06 12:46:59.951,79.2,553.0,0.84,0.48,-0.06,0.4,1.77,0.93
2024-12-06 12:46:59.958,82.12,613.0,0.83,0.47,-0.07,1.08,2.2,0.56
2024-12-06 12:46:59.967,78.97,551.0,0.84,0.47,-0.07,1.08,3.36,0.38
2024-12-06 12:46:59.973,78.07,553.0,0.84,0.47,-0.07,1.01,3.73,0.01
2024-12-06 12:46:59.981,77.62,554.0,0.85,0.48,-0.07,1.14,3.73,-0.48
2024-12-06 12:46:59.989,83.7,545.0,0.85,0.48,-0.06,1.14,3.73,-0.48
2024-12-06 12:47:00.7,79.42,563.0,0.86,0.48,-0.06,1.26,3.18,-0.84
2024-12-06 12:47:00.12,81.0,583.0,0.86,0.48,-0.07,1.01,2.45,-0.91
2024-12-06 12:47:00.28,80.32,568.0,0.87,0.47,-0.07,0.65,1.71,-1.09
2024-12-06 12:47:00.31,79.65,576.0,0.88,0.47,-0.07,0.34,-0.61,-1.45
2024-12-06 12:47:00.36,80.32,620.0,0.88,0.47,-0.07,0.34,-0.61,-1.45
2024-12-06 12:47:00.47,77.17,562.0,0.87,0.48,-0.07,0.34,-0.85,-1.45
2024-12-06 12:47:00.56,77.62,557.0,0.86,0.49,-0.06,0.47,-0.73,-1.39
2024-12-06 12:47:00.59,81.9,551.0,0.86,0.49,-0.05,0.59,-0.12,-1.45
2024-12-06 12:47:00.69,78.75,569.0,0.86,0.49,-0.05,0.59,0.55,-1.52
2024-12-06 12:47:00.82,83.25,550.0,0.86,0.49,-0.05,0.53,0.86,-1.33
2024-12-06 12:47:00.84,79.2,547.0,0.87,0.49,-0.05,0.53,0.86,-1.33
2024-12-06 12:47:00.90,83.47,563.0,0.87,0.48,-0.06,0.47,0.74,-0.91
2024-12-06 12:47:00.98,80.55,549.0,0.87,0.47,-0.06,0.34,0.49,-0.72
2024-12-06 12:47:00.256,80.55,554.0,0.88,0.47,-0.07,0.22,-0.18,-0.84
2024-12-06 12:47:00.270,83.92,565.0,0.87,0.48,-0.07,-0.51,-0.42,-1.58
2024-12-06 12:47:00.273,79.42,549.0,0.87,0.48,-0.07,-0.51,-0.42,-1.58
2024-12-06 12:47:00.283,78.3,560.0,0.87,0.49,-0.07,-0.21,-0.42,-1.7
2024-12-06 12:47:00.303,81.45,560.0,0.87,0.49,-0.07,0.1,-0.54,-1.7
2024-12-06 12:47:00.312,82.12,555.0,0.86,0.5,-0.06,0.22,-0.54,-1.64
2024-12-06 12:47:00.317,81.22,554.0,0.86,0.5,-0.06,0.22,-0.36,-1.58
2024-12-06 12:47:00.321,77.17,582.0,0.86,0.49,-0.07,0.22,-0.36,-1.58
2024-12-06 12:47:00.327,78.53,549.0,0.85,0.49,-0.07,0.16,-0.06,-1.39
2024-12-06 12:47:00.335,80.78,573.0,0.85,0.49,-0.07,0.28,-0.06,-1.33
2024-12-06 12:47:00.343,82.12,566.0,0.85,0.49,-0.07,0.47,0.19,-1.33
2024-12-06 12:47:00.353,77.17,559.0,0.85,0.49,-0.07,0.65,0.49,-1.27
2024-12-06 12:47:00.360,81.0,557.0,0.85,0.49,-0.07,0.83,0.68,-1.27
2024-12-06 12:47:00.374,81.0,550.0,0.85,0.49,-0.06,0.83,0.68,-1.27
2024-12-06 12:47:00.378,83.03,588.0,0.85,0.49,-0.07,0.95,0.74,-1.45
2024-12-06 12:47:00.382,82.8,585.0,0.85,0.5,-0.07,1.14,1.04,-1.76
2024-12-06 12:47:00.390,81.22,555.0,0.85,0.5,-0.07,1.38,1.35,-1.94
2024-12-06 12:47:00.398,80.78,555.0,0.85,0.5,-0.08,1.69,1.84,-2.13
2024-12-06 12:47:00.406,79.88,567.0,0.85,0.5,-0.08,2.11,1.9,-2.31
2024-12-06 12:47:00.443,80.55,562.0,0.85,0.5,-0.07,2.11,1.9,-2.31
2024-12-06 12:47:00.445,80.55,557.0,0.86,0.48,-0.06,1.99,-0.06,-2.86
2024-12-06 12:47:00.452,77.62,558.0,0.86,0.49,-0.07,1.99,-0.3,-2.86
2024-12-06 12:47:00.461,85.28,566.0,0.86,0.49,-0.07,1.81,-0.3,-2.86
2024-12-06 12:47:00.473,78.3,573.0,0.86,0.5,-0.07,1.81,-0.3,-2.8
2024-12-06 12:47:00.476,81.22,580.0,0.86,0.51,-0.07,1.93,0.25,-2.55
2024-12-06 12:47:00.483,78.07,559.0,0.86,0.51,-0.08,2.24,0.68,-2.13
2024-12-06 12:47:00.496,80.78,536.0,0.86,0.51,-0.08,2.48,0.8,-1.64
2024-12-06 12:47:00.506,83.7,562.0,0.86,0.51,-0.07,2.66,0.8,-1.03
2024-12-06 12:47:00.510,78.07,566.0,0.86,0.5,-0.07,2.66,0.8,-1.03
2024-12-06 12:47:00.516,85.05,563.0,0.86,0.48,-0.07,2.6,0.68,-0.66
2024-12-06 12:47:00.524,82.57,595.0,0.86,0.48,-0.07,2.42,0.55,-0.36
2024-12-06 12:47:00.533,81.9,562.0,0.86,0.47,-0.07,2.17,0.37,-0.11
2024-12-06 12:47:00.545,79.88,580.0,0.86,0.47,-0.07,1.99,0.19,-0.05
2024-12-06 12:47:00.548,81.67,579.0,0.87,0.47,-0.07,2.11,-0.48,0.01
2024-12-06 12:47:00.555,84.38,570.0,0.87,0.48,-0.07,2.11,-0.48,0.01
2024-12-06 12:47:00.566,80.55,570.0,0.87,0.49,-0.07,1.93,-0.73,0.13
2024-12-06 12:47:00.573,81.0,581.0,0.86,0.5,-0.06,1.75,-0.85,0.19
2024-12-06 12:47:00.601,83.47,561.0,0.86,0.49,-0.06,1.56,-0.48,0.01
2024-12-06 12:47:00.606,79.42,570.0,0.85,0.48,-0.07,1.2,-0.48,-0.11
2024-12-06 12:47:00.610,80.1,569.0,0.85,0.48,-0.07,0.95,-0.48,-0.05
2024-12-06 12:47:00.618,78.75,569.0,0.84,0.48,-0.07,0.89,-0.36,0.07
2024-12-06 12:47:00.627,82.8,607.0,0.84,0.48,-0.07,0.83,-0.06,0.32
2024-12-06 12:47:00.636,78.75,566.0,0.84,0.48,-0.07,0.77,0.13,0.44
2024-12-06 12:47:00.642,78.75,576.0,0.84,0.48,-0.07,0.65,0.25,0.38
2024-12-06 12:47:00.650,80.1,570.0,0.84,0.49,-0.07,0.65,0.25,0.38
2024-12-06 12:47:00.660,81.45,580.0,0.84,0.49,-0.07,0.59,0.68,0.38
2024-12-06 12:47:00.670,78.07,570.0,0.84,0.49,-0.07,0.59,0.86,0.25
2024-12-06 12:47:00.677,78.75,567.0,0.85,0.49,-0.07,0.77,0.92,0.07
2024-12-06 12:47:00.682,83.25,561.0,0.85,0.49,-0.07,0.89,0.92,-0.17
2024-12-06 12:47:00.690,80.1,571.0,0.85,0.49,-0.07,0.95,0.74,-0.48
2024-12-06 12:47:00.697,78.53,558.0,0.85,0.48,-0.07,0.95,0.74,-0.48
2024-12-06 12:47:00.725,84.6,575.0,0.86,0.48,-0.06,0.89,0.25,-1.21
2024-12-06 12:47:00.728,80.55,569.0,0.86,0.48,-0.06,0.89,0.49,-1.45
2024-12-06 12:47:00.735,81.9,568.0,0.86,0.48,-0.06,0.89,0.43,-1.7
2024-12-06 12:47:00.749,81.0,552.0,0.85,0.48,-0.06,0.95,0.43,-1.7
2024-12-06 12:47:00.755,79.42,573.0,0.85,0.49,-0.07,1.14,0.74,-1.88
2024-12-06 12:47:00.760,81.22,560.0,0.85,0.49,-0.07,1.32,0.86,-2.0
2024-12-06 12:47:00.774,81.45,572.0,0.85,0.48,-0.07,1.56,0.8,-2.25
2024-12-06 12:47:00.777,81.22,573.0,0.85,0.48,-0.07,1.75,0.49,-2.55
2024-12-06 12:47:00.785,76.95,570.0,0.85,0.47,-0.07,1.75,0.49,-2.55
2024-12-06 12:47:00.791,81.0,586.0,0.86,0.46,-0.07,1.69,0.19,-2.92
2024-12-06 12:47:00.799,81.9,553.0,0.86,0.46,-0.07,1.44,0.07,-3.41
2024-12-06 12:47:00.808,76.05,558.0,0.86,0.46,-0.06,1.26,-0.12,-3.9
2024-12-06 12:47:00.812,76.95,563.0,0.86,0.46,-0.06,1.26,-0.24,-4.32
2024-12-06 12:47:00.860,83.25,561.0,0.86,0.48,-0.07,1.75,0.43,-5.48
2024-12-06 12:47:00.862,81.9,552.0,0.86,0.48,-0.06,1.93,0.55,-5.73
2024-12-06 12:47:00.865,81.22,550.0,0.86,0.48,-0.07,1.93,0.55,-5.73
2024-12-06 12:47:00.875,79.2,565.0,0.86,0.48,-0.07,1.99,0.98,-5.79
