Timestamp,PosIsDeg,ForceIs,AccX,AccY,AccZ,GyroX,GyroY,GyroZ
2024-12-06 13:16:32.481,-3.15,482.0,0.16,0.98,-0.01,0.71,0.25,4.13
2024-12-06 13:16:32.531,1.12,489.0,0.16,0.98,-0.02,0.46,1.72,4.74
2024-12-06 13:16:32.534,-2.47,498.0,0.16,0.97,-0.02,0.46,2.02,5.29
2024-12-06 13:16:32.562,3.15,478.0,0.16,0.97,-0.03,0.4,1.35,3.16
2024-12-06 13:16:32.589,-0.67,505.0,0.16,0.98,-0.02,0.53,2.21,4.44
2024-12-06 13:16:32.640,0.45,474.0,0.17,0.97,-0.02,0.46,1.9,4.38
2024-12-06 13:16:32.646,-0.45,491.0,0.17,0.97,-0.02,0.34,1.05,4.01
2024-12-06 13:16:32.671,2.02,488.0,0.16,0.97,-0.02,0.4,0.56,4.01
2024-12-06 13:16:32.699,1.12,481.0,0.13,0.97,-0.0,0.53,-0.66,2.73
2024-12-06 13:16:32.727,-0.9,482.0,0.07,0.94,-0.02,2.3,-5.36,-6.91
2024-12-06 13:16:32.760,2.02,503.0,0.13,0.96,0.01,0.83,-9.88,-13.81
2024-12-06 13:16:32.783,1.12,495.0,0.16,0.98,-0.02,-0.15,-6.28,-10.7
2024-12-06 13:16:32.814,8.55,508.0,0.14,0.99,-0.01,-0.7,-5.42,-7.46
2024-12-06 13:16:32.838,9.0,501.0,0.15,0.99,-0.02,-1.67,-2.98,-3.98
2024-12-06 13:16:32.872,11.92,501.0,0.13,0.98,-0.02,-1.73,-2.31,-2.09
2024-12-06 13:16:32.892,13.5,515.0,0.15,0.99,-0.02,-1.73,-1.76,-1.18
2024-12-06 13:16:32.924,13.72,496.0,0.14,1.0,-0.02,-1.18,-1.33,0.23
2024-12-06 13:16:32.949,13.05,503.0,0.12,0.99,-0.01,-0.57,-3.29,-0.14
2024-12-06 13:16:32.983,9.68,520.0,0.13,0.99,-0.02,-0.08,-4.75,-0.32
2024-12-06 13:16:33.3,10.57,502.0,0.09,0.98,-0.01,0.16,-6.52,-1.18
2024-12-06 13:16:33.35,14.17,500.0,0.1,0.98,-0.02,0.34,-7.19,-3.92
2024-12-06 13:16:33.57,16.65,508.0,0.11,0.99,-0.01,0.28,-4.14,-1.85
2024-12-06 13:16:33.87,19.35,513.0,0.06,0.97,-0.01,-0.02,-4.26,-2.89
2024-12-06 13:16:33.113,18.45,509.0,0.1,0.98,-0.02,-0.39,-3.17,-3.74
2024-12-06 13:16:33.142,16.88,508.0,0.09,0.99,-0.01,-0.82,-1.09,-1.54
2024-12-06 13:16:33.169,19.57,519.0,0.05,0.98,-0.02,-0.76,-0.54,-3.86
2024-12-06 13:16:33.201,22.5,510.0,0.09,1.0,-0.01,-1.12,1.41,-2.7
2024-12-06 13:16:33.223,22.05,518.0,0.05,0.99,-0.01,-1.12,0.99,-4.05
2024-12-06 13:16:33.250,23.62,514.0,0.09,0.99,-0.01,-0.88,1.41,-5.57
2024-12-06 13:16:33.278,20.7,505.0,0.09,1.0,-0.01,-0.39,3.67,-1.48
2024-12-06 13:16:33.380,21.15,502.0,0.07,0.98,-0.01,0.16,1.6,-1.97
2024-12-06 13:16:33.383,26.32,513.0,0.07,0.99,-0.01,0.1,-0.54,-0.02
2024-12-06 13:16:33.387,29.7,530.0,0.08,0.99,-0.01,-0.02,-1.03,-0.02
2024-12-06 13:16:33.425,26.55,516.0,0.06,0.98,0.0,-0.21,-2.68,-0.26
2024-12-06 13:16:33.442,32.4,507.0,0.07,0.99,0.0,-0.7,-4.45,-0.81
2024-12-06 13:16:33.473,30.82,521.0,0.06,0.98,-0.0,-0.63,-5.55,-1.42
2024-12-06 13:16:33.498,29.7,513.0,0.06,0.99,-0.0,-0.63,-5.97,-1.05
2024-12-06 13:16:33.540,27.45,532.0,0.04,0.99,-0.01,-0.63,-7.5,-1.85
2024-12-06 13:16:33.557,36.0,515.0,0.05,0.99,-0.01,-0.94,-8.23,-2.46
2024-12-06 13:16:33.587,36.0,511.0,0.06,1.01,-0.01,-1.06,-6.95,0.78
2024-12-06 13:16:33.610,35.77,530.0,0.04,0.99,-0.01,-1.0,-7.01,0.59
2024-12-06 13:16:33.667,37.8,511.0,0.02,0.97,-0.01,-0.76,-5.55,0.53
2024-12-06 13:16:33.690,36.0,519.0,0.04,0.98,-0.01,-0.27,-6.22,-1.42
2024-12-06 13:16:33.717,38.92,521.0,0.04,1.01,-0.0,-0.21,-5.55,0.04
2024-12-06 13:16:33.764,37.35,523.0,0.02,0.99,-0.01,0.1,-6.34,-1.18
2024-12-06 13:16:33.772,40.05,525.0,0.03,0.99,-0.01,0.1,-6.34,-0.81
2024-12-06 13:16:33.819,42.08,535.0,0.02,1.0,-0.01,0.04,-5.48,-0.2
2024-12-06 13:16:33.843,45.0,531.0,0.02,0.99,-0.01,-0.21,-4.75,-0.51
2024-12-06 13:16:33.855,40.05,538.0,0.01,0.99,-0.0,-0.08,-4.63,0.23
2024-12-06 13:16:33.882,45.67,532.0,-0.01,0.97,-0.0,-0.15,-5.79,-1.97
2024-12-06 13:16:33.911,43.2,531.0,0.02,0.99,0.0,-0.51,-4.63,-2.03
2024-12-06 13:16:33.956,45.0,529.0,0.0,1.01,-0.01,-0.33,-2.56,-0.38
2024-12-06 13:16:33.967,48.38,542.0,-0.01,1.0,-0.01,-0.27,-2.62,-0.26
2024-12-06 13:16:33.993,45.22,539.0,0.01,1.0,-0.01,-0.08,-2.62,0.17
2024-12-06 13:16:34.21,51.75,541.0,0.0,0.99,-0.01,0.46,-2.56,0.78
2024-12-06 13:16:34.48,49.5,536.0,-0.0,0.99,-0.0,0.89,-2.68,0.78
2024-12-06 13:16:34.77,50.4,539.0,0.01,1.0,-0.0,0.83,-1.52,1.26
2024-12-06 13:16:34.105,52.2,557.0,-0.02,0.98,-0.0,1.5,-1.82,0.78
2024-12-06 13:16:34.131,51.75,549.0,-0.01,0.98,0.0,1.14,-1.52,0.59
2024-12-06 13:16:34.158,52.65,551.0,-0.0,1.0,-0.01,0.83,-0.54,1.63
2024-12-06 13:16:34.187,54.67,543.0,-0.03,0.99,-0.01,1.26,-0.97,1.26
2024-12-06 13:16:34.213,57.82,570.0,-0.0,1.0,0.01,0.4,-0.91,1.02
2024-12-06 13:16:34.242,53.77,558.0,-0.03,1.0,-0.01,0.16,-0.42,2.3
2024-12-06 13:16:34.272,60.07,547.0,-0.01,0.98,0.0,0.22,-1.58,1.02
2024-12-06 13:16:34.372,59.4,561.0,-0.02,1.0,0.0,0.1,-0.72,2.91
2024-12-06 13:16:34.377,62.1,576.0,0.01,1.01,-0.0,0.04,-0.54,2.12
2024-12-06 13:16:34.381,61.88,578.0,-0.01,1.01,-0.01,0.46,-0.3,4.32
2024-12-06 13:16:34.407,69.07,564.0,-0.02,0.98,-0.01,0.95,-1.33,4.8
2024-12-06 13:16:34.434,62.32,549.0,0.0,0.98,-0.01,0.89,-0.17,5.41
2024-12-06 13:16:34.472,64.8,564.0,-0.02,0.99,-0.0,1.62,-0.6,5.05
2024-12-06 13:16:34.487,66.82,585.0,-0.0,1.0,-0.0,0.95,-0.6,5.41
2024-12-06 13:16:34.515,62.1,586.0,-0.02,1.01,-0.01,0.71,-0.6,6.57
2024-12-06 13:16:34.571,68.62,587.0,-0.01,0.98,-0.0,0.77,-2.19,5.96
2024-12-06 13:16:34.577,69.53,570.0,-0.01,1.0,0.0,0.4,-2.07,6.39
2024-12-06 13:16:34.599,71.55,582.0,-0.02,0.99,-0.01,0.59,-1.33,6.27
2024-12-06 13:16:34.625,72.0,584.0,-0.01,0.97,-0.0,0.59,-1.64,5.23
2024-12-06 13:16:34.654,69.53,597.0,-0.0,1.0,0.0,0.22,-1.58,5.54
2024-12-06 13:16:34.681,73.57,583.0,-0.01,1.0,-0.0,-0.02,-2.13,5.78
2024-12-06 13:16:34.708,77.17,598.0,-0.01,0.99,-0.01,0.04,-2.86,5.78
2024-12-06 13:16:34.736,73.57,580.0,-0.0,1.0,0.0,-0.45,-3.04,6.64
2024-12-06 13:16:34.763,78.75,593.0,-0.01,0.99,-0.01,-0.33,-3.17,6.57
2024-12-06 13:16:34.791,78.3,591.0,0.0,0.99,0.01,-0.27,-3.29,6.94
2024-12-06 13:16:34.818,75.38,591.0,0.0,0.99,0.0,-0.02,-3.41,7.86
2024-12-06 13:16:34.847,80.32,591.0,-0.0,0.97,-0.0,-0.08,-2.98,7.49
2024-12-06 13:16:34.874,80.1,606.0,0.01,0.98,0.0,0.46,-3.04,6.45
2024-12-06 13:16:34.901,81.67,607.0,-0.01,0.99,0.0,0.28,-2.8,6.94
2024-12-06 13:16:34.928,79.65,599.0,0.01,0.98,0.0,0.04,-2.98,6.39
2024-12-06 13:16:34.956,83.03,599.0,-0.01,1.01,-0.0,-0.76,-1.52,7.43
2024-12-06 13:16:36.293,85.95,610.0,-0.01,0.99,0.0,0.83,1.53,4.44
2024-12-06 13:16:36.296,81.0,624.0,-0.01,0.99,0.01,0.89,1.6,4.5
2024-12-06 13:16:36.309,85.28,609.0,-0.01,0.99,0.01,0.89,1.66,4.5
2024-12-06 13:16:36.316,85.05,611.0,-0.01,0.99,0.01,0.83,1.78,4.44
2024-12-06 13:16:36.335,86.17,595.0,-0.01,0.99,0.01,0.77,1.9,4.38
2024-12-06 13:16:36.351,85.95,604.0,-0.01,0.99,0.01,0.77,1.96,4.26
2024-12-06 13:16:36.375,85.95,599.0,-0.01,0.99,0.0,0.83,2.02,4.13
2024-12-06 13:16:36.476,87.52,599.0,-0.0,1.0,0.01,0.4,1.78,4.38
2024-12-06 13:16:36.494,83.25,592.0,-0.0,1.02,0.01,0.1,0.86,4.87
2024-12-06 13:16:36.499,88.2,608.0,-0.0,1.03,-0.01,-0.33,1.17,5.6
2024-12-06 13:16:36.502,87.3,597.0,-0.01,1.04,-0.02,-0.33,3.3,6.64
2024-12-06 13:16:36.510,85.72,608.0,-0.02,1.03,-0.0,-0.08,3.0,7.92
2024-12-06 13:16:36.519,82.57,589.0,-0.02,1.03,-0.0,0.22,2.76,8.77
2024-12-06 13:16:36.528,85.5,588.0,-0.02,1.0,-0.0,0.22,2.76,9.32
2024-12-06 13:16:36.533,87.07,591.0,-0.01,0.98,0.0,0.22,3.06,9.32
2024-12-06 13:16:36.561,80.32,599.0,0.0,0.96,-0.0,-0.08,3.43,9.57
2024-12-06 13:16:36.567,79.88,599.0,0.0,0.96,-0.01,-0.08,3.43,9.57
2024-12-06 13:16:36.573,81.9,584.0,0.0,0.97,0.0,-0.15,3.73,9.38
2024-12-06 13:16:36.580,87.07,586.0,0.0,0.98,0.01,-0.08,3.98,8.83
2024-12-06 13:16:36.589,83.92,576.0,0.0,0.99,0.0,0.04,3.79,8.34
2024-12-06 13:16:36.625,79.65,583.0,0.0,1.0,0.0,0.34,3.61,6.57
2024-12-06 13:16:36.630,80.78,580.0,0.01,0.99,0.0,0.65,3.55,5.78
2024-12-06 13:16:36.646,83.47,581.0,0.01,0.99,0.0,0.83,2.94,5.29
2024-12-06 13:16:36.651,85.05,573.0,0.01,0.98,0.0,1.08,3.0,4.68
2024-12-06 13:16:36.656,82.57,594.0,0.02,0.99,0.0,1.14,2.21,4.5
2024-12-06 13:16:36.665,84.82,580.0,0.01,0.98,-0.0,1.26,2.69,4.01
2024-12-06 13:16:36.679,78.97,588.0,0.01,0.98,0.03,1.56,2.02,3.83
2024-12-06 13:16:36.682,82.8,593.0,0.01,0.99,0.0,1.69,2.02,3.58
2024-12-06 13:16:36.687,80.55,563.0,0.0,0.98,-0.01,1.69,2.02,3.58
2024-12-06 13:16:36.694,83.7,585.0,-0.0,0.96,-0.0,2.23,2.14,2.79
2024-12-06 13:16:36.701,83.25,587.0,0.01,0.96,-0.0,2.66,1.29,2.06
2024-12-06 13:16:36.708,82.57,587.0,0.02,0.98,0.0,2.42,1.23,1.75
2024-12-06 13:16:36.716,84.82,582.0,0.02,0.98,0.0,2.05,1.66,1.81
2024-12-06 13:16:36.725,82.57,575.0,0.01,0.99,0.01,2.05,1.66,1.69
2024-12-06 13:16:36.734,77.62,588.0,0.0,1.0,0.01,2.11,1.96,1.69
2024-12-06 13:16:36.740,81.0,587.0,-0.0,1.0,0.01,2.36,1.72,1.57
2024-12-06 13:16:36.750,80.55,587.0,0.0,1.0,0.0,2.23,1.72,1.63
2024-12-06 13:16:36.754,79.42,581.0,0.0,1.0,0.0,1.99,1.96,1.87
2024-12-06 13:16:36.765,83.25,586.0,0.0,1.0,0.0,1.87,1.96,2.12
2024-12-06 13:16:36.771,79.65,578.0,0.0,0.99,0.0,1.87,1.96,2.12
2024-12-06 13:16:36.777,82.8,570.0,-0.0,0.99,0.0,1.81,1.84,2.3
2024-12-06 13:16:36.785,80.32,571.0,-0.0,0.99,0.0,1.5,1.84,2.55
2024-12-06 13:16:36.793,83.25,569.0,-0.0,0.99,0.0,1.32,1.9,2.73
2024-12-06 13:16:36.829,79.65,584.0,0.0,0.99,0.0,0.95,1.84,3.58
2024-12-06 13:16:36.831,83.47,575.0,0.0,0.99,0.0,0.83,1.84,3.77
2024-12-06 13:16:36.838,78.53,579.0,-0.0,0.99,0.0,0.71,1.84,4.01
2024-12-06 13:16:36.847,82.57,579.0,-0.0,1.0,0.0,0.71,1.84,4.01
2024-12-06 13:16:36.853,82.8,593.0,0.0,1.0,0.0,0.59,1.84,4.13
2024-12-06 13:16:36.861,83.03,583.0,0.01,1.0,0.0,0.53,1.78,4.32
2024-12-06 13:16:36.872,81.22,568.0,0.01,0.99,0.0,0.46,1.66,4.5
2024-12-06 13:16:36.882,82.57,577.0,0.01,0.99,0.0,0.4,1.41,4.74
2024-12-06 13:16:36.911,83.03,571.0,0.01,0.99,0.0,0.4,1.41,4.87
2024-12-06 13:16:36.913,80.55,579.0,0.01,0.99,0.0,0.34,1.17,5.05
2024-12-06 13:16:36.920,77.4,560.0,0.01,0.99,0.0,0.34,1.11,5.11
2024-12-06 13:16:36.925,83.25,615.0,0.01,0.99,0.0,0.34,1.11,5.11
2024-12-06 13:16:36.937,80.78,585.0,0.01,0.99,0.0,0.4,1.11,5.17
2024-12-06 13:16:36.939,83.92,576.0,0.01,0.99,0.0,0.34,1.11,5.17
2024-12-06 13:16:36.950,83.03,573.0,0.01,0.99,0.0,0.34,1.11,5.17
2024-12-06 13:16:36.955,81.0,569.0,0.01,0.99,0.0,0.4,1.11,5.11
2024-12-06 13:16:36.969,82.12,579.0,0.01,0.99,0.0,0.34,1.11,5.05
2024-12-06 13:16:36.975,78.97,597.0,0.0,0.99,0.0,0.34,1.11,5.05
2024-12-06 13:16:36.979,79.88,584.0,0.0,0.99,0.0,0.34,1.05,4.99
2024-12-06 13:16:36.983,81.0,601.0,0.0,0.99,-0.0,0.34,1.05,4.87
2024-12-06 13:16:36.994,82.8,586.0,0.0,0.99,-0.0,0.34,1.05,4.74
2024-12-06 13:16:37.0,84.38,576.0,0.0,0.99,-0.0,0.34,0.99,4.5
2024-12-06 13:16:37.6,83.25,586.0,0.0,0.99,-0.0,0.34,0.99,4.5
2024-12-06 13:16:37.15,82.12,581.0,0.0,0.99,-0.0,0.34,0.86,4.44
2024-12-06 13:16:37.53,82.12,575.0,0.0,0.99,-0.0,0.65,0.07,3.83
2024-12-06 13:16:37.60,85.28,571.0,-0.0,0.99,-0.0,0.71,0.01,3.71
2024-12-06 13:16:37.71,78.53,564.0,-0.0,0.99,-0.0,0.65,0.07,3.64
2024-12-06 13:16:37.86,82.57,577.0,-0.0,0.99,-0.0,0.65,0.31,3.46
2024-12-06 13:16:37.98,83.47,580.0,-0.0,0.99,-0.0,0.59,0.31,3.46
2024-12-06 13:16:37.100,84.38,571.0,-0.0,0.99,-0.0,0.59,0.5,3.46
2024-12-06 13:16:37.106,80.78,571.0,-0.0,0.99,-0.0,0.59,0.56,3.46
2024-12-06 13:16:37.114,78.75,571.0,-0.0,0.99,-0.0,0.53,0.74,3.46
2024-12-06 13:16:37.128,82.12,568.0,-0.0,0.99,-0.0,0.53,0.8,3.52
2024-12-06 13:16:37.130,85.05,569.0,-0.0,0.99,-0.0,0.53,0.8,3.52
2024-12-06 13:16:37.140,82.12,565.0,-0.0,0.99,-0.0,0.53,0.92,3.58
2024-12-06 13:16:37.145,84.82,590.0,0.0,0.99,0.0,0.53,1.11,3.58
2024-12-06 13:16:37.152,79.88,570.0,0.0,0.99,0.0,0.53,1.23,3.64
2024-12-06 13:16:37.160,83.25,589.0,0.0,0.99,0.0,0.53,1.35,3.64
2024-12-06 13:16:37.170,82.57,569.0,0.0,0.99,0.0,0.53,1.53,3.64
2024-12-06 13:16:37.176,82.57,580.0,0.0,0.99,0.0,0.46,1.53,3.64
2024-12-06 13:16:37.184,78.07,599.0,-0.0,0.99,0.0,0.4,1.66,3.71
2024-12-06 13:16:37.195,78.53,574.0,-0.0,0.99,0.0,0.4,1.78,3.77
2024-12-06 13:16:37.200,80.1,585.0,0.0,0.99,0.0,0.4,1.78,3.71
2024-12-06 13:16:37.207,83.03,559.0,0.0,0.99,0.0,0.46,1.72,3.89
2024-12-06 13:16:37.215,83.7,584.0,0.0,0.99,0.0,0.46,1.72,3.89
2024-12-06 13:16:37.225,81.9,566.0,0.0,0.99,-0.0,0.4,1.6,3.95
2024-12-06 13:16:37.229,79.88,572.0,0.0,0.99,-0.0,0.46,1.47,4.07
2024-12-06 13:16:37.244,79.2,576.0,0.0,0.99,-0.0,0.59,1.41,4.19
2024-12-06 13:16:37.277,83.47,576.0,0.0,0.99,-0.0,0.71,1.23,4.44
2024-12-06 13:16:37.283,82.8,599.0,0.0,0.99,-0.0,0.71,1.17,4.32
2024-12-06 13:16:37.290,85.05,580.0,0.0,0.99,-0.0,0.71,1.17,4.32
2024-12-06 13:16:37.297,83.7,561.0,0.0,0.99,0.0,0.71,1.11,4.32
2024-12-06 13:16:37.309,80.32,589.0,0.0,0.99,0.0,0.77,0.99,4.32
2024-12-06 13:16:37.313,82.57,568.0,0.0,0.99,0.0,0.77,0.99,4.32
2024-12-06 13:16:37.327,83.7,583.0,0.0,0.99,0.0,0.65,1.11,4.32
2024-12-06 13:16:37.338,82.8,589.0,0.0,0.99,0.0,0.65,1.11,4.26
2024-12-06 13:16:37.341,82.57,575.0,0.0,0.99,0.0,0.59,1.23,4.26
2024-12-06 13:16:37.346,84.6,581.0,0.0,0.99,0.0,0.59,1.35,4.26
2024-12-06 13:16:37.351,81.0,575.0,0.0,0.99,-0.0,0.59,1.35,4.26
2024-12-06 13:16:37.358,81.22,576.0,0.0,0.99,-0.0,0.71,1.23,4.26
2024-12-06 13:16:37.366,83.47,564.0,0.0,0.99,-0.0,0.71,1.17,4.19
2024-12-06 13:16:37.376,80.78,580.0,0.0,0.99,-0.0,0.71,1.17,4.19
2024-12-06 13:16:37.396,82.35,579.0,0.0,0.99,-0.0,0.77,1.17,4.13
2024-12-06 13:16:37.413,85.05,563.0,-0.0,0.99,0.0,0.65,1.11,3.95
2024-12-06 13:16:37.420,82.57,598.0,-0.0,0.99,0.0,0.53,1.11,3.89
2024-12-06 13:16:37.521,82.12,575.0,-0.0,0.99,-0.0,0.28,1.17,3.34
2024-12-06 13:16:37.524,81.22,569.0,-0.0,0.99,-0.0,0.28,1.17,3.34
2024-12-06 13:16:37.532,81.45,580.0,-0.0,0.99,-0.0,0.22,1.23,3.28
2024-12-06 13:16:37.539,79.2,580.0,-0.0,0.99,-0.0,0.22,1.23,3.22
2024-12-06 13:16:37.547,82.35,569.0,-0.0,0.99,-0.0,0.22,1.29,3.22
2024-12-06 13:16:37.559,84.82,587.0,-0.0,0.99,-0.0,0.22,1.29,3.28
2024-12-06 13:16:37.564,83.25,593.0,-0.0,0.99,0.0,0.22,1.29,3.28
2024-12-06 13:16:37.571,84.82,586.0,-0.0,0.99,0.0,0.16,1.29,3.34
2024-12-06 13:16:37.578,83.7,578.0,-0.0,0.99,0.0,0.1,1.35,3.4
2024-12-06 13:16:37.586,80.78,586.0,-0.0,0.99,0.0,0.1,1.47,3.4
2024-12-06 13:16:37.594,82.12,576.0,-0.0,0.99,0.0,0.1,1.53,3.46
2024-12-06 13:16:37.605,84.38,575.0,-0.0,0.99,0.0,0.1,1.53,3.58
2024-12-06 13:16:37.616,80.78,569.0,-0.0,0.99,0.0,0.1,1.53,3.58
2024-12-06 13:16:37.623,84.38,578.0,0.0,0.99,0.0,0.16,1.6,3.64
2024-12-06 13:16:37.637,78.07,586.0,0.0,0.99,-0.0,0.22,1.6,3.83
2024-12-06 13:16:37.640,82.8,580.0,0.0,0.99,-0.0,0.22,1.6,3.89
2024-12-06 13:16:37.651,83.03,581.0,-0.0,0.99,-0.0,0.22,1.6,3.89
2024-12-06 13:16:37.658,79.42,576.0,-0.0,0.99,-0.0,0.22,1.6,4.01
2024-12-06 13:16:37.663,83.25,569.0,-0.0,0.99,-0.0,0.22,1.66,4.07
2024-12-06 13:16:37.683,80.78,567.0,0.0,0.99,0.0,0.22,1.72,4.26
2024-12-06 13:16:37.687,78.97,601.0,0.0,0.99,0.0,0.22,1.72,4.26
2024-12-06 13:16:37.694,82.57,573.0,0.0,0.99,0.0,0.28,1.78,4.32
2024-12-06 13:16:37.726,79.65,589.0,0.0,0.99,-0.0,0.34,1.96,4.44
2024-12-06 13:16:37.733,82.8,570.0,0.0,0.99,-0.0,0.4,1.9,4.38
2024-12-06 13:16:37.741,82.35,592.0,0.0,0.99,-0.0,0.4,1.84,4.38
2024-12-06 13:16:37.747,82.35,574.0,0.0,0.99,-0.0,0.46,1.78,4.32
2024-12-06 13:16:37.756,85.05,597.0,0.0,0.99,-0.0,0.46,1.6,4.26
2024-12-06 13:16:37.776,81.0,594.0,0.0,0.99,-0.0,0.53,1.53,4.26
2024-12-06 13:16:37.779,78.07,584.0,0.0,0.99,0.0,0.46,1.47,4.19
2024-12-06 13:16:37.786,85.05,592.0,0.0,0.99,0.0,0.53,1.41,4.19
2024-12-06 13:16:37.795,82.8,571.0,-0.0,0.99,-0.0,0.59,1.35,4.13
2024-12-06 13:16:37.801,79.2,576.0,-0.0,0.99,-0.0,0.59,1.29,4.13
2024-12-06 13:16:37.815,81.9,577.0,-0.0,0.99,0.0,0.59,1.29,4.13
2024-12-06 13:16:37.819,85.05,590.0,-0.0,0.99,0.0,0.59,1.23,4.07
2024-12-06 13:16:37.845,83.92,579.0,-0.0,0.99,0.0,0.46,1.23,4.01
2024-12-06 13:16:37.853,77.4,578.0,-0.0,0.99,0.0,0.46,1.23,4.01
2024-12-06 13:16:37.857,82.35,577.0,-0.0,0.99,0.0,0.4,1.23,4.01
2024-12-06 13:16:37.861,78.07,596.0,-0.0,0.99,0.0,0.34,1.29,4.01
2024-12-06 13:16:37.881,80.78,583.0,-0.0,0.99,0.0,0.34,1.23,4.01
2024-12-06 13:16:37.884,82.57,592.0,-0.0,0.99,0.0,0.34,1.23,4.01
2024-12-06 13:16:37.894,79.2,591.0,-0.0,0.99,0.0,0.34,1.29,4.01
2024-12-06 13:16:37.901,81.45,592.0,-0.0,0.99,0.0,0.34,1.35,4.07
2024-12-06 13:16:37.907,83.92,577.0,-0.0,0.99,0.0,0.34,1.35,4.13
2024-12-06 13:16:37.916,82.8,581.0,-0.0,0.99,0.0,0.4,1.35,4.13
2024-12-06 13:16:37.970,81.45,588.0,0.0,0.99,0.0,0.4,1.35,4.19
2024-12-06 13:16:38.3,83.47,595.0,0.0,0.99,0.0,0.4,1.35,4.13
2024-12-06 13:16:38.7,81.45,568.0,0.0,0.99,-0.0,0.34,1.41,3.89
2024-12-06 13:16:38.13,84.82,579.0,0.0,0.99,-0.0,0.34,1.29,3.89
2024-12-06 13:16:38.20,79.65,583.0,0.0,0.99,-0.0,0.34,1.05,3.83
2024-12-06 13:16:38.28,84.38,567.0,0.0,0.99,-0.0,0.4,0.86,3.77
2024-12-06 13:16:38.72,82.12,577.0,0.0,0.99,-0.0,0.53,0.56,3.83
2024-12-06 13:16:38.76,82.8,616.0,-0.0,0.99,0.0,0.53,0.62,4.01
2024-12-06 13:16:38.81,77.62,581.0,-0.01,0.99,0.0,0.46,0.74,4.01
2024-12-06 13:16:38.98,81.67,581.0,-0.01,0.99,0.0,0.46,0.92,4.01
2024-12-06 13:16:38.101,82.12,576.0,-0.0,0.99,0.0,0.4,1.17,4.01
2024-12-06 13:16:38.108,78.75,578.0,-0.0,0.99,0.0,0.34,1.23,4.13
2024-12-06 13:16:38.116,83.25,583.0,-0.0,0.99,0.0,0.34,1.29,4.13
2024-12-06 13:16:38.142,78.07,577.0,-0.0,0.99,0.0,0.28,1.41,4.19
2024-12-06 13:16:38.147,85.72,593.0,-0.0,0.99,0.0,0.28,1.41,4.19
2024-12-06 13:16:38.175,82.57,581.0,-0.0,0.99,0.0,0.46,1.47,4.13
2024-12-06 13:16:38.192,82.57,593.0,-0.0,0.99,0.0,0.46,1.47,4.07
2024-12-06 13:16:38.195,83.03,575.0,-0.0,0.99,0.0,0.53,1.41,4.07
2024-12-06 13:16:38.227,79.42,579.0,-0.0,0.99,0.0,0.53,1.41,4.07
2024-12-06 13:16:38.230,79.2,587.0,-0.0,0.99,0.0,0.4,1.17,3.95
2024-12-06 13:16:38.233,83.47,579.0,-0.0,0.99,0.0,0.4,1.17,3.95
2024-12-06 13:16:38.249,82.12,582.0,-0.0,0.99,0.0,0.46,1.17,3.95
2024-12-06 13:16:38.256,77.4,567.0,-0.0,0.99,0.0,0.4,1.17,4.01
2024-12-06 13:16:38.260,81.9,589.0,-0.0,0.99,0.0,0.34,1.11,3.95
2024-12-06 13:16:38.290,81.67,597.0,-0.0,0.99,0.0,0.34,1.05,3.83
2024-12-06 13:16:38.293,80.78,578.0,-0.0,0.99,0.0,0.34,0.92,3.89
2024-12-06 13:16:38.302,83.25,593.0,-0.0,0.99,0.0,0.34,0.92,3.95
2024-12-06 13:16:38.308,85.28,593.0,-0.0,0.99,0.0,0.34,0.92,3.95
2024-12-06 13:16:38.316,83.03,590.0,-0.0,0.99,0.0,0.28,1.05,3.89
2024-12-06 13:16:38.325,81.22,570.0,-0.0,0.99,0.0,0.28,1.11,3.89
2024-12-06 13:16:38.331,83.47,570.0,-0.0,0.99,0.0,0.22,1.23,3.89
2024-12-06 13:16:38.340,79.88,568.0,-0.0,0.99,0.0,0.22,1.41,3.89
2024-12-06 13:16:38.357,83.03,598.0,-0.0,0.99,0.0,0.16,1.53,3.89
2024-12-06 13:16:38.360,82.8,586.0,-0.0,0.99,0.0,0.16,1.53,3.89
2024-12-06 13:16:38.362,78.3,589.0,-0.0,0.99,0.0,0.22,1.53,3.89
2024-12-06 13:16:38.370,82.8,570.0,-0.0,0.99,0.0,0.28,1.53,3.89
2024-12-06 13:16:38.406,82.12,586.0,-0.0,0.99,0.0,0.34,1.47,3.95
2024-12-06 13:16:38.410,80.55,576.0,-0.0,0.99,0.0,0.34,1.53,3.95
2024-12-06 13:16:38.423,80.55,593.0,-0.0,0.99,0.0,0.4,1.53,4.01
2024-12-06 13:16:38.428,83.47,580.0,-0.0,0.99,0.0,0.46,1.53,4.07
2024-12-06 13:16:38.431,81.0,586.0,-0.0,0.99,0.0,0.46,1.53,4.07
2024-12-06 13:16:38.441,84.6,581.0,-0.0,0.99,0.0,0.46,1.6,4.07
2024-12-06 13:16:38.448,84.38,576.0,-0.0,0.99,0.0,0.53,1.6,4.07
2024-12-06 13:16:38.458,82.35,594.0,-0.0,0.99,0.0,0.59,1.53,4.07
2024-12-06 13:16:38.468,85.05,586.0,-0.0,0.99,0.0,0.65,1.35,4.13
2024-12-06 13:16:38.471,84.6,591.0,-0.0,0.99,0.0,0.65,1.29,4.19
2024-12-06 13:16:38.577,84.82,583.0,-0.0,0.99,0.0,0.34,1.78,4.38
2024-12-06 13:16:39.612,83.92,592.0,-0.0,0.99,-0.0,0.83,0.99,3.83
2024-12-06 13:16:39.620,80.1,568.0,0.02,1.03,0.01,0.59,0.8,3.89
2024-12-06 13:16:39.641,77.85,559.0,-0.01,1.12,-0.0,-2.47,2.39,13.9
2024-12-06 13:16:39.691,77.62,566.0,0.02,1.06,-0.06,-0.94,5.93,21.28
2024-12-06 13:16:39.696,69.75,532.0,0.0,0.94,-0.01,-0.27,-1.52,27.33
2024-12-06 13:16:39.720,71.55,537.0,0.01,0.88,-0.03,0.4,-4.81,23.3
2024-12-06 13:16:39.747,71.78,535.0,0.02,0.9,0.02,0.95,0.99,17.01
2024-12-06 13:16:39.777,68.4,559.0,0.02,0.91,0.03,1.62,9.35,7.0
2024-12-06 13:16:39.802,67.05,525.0,0.06,0.96,0.03,1.93,14.05,-1.54
2024-12-06 13:16:39.832,61.2,519.0,0.06,1.02,-0.01,2.54,9.59,-4.9
2024-12-06 13:16:39.869,67.5,537.0,0.03,1.02,-0.03,3.88,2.21,-5.02
2024-12-06 13:16:39.885,62.1,525.0,0.01,1.0,-0.02,3.7,0.8,-4.35
2024-12-06 13:16:39.915,62.55,531.0,-0.01,1.0,-0.02,3.27,3.18,-1.36
2024-12-06 13:16:39.940,57.38,516.0,-0.0,0.99,-0.01,1.75,5.87,0.53
2024-12-06 13:16:39.972,62.1,517.0,0.01,0.98,0.0,0.53,8.8,2.36
2024-12-06 13:16:39.997,61.88,511.0,0.01,0.97,0.01,-0.33,11.42,2.55
2024-12-06 13:16:40.26,59.62,504.0,0.04,0.98,0.01,-0.94,12.22,1.26
2024-12-06 13:16:40.50,57.15,517.0,0.03,1.0,-0.0,-0.33,10.26,0.9
2024-12-06 13:16:40.79,54.67,528.0,0.04,1.0,-0.01,0.1,7.88,0.35
2024-12-06 13:16:40.106,58.5,503.0,0.03,1.01,-0.01,0.46,6.36,1.51
2024-12-06 13:16:40.148,53.77,511.0,0.02,1.0,-0.01,0.89,5.26,2.06
2024-12-06 13:16:40.161,55.57,517.0,0.02,0.98,-0.0,0.77,6.84,2.06
2024-12-06 13:16:40.193,55.8,511.0,0.02,1.0,-0.0,0.71,9.35,3.1
2024-12-06 13:16:40.217,52.88,499.0,0.01,1.0,-0.01,0.59,9.96,4.01
2024-12-06 13:16:40.244,51.3,489.0,0.02,0.98,-0.01,0.16,10.14,4.62
2024-12-06 13:16:40.272,51.3,489.0,0.01,0.98,-0.01,0.16,10.87,4.93
2024-12-06 13:16:40.328,46.12,505.0,0.02,0.99,-0.01,0.22,11.36,4.62
2024-12-06 13:16:40.333,45.9,498.0,0.02,1.0,-0.01,0.4,11.79,4.99
2024-12-06 13:16:40.355,42.3,508.0,0.02,1.01,-0.01,0.28,11.73,6.64
2024-12-06 13:16:40.391,44.1,491.0,0.02,0.99,-0.01,0.65,11.79,6.39
2024-12-06 13:16:40.413,45.67,517.0,0.03,0.99,-0.01,1.08,12.7,7.12
2024-12-06 13:16:40.437,41.4,488.0,0.02,0.99,-0.01,1.62,12.34,6.88
2024-12-06 13:16:40.466,45.9,494.0,0.05,1.0,-0.01,1.75,11.73,6.15
2024-12-06 13:16:40.494,43.88,477.0,0.03,1.01,-0.02,1.87,10.75,7.49
2024-12-06 13:16:40.523,38.7,512.0,0.03,0.99,-0.01,1.93,9.35,6.45
2024-12-06 13:16:40.550,38.02,471.0,0.05,0.99,-0.01,2.17,10.32,7.31
2024-12-06 13:16:40.575,36.22,473.0,0.02,0.99,-0.02,2.42,10.45,6.82
2024-12-06 13:16:40.668,36.0,479.0,0.02,0.98,-0.01,2.23,10.45,6.15
2024-12-06 13:16:40.685,34.42,472.0,0.04,0.99,-0.01,1.75,10.14,5.6
2024-12-06 13:16:40.735,30.15,475.0,0.02,0.99,-0.01,1.62,10.63,5.78
2024-12-06 13:16:40.739,33.3,472.0,0.04,0.99,-0.01,1.01,10.75,4.93
2024-12-06 13:16:40.776,30.82,472.0,0.04,1.0,-0.01,1.26,10.75,5.48
2024-12-06 13:16:40.802,31.5,466.0,0.03,0.99,-0.01,0.77,10.99,5.48
2024-12-06 13:16:40.822,30.6,482.0,0.05,0.98,-0.01,0.71,11.24,6.03
2024-12-06 13:16:40.850,26.77,477.0,0.04,0.98,-0.01,0.53,12.09,6.03
2024-12-06 13:16:40.878,29.47,480.0,0.04,0.99,-0.01,0.95,11.48,6.27
2024-12-06 13:16:40.906,24.3,493.0,0.04,0.99,-0.02,0.59,12.4,5.29
2024-12-06 13:16:40.936,22.95,462.0,0.05,0.99,-0.01,0.71,12.15,5.23
2024-12-06 13:16:40.960,25.88,463.0,0.05,0.99,-0.01,1.08,11.67,4.56
2024-12-06 13:16:41.20,24.97,460.0,0.07,0.99,-0.01,1.14,12.7,5.48
2024-12-06 13:16:41.29,22.95,464.0,0.04,0.99,-0.01,1.75,12.7,6.51
2024-12-06 13:16:41.43,20.25,454.0,0.06,0.98,-0.01,1.75,12.7,4.8
2024-12-06 13:16:41.71,18.9,477.0,0.03,0.98,-0.01,2.05,13.07,5.96
2024-12-06 13:16:41.98,21.6,480.0,0.04,0.98,-0.0,1.62,12.95,2.85
2024-12-06 13:16:41.131,15.07,463.0,0.06,1.0,-0.02,1.81,13.8,3.83
2024-12-06 13:16:41.156,19.12,451.0,0.04,1.0,-0.01,1.69,14.53,5.9
2024-12-06 13:16:41.182,13.27,459.0,0.05,0.99,-0.02,1.2,14.84,6.7
2024-12-06 13:16:41.211,16.88,476.0,0.06,0.99,-0.02,0.71,15.08,7.86
2024-12-06 13:16:41.239,13.5,456.0,0.05,0.99,-0.01,0.77,13.5,8.47
2024-12-06 13:16:41.269,12.38,449.0,0.07,0.98,-0.01,0.65,11.91,8.28
2024-12-06 13:16:41.295,10.57,469.0,0.07,0.98,0.0,0.59,10.2,7.0
2024-12-06 13:16:41.320,10.8,467.0,0.09,0.98,0.01,0.34,9.9,6.21
2024-12-06 13:16:41.347,13.27,454.0,0.11,1.0,0.0,0.28,8.74,7.43
2024-12-06 13:16:41.379,9.68,468.0,0.09,0.99,0.0,0.53,6.23,8.41
2024-12-06 13:16:41.403,9.68,442.0,0.1,0.98,-0.0,0.1,2.39,8.22
2024-12-06 13:16:41.451,7.42,459.0,0.1,0.99,-0.01,0.04,0.07,9.99
2024-12-06 13:16:41.459,7.65,452.0,0.08,0.99,0.0,-0.08,-1.88,11.46
2024-12-06 13:16:41.486,5.85,451.0,0.08,0.98,0.01,-0.7,-3.17,10.97
2024-12-06 13:16:41.513,6.75,444.0,0.08,0.98,0.01,-1.06,-5.12,8.83
2024-12-06 13:16:41.540,5.85,442.0,0.11,0.98,0.0,-1.49,-5.18,7.98
2024-12-06 13:16:41.589,1.12,482.0,0.12,1.0,-0.01,-1.55,-3.1,11.03
2024-12-06 13:16:42.875,0.0,458.0,0.12,0.99,-0.01,0.77,1.84,4.87
2024-12-06 13:16:44.454,1.12,499.0,0.12,0.98,-0.0,1.5,-6.4,2.85
2024-12-06 13:16:44.462,0.67,480.0,0.11,0.98,-0.01,1.62,-6.03,3.22
2024-12-06 13:16:44.566,2.02,466.0,0.11,0.98,-0.02,-0.7,2.94,4.74
2024-12-06 13:16:44.571,-3.38,458.0,0.11,0.98,-0.02,-0.76,3.37,4.68
2024-12-06 13:16:44.585,2.47,461.0,0.12,0.98,-0.02,-0.76,4.16,4.56
2024-12-06 13:16:44.623,0.0,477.0,0.12,0.98,-0.02,-0.76,4.16,4.56
2024-12-06 13:16:44.626,1.57,454.0,0.13,0.98,-0.02,-0.57,4.59,4.19
2024-12-06 13:16:45.636,0.45,476.0,0.12,0.98,-0.01,0.71,-1.21,4.56
2024-12-06 13:16:45.643,-1.8,483.0,0.11,0.98,0.0,1.01,-2.98,3.22
2024-12-06 13:16:45.672,-0.67,486.0,0.06,0.95,-0.01,1.69,-7.19,-1.91
2024-12-06 13:16:45.698,-1.8,492.0,0.11,0.97,-0.0,1.32,-9.82,-5.39
2024-12-06 13:16:45.738,-0.67,492.0,0.11,0.99,-0.0,1.5,-10.86,-6.73
2024-12-06 13:16:45.762,-0.45,493.0,0.11,0.99,-0.02,1.38,-10.61,-5.21
2024-12-06 13:16:45.780,3.6,488.0,0.09,0.99,-0.02,0.77,-9.15,-4.35
2024-12-06 13:16:45.810,6.75,501.0,0.09,0.99,-0.03,0.77,-6.71,-3.19
2024-12-06 13:16:45.916,10.8,483.0,0.07,0.99,-0.02,0.46,-4.2,-3.62
2024-12-06 13:16:45.922,11.7,503.0,0.08,0.99,-0.02,0.83,0.25,-2.28
2024-12-06 13:16:45.945,11.25,513.0,0.09,1.0,-0.02,0.83,0.68,-1.18
2024-12-06 13:16:45.972,12.15,490.0,0.09,1.0,-0.02,0.95,0.25,-0.2
2024-12-06 13:16:46.0,15.75,489.0,0.07,0.98,-0.02,1.08,-1.21,-0.69
2024-12-06 13:16:46.41,14.17,516.0,0.08,0.98,-0.02,1.08,-1.88,-1.3
2024-12-06 13:16:46.81,19.57,507.0,0.09,0.99,-0.02,0.83,-1.15,-0.26
2024-12-06 13:16:46.83,13.5,492.0,0.06,0.98,-0.01,0.53,-1.27,0.35
2024-12-06 13:16:46.110,20.92,501.0,0.06,0.97,-0.02,0.16,-2.98,-1.42
2024-12-06 13:16:46.141,15.52,506.0,0.08,0.99,-0.01,-0.27,-1.58,0.04
2024-12-06 13:16:46.525,33.52,516.0,0.02,0.99,-0.03,-0.15,-9.45,0.29
2024-12-06 13:16:46.548,29.7,529.0,0.03,0.99,-0.02,-0.57,-8.78,0.59
2024-12-06 13:16:46.576,38.25,511.0,0.04,1.0,-0.03,-0.7,-7.13,1.02
2024-12-06 13:16:46.603,34.2,518.0,0.02,1.0,-0.02,-0.33,-5.55,2.67
2024-12-06 13:16:46.658,36.0,538.0,0.03,0.98,-0.02,-0.39,-5.61,1.39
2024-12-06 13:16:46.661,37.8,511.0,0.03,0.98,-0.01,-0.02,-4.51,2.61
2024-12-06 13:16:46.687,37.58,541.0,0.02,0.98,-0.02,0.4,-4.39,1.26
2024-12-06 13:16:46.720,38.02,534.0,0.02,0.99,-0.01,0.59,-2.62,1.63
2024-12-06 13:16:46.741,42.52,523.0,0.01,0.99,-0.0,0.22,-1.15,1.45
2024-12-06 13:16:46.768,36.0,518.0,0.03,1.0,-0.01,-0.27,0.07,0.72
2024-12-06 13:16:46.807,40.72,543.0,0.02,1.0,-0.02,-0.15,0.86,2.18
2024-12-06 13:16:46.825,42.97,533.0,0.01,0.99,-0.02,0.04,0.56,1.26
2024-12-06 13:16:46.967,45.9,523.0,0.03,0.99,-0.01,0.22,0.86,2.12
2024-12-06 13:16:46.971,43.2,583.0,0.01,1.01,-0.02,0.04,0.37,0.59
2024-12-06 13:16:46.989,51.3,548.0,0.02,0.99,-0.02,0.16,-0.11,1.2
2024-12-06 13:16:47.15,50.62,534.0,-0.0,0.98,0.0,0.77,-0.05,2.06
2024-12-06 13:16:47.42,52.42,548.0,0.01,0.98,-0.01,0.46,0.13,0.53
2024-12-06 13:16:47.96,51.75,537.0,0.01,0.99,-0.0,0.28,2.33,0.9
2024-12-06 13:16:47.99,48.6,535.0,0.03,1.01,-0.01,-0.33,3.3,2.67
2024-12-06 13:16:47.126,56.02,541.0,0.01,1.0,-0.01,-0.33,1.53,2.67
2024-12-06 13:16:47.154,52.2,557.0,0.02,0.99,-0.01,-0.51,0.92,2.85
2024-12-06 13:16:47.202,59.4,551.0,0.02,0.99,0.0,-0.39,0.74,2.49
2024-12-06 13:16:47.208,54.0,561.0,0.03,1.0,-0.01,-0.39,-0.17,2.61
2024-12-06 13:16:47.237,54.45,543.0,0.02,1.0,-0.01,0.04,-2.01,3.34
2024-12-06 13:16:47.265,60.07,548.0,0.02,0.99,-0.01,0.71,-4.81,3.4
2024-12-06 13:16:47.293,55.8,566.0,0.0,0.98,-0.01,1.2,-6.22,3.58
2024-12-06 13:16:47.324,59.85,605.0,0.0,0.98,0.01,0.83,-5.73,2.85
2024-12-06 13:16:47.346,60.07,574.0,-0.01,0.98,-0.0,0.71,-3.96,2.06
2024-12-06 13:16:47.376,60.52,555.0,0.0,1.0,-0.0,-0.02,-2.62,2.24
2024-12-06 13:16:47.402,63.0,577.0,0.0,1.0,-0.01,-0.82,-2.43,2.49
2024-12-06 13:16:47.430,67.5,559.0,0.01,0.99,-0.01,-1.06,-3.47,2.42
2024-12-06 13:16:47.457,61.2,585.0,0.0,1.0,-0.01,-0.7,-3.84,3.28
2024-12-06 13:16:47.487,66.38,575.0,0.0,0.98,-0.01,-0.21,-5.0,2.3
2024-12-06 13:16:47.512,68.62,571.0,0.02,1.0,-0.01,0.22,-6.52,2.73
2024-12-06 13:16:47.552,68.62,565.0,-0.0,1.01,-0.0,1.01,-7.32,3.28
2024-12-06 13:16:47.567,69.07,561.0,-0.0,0.99,-0.01,1.32,-8.17,3.95
2024-12-06 13:16:47.595,68.85,580.0,-0.01,1.0,-0.0,0.65,-7.13,5.11
2024-12-06 13:16:47.622,73.35,586.0,-0.02,0.97,-0.0,0.71,-6.64,5.11
2024-12-06 13:16:47.650,74.03,568.0,0.0,0.98,0.0,0.4,-5.12,5.17
2024-12-06 13:16:47.677,74.92,581.0,-0.01,1.0,-0.0,-0.51,-3.04,6.88
2024-12-06 13:16:47.706,75.38,574.0,-0.0,0.98,-0.01,-0.08,-3.04,6.45
2024-12-06 13:16:47.733,74.25,591.0,-0.01,1.0,-0.01,-0.94,-2.62,7.37
2024-12-06 13:16:47.773,76.95,607.0,-0.01,0.98,-0.0,-0.82,-3.17,6.33
2024-12-06 13:16:47.787,70.42,597.0,0.01,1.01,-0.01,-0.76,-3.9,5.96
2024-12-06 13:16:47.815,75.6,592.0,-0.0,0.99,-0.01,0.28,-4.2,6.09
2024-12-06 13:16:47.843,80.32,613.0,-0.0,0.99,-0.01,0.34,-4.81,5.48
2024-12-06 13:16:47.870,80.55,587.0,0.0,1.0,-0.0,0.04,-4.51,6.27
2024-12-06 13:16:47.901,80.1,605.0,-0.02,0.98,-0.0,0.4,-3.47,5.84
2024-12-06 13:16:48.14,82.8,591.0,-0.0,0.98,-0.0,0.1,-3.29,5.6
2024-12-06 13:16:48.17,78.53,591.0,0.0,0.98,0.0,-0.21,-1.4,4.99
2024-12-06 13:16:49.288,85.95,595.0,0.0,0.99,0.01,0.59,-0.6,3.28
2024-12-06 13:16:49.295,84.15,596.0,-0.0,0.99,0.01,0.59,-0.66,3.28
2024-12-06 13:16:49.302,84.38,596.0,-0.0,0.99,0.01,0.59,-0.66,3.28
2024-12-06 13:16:49.312,83.92,595.0,-0.0,0.99,0.01,0.59,-0.72,3.28
2024-12-06 13:16:49.318,86.17,600.0,-0.01,0.99,0.01,0.65,-0.72,3.28
2024-12-06 13:16:49.353,87.3,601.0,-0.01,1.0,0.01,0.77,-0.05,3.34
2024-12-06 13:16:49.361,86.85,617.0,-0.0,1.0,0.01,0.83,0.07,3.4
2024-12-06 13:16:49.368,80.1,598.0,-0.0,1.0,0.01,0.89,0.19,3.52
2024-12-06 13:16:49.371,85.72,598.0,-0.0,1.0,0.01,0.95,0.31,3.64
2024-12-06 13:16:49.382,87.07,593.0,-0.0,1.0,0.01,1.08,0.44,3.71
2024-12-06 13:16:49.387,82.35,595.0,-0.0,1.0,0.01,1.08,0.44,3.71
2024-12-06 13:16:49.394,84.6,585.0,-0.0,1.0,0.0,1.14,0.44,3.89
2024-12-06 13:16:49.402,82.35,594.0,-0.0,1.0,0.0,1.2,0.5,3.95
2024-12-06 13:16:49.412,81.67,604.0,-0.0,1.0,0.0,1.2,0.5,4.13
2024-12-06 13:16:49.418,81.9,599.0,-0.0,1.0,0.0,1.26,0.5,4.26
2024-12-06 13:16:49.441,84.15,603.0,-0.0,0.99,0.0,1.26,0.5,4.26
2024-12-06 13:16:49.455,81.45,591.0,-0.0,0.99,0.0,1.38,0.62,4.68
2024-12-06 13:16:49.457,83.7,610.0,-0.0,0.99,0.0,1.44,0.99,4.99
2024-12-06 13:16:49.463,85.95,592.0,0.0,0.99,0.0,1.44,0.99,4.99
2024-12-06 13:16:49.474,85.95,587.0,0.0,0.99,0.0,1.44,1.23,5.17
2024-12-06 13:16:49.479,83.7,595.0,0.0,0.99,0.0,1.44,1.41,5.23
2024-12-06 13:16:49.487,82.57,596.0,0.0,0.99,0.0,1.38,1.53,5.41
2024-12-06 13:16:49.494,85.28,588.0,0.0,0.99,0.0,1.38,1.66,5.48
2024-12-06 13:16:49.502,83.25,627.0,0.0,0.99,0.0,1.26,1.35,5.72
2024-12-06 13:16:49.510,85.95,594.0,0.0,1.0,0.0,1.26,1.35,5.72
2024-12-06 13:16:49.517,85.5,593.0,0.0,1.01,0.0,1.01,1.41,6.03
2024-12-06 13:16:49.527,86.62,609.0,0.0,1.01,0.01,1.08,1.47,6.27
2024-12-06 13:16:49.536,85.95,593.0,0.01,1.02,-0.01,1.01,1.35,6.94
2024-12-06 13:16:49.543,85.5,599.0,0.01,1.02,-0.01,0.89,3.37,7.73
2024-12-06 13:16:49.581,89.1,597.0,0.0,1.02,-0.01,0.89,3.0,8.47
2024-12-06 13:16:49.589,87.75,592.0,0.0,0.97,0.0,1.2,2.76,9.14
2024-12-06 13:16:49.608,81.67,589.0,0.0,0.96,0.0,1.44,3.37,8.65
2024-12-06 13:16:49.611,80.78,589.0,0.01,0.98,-0.0,1.08,2.82,8.16
2024-12-06 13:16:49.618,84.38,596.0,0.01,0.98,-0.0,1.38,3.55,7.31
2024-12-06 13:16:49.623,81.67,589.0,-0.0,0.97,0.01,1.38,3.55,7.31
2024-12-06 13:16:49.632,86.62,610.0,0.0,0.97,0.01,1.99,2.39,6.03
2024-12-06 13:16:49.648,79.65,593.0,0.02,1.0,0.01,1.44,2.39,4.68
2024-12-06 13:16:49.666,79.88,588.0,0.01,1.0,0.01,1.87,2.02,3.77
2024-12-06 13:16:49.678,80.1,599.0,0.01,1.0,0.01,1.87,2.02,3.77
2024-12-06 13:16:49.685,87.07,599.0,0.01,1.0,0.01,1.87,1.96,3.64
2024-12-06 13:16:49.692,83.47,589.0,0.01,1.0,0.01,1.81,2.14,3.71
2024-12-06 13:16:49.697,87.3,604.0,0.01,1.0,0.01,1.99,2.08,3.89
2024-12-06 13:16:49.735,81.22,610.0,0.01,0.99,0.0,2.05,2.14,4.07
2024-12-06 13:16:49.739,83.25,616.0,0.01,0.98,-0.0,1.81,2.27,4.68
2024-12-06 13:16:49.744,82.57,601.0,0.01,0.98,-0.0,1.81,2.27,4.8
2024-12-06 13:16:49.757,87.75,598.0,0.01,0.99,-0.0,1.75,2.21,4.93
2024-12-06 13:16:49.760,82.8,585.0,0.01,0.99,-0.0,1.62,2.14,4.99
2024-12-06 13:16:49.768,81.22,579.0,0.01,0.99,-0.0,1.56,2.02,5.05
2024-12-06 13:16:49.804,85.28,586.0,0.01,0.99,0.0,1.26,1.9,4.93
2024-12-06 13:16:49.807,80.78,586.0,0.01,0.99,0.0,1.2,1.96,4.8
2024-12-06 13:16:49.814,84.6,588.0,0.01,0.99,0.0,1.2,1.96,4.8
2024-12-06 13:16:49.822,85.5,594.0,0.01,0.99,0.0,1.26,1.9,4.74
2024-12-06 13:16:49.828,86.85,585.0,0.01,0.99,0.0,1.26,1.9,4.68
2024-12-06 13:16:49.836,86.17,596.0,0.01,0.99,0.0,1.32,1.84,4.62
2024-12-06 13:16:49.843,83.7,602.0,0.01,0.99,0.0,1.26,1.78,4.5
2024-12-06 13:16:49.851,85.28,587.0,0.01,0.98,0.0,1.26,1.72,4.5
2024-12-06 13:16:49.861,81.9,585.0,0.01,0.98,-0.0,1.26,1.72,4.5
2024-12-06 13:16:49.869,81.45,584.0,0.01,0.98,-0.0,1.2,1.66,4.5
2024-12-06 13:16:49.874,84.38,585.0,0.01,0.99,-0.0,1.14,1.6,4.56
2024-12-06 13:16:49.883,81.67,581.0,0.01,0.99,-0.0,1.01,1.6,4.56
2024-12-06 13:16:49.890,85.72,592.0,0.01,0.99,-0.0,0.95,1.6,4.56
2024-12-06 13:16:49.900,82.8,598.0,0.01,0.99,-0.0,0.89,1.6,4.62
2024-12-06 13:16:49.911,87.52,588.0,0.01,0.99,0.0,0.89,1.6,4.62
2024-12-06 13:16:49.919,85.72,610.0,0.01,0.99,0.0,0.77,1.66,4.56
2024-12-06 13:16:49.924,85.28,602.0,0.01,0.99,0.0,0.65,1.78,4.56
2024-12-06 13:16:49.930,82.12,583.0,0.01,0.99,0.0,0.53,1.9,4.44
2024-12-06 13:16:49.940,83.7,637.0,0.01,0.99,0.0,0.46,1.9,4.38
2024-12-06 13:16:49.945,85.28,604.0,0.01,0.99,0.0,0.34,1.96,4.19
2024-12-06 13:16:49.953,86.62,601.0,0.01,0.99,0.0,0.34,1.96,4.19
2024-12-06 13:16:49.970,84.82,591.0,0.01,0.99,-0.0,0.22,1.84,4.13
2024-12-06 13:16:49.981,83.7,585.0,0.01,0.99,-0.0,0.22,1.47,3.95
2024-12-06 13:16:49.983,87.3,578.0,0.01,0.99,-0.0,0.28,1.17,3.89
2024-12-06 13:16:49.996,85.5,589.0,0.02,0.99,-0.0,0.28,1.17,3.89
2024-12-06 13:16:50.23,82.57,592.0,0.01,0.99,-0.0,0.77,0.5,4.01
2024-12-06 13:16:50.30,82.8,601.0,0.01,0.99,-0.0,0.77,0.5,4.01
2024-12-06 13:16:50.37,82.57,592.0,0.01,0.99,-0.0,0.77,0.44,4.01
2024-12-06 13:16:50.45,84.38,582.0,0.01,0.99,-0.0,0.77,0.5,4.01
2024-12-06 13:16:50.53,86.62,596.0,0.01,0.99,-0.0,0.71,0.56,4.07
2024-12-06 13:16:50.63,84.6,593.0,0.01,0.99,-0.0,0.71,0.56,4.01
2024-12-06 13:16:50.69,81.9,579.0,0.01,0.99,-0.0,0.71,0.68,4.01
2024-12-06 13:16:50.178,87.3,585.0,0.01,0.99,-0.0,0.71,0.74,4.01
2024-12-06 13:16:50.192,81.45,588.0,0.01,0.99,-0.0,0.59,1.35,4.32
2024-12-06 13:16:50.203,84.38,590.0,0.01,0.99,-0.01,0.53,1.35,4.32
2024-12-06 13:16:50.217,83.03,597.0,0.01,0.99,-0.01,0.59,1.05,4.38
2024-12-06 13:16:50.220,82.8,601.0,0.01,0.99,-0.0,0.59,1.05,4.38
2024-12-06 13:16:50.252,84.38,586.0,0.02,0.99,-0.0,0.59,0.86,4.32
2024-12-06 13:16:50.255,85.28,630.0,0.01,0.99,-0.0,0.53,0.86,4.38
2024-12-06 13:16:50.258,86.4,586.0,0.01,0.99,-0.0,0.53,0.86,4.38
2024-12-06 13:16:50.263,81.67,587.0,0.01,0.99,-0.0,0.46,0.99,4.38
2024-12-06 13:16:50.272,82.8,591.0,0.01,0.99,0.0,0.34,1.23,4.38
2024-12-06 13:16:50.283,84.6,593.0,0.01,0.99,0.0,0.28,1.41,4.38
2024-12-06 13:16:50.288,84.15,583.0,0.01,0.99,0.0,0.22,1.66,4.38
2024-12-06 13:16:50.295,85.05,590.0,0.01,0.99,0.0,0.16,1.78,4.32
2024-12-06 13:16:50.303,82.8,589.0,0.01,0.99,0.0,0.16,1.78,4.32
2024-12-06 13:16:50.312,86.85,603.0,0.01,0.99,-0.0,0.04,1.9,4.19
2024-12-06 13:16:50.320,83.92,597.0,0.01,0.99,-0.0,0.04,1.96,4.13
2024-12-06 13:16:50.329,80.55,596.0,0.01,0.99,-0.0,0.04,1.9,4.07
2024-12-06 13:16:50.341,87.3,582.0,0.01,0.99,-0.0,0.04,1.84,4.01
2024-12-06 13:16:50.344,83.47,584.0,0.01,0.99,-0.0,-0.02,1.72,3.89
2024-12-06 13:16:50.355,86.4,586.0,0.01,0.99,-0.0,-0.02,1.72,3.89
2024-12-06 13:16:50.360,79.42,584.0,0.01,0.99,-0.0,-0.02,1.66,3.89
2024-12-06 13:16:50.372,86.62,594.0,0.01,0.99,-0.0,-0.02,1.6,3.83
2024-12-06 13:16:50.375,82.35,577.0,0.01,0.99,-0.0,-0.02,1.53,3.83
2024-12-06 13:16:50.382,84.38,630.0,0.01,0.99,-0.0,-0.02,1.47,3.83
2024-12-06 13:16:50.390,81.45,589.0,0.01,0.99,-0.0,-0.02,1.47,3.83
2024-12-06 13:16:50.405,82.35,589.0,0.01,0.99,-0.0,-0.02,1.41,3.89
2024-12-06 13:16:50.408,82.12,587.0,0.01,0.99,-0.0,-0.02,1.35,3.89
2024-12-06 13:16:50.411,85.5,587.0,0.01,0.99,-0.0,-0.02,1.35,3.95
2024-12-06 13:16:50.430,85.72,607.0,0.01,0.99,-0.0,-0.08,1.35,3.89
2024-12-06 13:16:50.445,86.62,581.0,0.01,0.99,-0.0,-0.08,1.35,3.89
2024-12-06 13:16:50.450,82.57,582.0,0.01,0.99,-0.0,-0.08,1.29,3.89
2024-12-06 13:16:50.477,87.52,585.0,0.02,1.0,-0.0,-0.02,1.17,3.95
2024-12-06 13:16:50.479,86.4,583.0,0.02,1.0,-0.0,-0.02,1.11,3.95
2024-12-06 13:16:50.492,85.72,606.0,0.02,1.0,-0.0,0.1,0.99,4.07
2024-12-06 13:16:50.497,84.6,590.0,0.02,1.0,-0.0,0.16,0.92,4.19
2024-12-06 13:16:50.502,79.42,583.0,0.02,1.0,-0.0,0.28,0.86,4.32
2024-12-06 13:16:50.514,82.35,583.0,0.02,0.99,-0.0,0.28,0.86,4.32
2024-12-06 13:16:50.518,82.57,604.0,0.02,0.99,-0.0,0.4,0.8,4.44
2024-12-06 13:16:50.526,85.5,592.0,0.02,0.99,-0.0,0.46,0.8,4.44
2024-12-06 13:16:50.534,85.28,593.0,0.01,0.99,-0.0,0.53,0.8,4.56
2024-12-06 13:16:50.541,80.1,594.0,0.01,0.99,-0.0,0.59,0.86,4.56
2024-12-06 13:16:50.549,83.7,588.0,0.01,0.99,-0.0,0.59,0.99,4.62
2024-12-06 13:16:50.557,85.72,597.0,0.01,0.99,0.0,0.59,0.99,4.62
2024-12-06 13:16:50.568,88.65,614.0,0.01,0.99,0.0,0.59,1.11,4.68
2024-12-06 13:16:50.577,82.57,591.0,0.01,0.99,-0.0,0.53,1.29,4.74
2024-12-06 13:16:50.587,82.12,591.0,0.01,0.99,0.0,0.53,1.47,4.8
2024-12-06 13:16:50.591,85.05,585.0,0.01,0.99,0.0,0.53,1.6,4.8
2024-12-06 13:16:50.597,82.12,592.0,0.01,0.99,-0.0,0.53,1.6,4.8
2024-12-06 13:16:50.603,85.05,592.0,0.01,0.99,-0.0,0.53,1.66,4.87
2024-12-06 13:16:50.611,75.6,598.0,0.01,0.99,-0.0,0.53,1.72,4.93
2024-12-06 13:16:50.619,87.3,624.0,0.01,0.99,-0.0,0.53,1.78,4.93
2024-12-06 13:16:50.641,81.45,607.0,0.01,0.99,-0.0,0.46,1.84,4.93
2024-12-06 13:16:50.643,82.8,636.0,0.01,0.99,-0.0,0.46,1.84,4.87
2024-12-06 13:16:50.651,84.38,589.0,0.01,0.99,-0.0,0.46,1.78,4.8
2024-12-06 13:16:50.661,82.57,593.0,0.02,0.99,-0.0,0.46,1.72,4.74
2024-12-06 13:16:50.669,81.45,608.0,0.02,0.99,-0.0,0.46,1.66,4.62
2024-12-06 13:16:50.673,87.07,594.0,0.02,0.99,-0.0,0.46,1.6,4.5
2024-12-06 13:16:50.682,83.7,591.0,0.02,0.99,-0.0,0.46,1.6,4.5
2024-12-06 13:16:50.692,84.15,581.0,0.01,0.99,-0.0,0.46,1.53,4.44
2024-12-06 13:16:50.700,85.05,590.0,0.01,0.99,0.0,0.53,1.53,4.32
2024-12-06 13:16:50.704,87.52,589.0,0.02,0.99,0.0,0.59,1.53,4.19
2024-12-06 13:16:50.712,83.03,596.0,0.02,0.99,0.0,0.65,1.41,4.07
2024-12-06 13:16:50.720,84.15,606.0,0.02,0.99,0.0,0.77,1.35,4.01
2024-12-06 13:16:50.750,81.9,595.0,0.02,0.99,0.0,0.83,1.23,3.89
2024-12-06 13:16:50.760,85.95,601.0,0.01,0.99,0.0,0.83,1.29,3.77
2024-12-06 13:16:51.766,84.6,603.0,0.01,0.99,0.0,0.65,1.17,3.64
2024-12-06 13:16:51.793,81.0,568.0,0.02,1.02,0.01,0.65,0.92,3.89
2024-12-06 13:16:51.833,81.22,555.0,0.02,1.1,0.0,-1.92,2.21,12.49
2024-12-06 13:16:51.848,75.15,540.0,0.04,1.1,0.01,-2.34,2.39,23.6
2024-12-06 13:16:51.876,71.32,537.0,-0.01,0.96,-0.04,-1.67,-4.63,30.01
2024-12-06 13:16:51.912,69.75,546.0,0.01,0.88,-0.02,-0.51,-6.64,26.59
2024-12-06 13:16:51.932,67.28,537.0,0.04,0.89,0.03,-0.27,-1.15,20.73
2024-12-06 13:16:51.969,72.0,523.0,0.05,0.94,0.04,-0.08,7.88,12.13
2024-12-06 13:16:51.992,65.7,552.0,0.1,0.99,0.04,0.59,11.85,3.83
2024-12-06 13:16:52.17,70.65,519.0,0.1,1.0,-0.02,2.05,6.05,-0.51
2024-12-06 13:16:52.54,59.4,532.0,0.07,1.0,-0.02,3.82,-1.4,-2.76
2024-12-06 13:16:52.71,62.1,520.0,0.06,1.0,-0.0,4.68,-2.98,-2.4
2024-12-06 13:16:52.99,65.03,503.0,0.02,0.98,0.0,4.92,0.92,-1.91
2024-12-06 13:16:52.212,58.5,515.0,0.03,0.98,0.0,3.76,3.61,-1.18
2024-12-06 13:16:52.534,49.27,486.0,0.04,0.99,-0.01,1.38,11.91,8.65
2024-12-06 13:16:52.561,47.7,503.0,0.05,1.0,-0.01,1.5,10.38,9.02
2024-12-06 13:16:52.589,49.5,480.0,0.04,1.0,-0.01,1.81,8.92,8.83
2024-12-06 13:16:52.616,45.45,476.0,0.03,0.98,-0.01,1.99,8.31,7.43
2024-12-06 13:16:52.644,45.9,484.0,0.03,0.98,-0.0,2.05,8.31,5.54
2024-12-06 13:16:52.673,41.17,476.0,0.04,1.0,-0.01,1.81,8.31,5.66
2024-12-06 13:16:52.701,42.3,478.0,0.05,1.01,-0.0,1.38,7.33,7.0
2024-12-06 13:16:52.746,42.75,479.0,0.04,0.98,-0.0,1.2,7.39,7.31
2024-12-06 13:16:52.758,41.4,492.0,0.03,0.96,-0.0,1.2,8.74,7.12
2024-12-06 13:16:52.782,36.67,477.0,0.04,0.97,0.0,0.89,9.96,5.29
2024-12-06 13:16:52.810,41.62,479.0,0.05,1.0,-0.01,0.89,10.63,4.87
2024-12-06 13:16:52.838,34.42,472.0,0.04,0.99,-0.0,0.95,9.84,5.05
2024-12-06 13:16:52.869,36.67,472.0,0.05,0.98,-0.0,0.71,9.65,3.71
2024-12-06 13:16:52.893,35.55,489.0,0.06,1.0,-0.0,0.83,10.32,4.38
2024-12-06 13:16:52.920,34.42,479.0,0.03,0.99,-0.01,1.26,9.35,4.19
2024-12-06 13:16:52.961,36.45,472.0,0.05,0.98,-0.0,1.44,8.92,3.28
2024-12-06 13:16:52.978,35.1,479.0,0.03,0.99,-0.01,1.44,10.14,2.36
2024-12-06 13:16:53.17,33.97,481.0,0.03,0.99,-0.0,1.26,10.45,1.26
2024-12-06 13:16:53.31,26.1,471.0,0.05,1.01,-0.01,1.14,11.12,2.55
2024-12-06 13:16:53.62,26.77,501.0,0.02,1.0,-0.01,1.08,11.36,3.77
2024-12-06 13:16:53.87,24.97,478.0,0.05,0.99,-0.0,0.83,13.19,4.26
2024-12-06 13:16:53.113,29.92,469.0,0.04,0.99,-0.01,1.26,16.43,5.84
2024-12-06 13:16:53.142,23.17,484.0,0.03,0.99,-0.01,1.32,17.1,5.84
2024-12-06 13:16:53.258,28.57,462.0,0.05,0.99,-0.01,1.38,16.79,6.15
2024-12-06 13:16:53.266,22.5,478.0,0.06,0.99,-0.0,2.72,20.21,7.8
2024-12-06 13:16:53.280,21.38,450.0,0.05,0.99,0.0,2.17,21.07,7.55
2024-12-06 13:16:53.306,22.5,461.0,0.05,0.97,-0.01,2.91,19.84,5.66
2024-12-06 13:16:53.334,21.82,450.0,0.07,0.98,-0.01,3.27,20.76,6.33
2024-12-06 13:16:53.363,16.2,458.0,0.06,1.0,-0.01,3.58,20.27,6.57
2024-12-06 13:16:53.416,20.7,469.0,0.07,1.0,-0.01,3.39,19.17,5.05
2024-12-06 13:16:53.419,12.82,447.0,0.05,0.99,-0.01,3.7,16.98,5.72
2024-12-06 13:16:53.444,13.5,452.0,0.06,0.98,-0.0,3.15,15.57,3.46
2024-12-06 13:16:53.472,14.62,475.0,0.09,0.99,-0.01,2.85,15.21,4.93
2024-12-06 13:16:53.505,10.57,449.0,0.04,0.98,-0.01,2.78,13.38,6.03
2024-12-06 13:16:53.527,12.38,482.0,0.07,0.98,0.01,1.81,12.58,6.15
2024-12-06 13:16:53.555,13.72,455.0,0.07,0.98,-0.0,1.26,13.07,7.43
2024-12-06 13:16:53.583,9.68,450.0,0.08,0.98,-0.0,0.83,13.19,7.8
2024-12-06 13:16:53.640,6.3,456.0,0.09,0.99,-0.01,0.46,13.86,10.05
2024-12-06 13:16:53.645,8.32,447.0,0.11,0.99,-0.01,0.71,11.61,12.19
2024-12-06 13:16:53.665,10.12,463.0,0.11,0.99,0.0,0.04,8.55,12.8
2024-12-06 13:16:53.693,3.82,447.0,0.13,0.99,-0.01,-0.45,5.87,14.94
2024-12-06 13:16:53.720,-0.45,469.0,0.09,0.97,-0.0,-0.27,0.92,12.8
2024-12-06 13:16:53.748,6.07,452.0,0.12,0.97,0.0,-0.45,-0.85,11.46
2024-12-06 13:16:53.809,3.82,452.0,0.11,0.99,0.0,-0.45,0.13,13.35
2024-12-06 13:16:55.107,-2.02,458.0,0.11,0.99,-0.01,1.69,1.72,5.72
2024-12-06 13:16:56.693,0.45,460.0,0.11,0.99,-0.01,1.01,-0.6,2.3
2024-12-06 13:16:56.702,-2.92,468.0,0.11,0.99,-0.01,1.01,-0.54,2.61
2024-12-06 13:16:56.713,0.0,453.0,0.11,0.99,-0.01,1.01,-0.42,2.91
2024-12-06 13:16:56.719,-3.6,467.0,0.11,0.99,-0.01,1.01,-0.24,3.22
2024-12-06 13:16:56.722,2.25,454.0,0.11,0.98,-0.02,1.01,0.01,3.58
2024-12-06 13:16:56.731,-0.67,460.0,0.11,0.98,-0.02,1.01,0.01,3.58
2024-12-06 13:16:56.737,2.47,479.0,0.11,0.98,-0.02,0.95,0.25,4.01
2024-12-06 13:16:56.746,-2.25,473.0,0.1,0.98,-0.02,0.95,0.62,4.38
2024-12-06 13:16:56.758,-0.45,477.0,0.1,0.98,-0.02,0.89,0.92,4.74
2024-12-06 13:16:56.760,-0.67,463.0,0.1,0.98,-0.02,0.83,1.17,5.17
2024-12-06 13:16:56.771,-2.47,464.0,0.1,0.98,-0.02,0.77,1.35,5.54
2024-12-06 13:16:56.796,-0.67,457.0,0.11,0.98,-0.02,0.65,1.6,6.09
2024-12-06 13:16:56.802,1.12,459.0,0.11,0.98,-0.02,0.65,1.78,6.27
2024-12-06 13:16:56.812,-3.6,453.0,0.11,0.98,-0.02,0.59,1.96,6.45
2024-12-06 13:16:57.813,-1.12,480.0,0.12,0.98,-0.02,0.4,1.11,4.74
2024-12-06 13:16:57.844,-5.17,462.0,0.11,0.98,-0.02,0.4,0.92,4.62
2024-12-06 13:16:57.871,-0.45,470.0,0.13,0.99,-0.01,0.34,1.17,4.87
2024-12-06 13:16:57.898,-4.5,453.0,0.12,0.98,-0.02,0.28,1.17,4.74
2024-12-06 13:16:57.946,-2.02,466.0,0.12,0.98,-0.02,0.28,1.35,4.87
2024-12-06 13:16:57.952,-2.02,449.0,0.12,0.98,-0.02,0.28,1.78,4.8
2024-12-06 13:16:57.980,-2.92,473.0,0.01,0.94,-0.02,1.14,-5.97,-3.92
2024-12-06 13:16:58.8,-0.9,480.0,0.06,0.94,0.01,0.95,-12.14,-13.51
2024-12-06 13:16:58.35,2.7,473.0,0.14,0.98,-0.01,1.08,-11.59,-11.37
2024-12-06 13:16:58.65,-0.22,491.0,0.12,1.0,-0.01,0.4,-9.27,-8.93
2024-12-06 13:16:58.89,8.55,488.0,0.1,0.99,-0.03,0.59,-9.88,-7.52
2024-12-06 13:16:58.116,5.17,481.0,0.1,0.98,-0.02,-0.15,-7.56,-5.21
2024-12-06 13:16:58.155,9.45,478.0,0.09,0.99,-0.02,-0.82,-5.18,-3.37
2024-12-06 13:16:58.172,11.92,489.0,0.09,1.0,-0.03,-1.37,-2.49,-1.18
2024-12-06 13:16:58.200,12.15,476.0,0.08,1.0,-0.02,-1.37,-1.21,0.59
2024-12-06 13:16:58.228,12.82,491.0,0.09,0.99,-0.02,-1.61,-2.49,1.08
2024-12-06 13:16:58.265,11.02,500.0,0.09,0.99,-0.02,-1.37,-3.1,2.3
2024-12-06 13:16:58.282,16.2,486.0,0.09,0.99,-0.02,-1.0,-5.0,2.61
2024-12-06 13:16:58.310,13.5,502.0,0.09,0.99,-0.02,-0.57,-5.91,2.79
2024-12-06 13:16:58.339,15.97,488.0,0.08,0.98,-0.02,-0.08,-6.95,2.49
2024-12-06 13:16:58.373,15.07,489.0,0.06,0.98,-0.02,0.22,-8.35,0.78
2024-12-06 13:16:58.396,20.48,511.0,0.05,0.98,-0.02,-0.45,-9.02,-1.36
2024-12-06 13:16:58.501,18.9,500.0,0.06,0.99,-0.02,-0.82,-9.88,-1.54
2024-12-06 13:16:58.505,17.1,515.0,0.04,0.99,-0.01,-1.79,-10.86,-1.42
2024-12-06 13:16:58.530,20.92,505.0,0.07,1.0,-0.01,-2.34,-10.61,0.17
2024-12-06 13:16:58.557,20.02,518.0,0.06,0.99,-0.0,-2.34,-10.31,2.55
2024-12-06 13:16:58.601,27.9,513.0,0.06,0.98,-0.01,-2.1,-11.77,2.12
2024-12-06 13:16:58.613,23.85,507.0,0.07,0.99,-0.01,-1.73,-10.92,4.01
2024-12-06 13:16:58.641,18.45,509.0,0.06,0.99,0.01,-1.31,-11.83,2.91
2024-12-06 13:16:58.668,30.6,509.0,0.06,0.99,-0.02,-0.82,-13.18,2.97
2024-12-06 13:16:58.695,28.57,507.0,0.05,0.99,-0.01,-0.7,-13.36,2.42
2024-12-06 13:16:58.734,25.42,536.0,0.05,1.0,-0.02,-0.15,-11.83,2.42
2024-12-06 13:16:58.751,31.05,500.0,0.03,0.99,-0.01,0.16,-11.83,2.18
2024-12-06 13:16:58.778,28.35,507.0,0.01,0.98,-0.02,0.22,-12.93,0.29
2024-12-06 13:16:58.825,30.6,519.0,0.01,0.98,-0.02,0.04,-11.89,-0.81
2024-12-06 13:16:58.833,32.85,518.0,0.02,1.0,-0.02,-0.45,-8.6,-1.24
2024-12-06 13:16:58.870,34.42,512.0,0.01,1.0,-0.01,-0.57,-5.48,-0.32
2024-12-06 13:16:58.888,36.22,490.0,0.01,0.98,-0.02,-0.94,-5.18,-1.48
2024-12-06 13:16:58.942,38.47,516.0,0.02,0.99,-0.0,-1.06,-3.84,-0.75
2024-12-06 13:16:58.946,38.92,527.0,0.01,0.99,-0.02,-0.45,-3.29,-1.54
2024-12-06 13:16:58.984,38.7,528.0,0.02,1.0,-0.01,-0.02,-1.82,-1.54
2024-12-06 13:16:59.0,37.8,530.0,0.01,1.0,-0.0,0.1,-1.15,-0.63
2024-12-06 13:16:59.50,37.8,548.0,0.01,0.99,-0.01,0.22,-2.68,-1.36
2024-12-06 13:16:59.55,38.7,536.0,0.03,0.99,0.0,0.71,-3.1,0.1
2024-12-06 13:16:59.80,42.75,536.0,0.0,0.99,-0.01,1.14,-3.53,-0.75
2024-12-06 13:16:59.108,47.47,511.0,0.02,1.0,0.01,1.08,-3.53,-0.44
2024-12-06 13:16:59.180,44.55,524.0,0.0,1.0,-0.01,0.89,-4.45,0.78
2024-12-06 13:16:59.183,43.88,515.0,0.0,0.99,-0.0,0.89,-5.67,0.17
2024-12-06 13:16:59.190,45.22,527.0,0.01,0.99,0.01,0.1,-6.46,2.12
2024-12-06 13:16:59.219,49.72,541.0,-0.01,0.99,-0.01,-0.15,-7.19,2.18
2024-12-06 13:16:59.245,49.5,544.0,0.0,1.0,-0.0,-0.21,-7.56,2.3
2024-12-06 13:16:59.280,45.67,533.0,-0.02,0.98,-0.0,0.1,-8.05,2.3
2024-12-06 13:16:59.310,51.07,532.0,-0.0,0.98,-0.0,-0.08,-8.6,0.23
2024-12-06 13:16:59.328,51.75,527.0,-0.0,0.99,-0.0,-0.21,-7.01,0.23
2024-12-06 13:16:59.356,53.77,554.0,-0.0,1.01,0.01,-0.57,-6.64,1.26
2024-12-06 13:16:59.391,53.55,545.0,-0.02,0.99,-0.02,-0.94,-7.56,1.33
2024-12-06 13:16:59.412,55.57,543.0,-0.02,0.98,-0.0,-0.63,-8.35,1.63
2024-12-06 13:16:59.438,53.77,539.0,-0.01,0.98,-0.01,-0.76,-7.32,1.45
2024-12-06 13:16:59.549,59.85,556.0,-0.02,1.0,-0.0,-0.51,-5.91,1.81
2024-12-06 13:16:59.552,58.05,563.0,-0.02,0.99,-0.01,0.89,-3.53,1.39
2024-12-06 13:16:59.575,60.52,545.0,-0.02,1.01,-0.01,0.77,-1.33,2.73
2024-12-06 13:16:59.612,56.02,562.0,-0.03,1.0,-0.01,1.32,-1.21,2.67
2024-12-06 13:16:59.630,61.65,550.0,-0.02,1.01,-0.01,1.01,-1.15,4.38
2024-12-06 13:16:59.658,64.12,578.0,-0.02,1.0,-0.0,1.2,-1.58,5.35
2024-12-06 13:16:59.685,61.65,562.0,-0.02,0.99,-0.01,1.32,-1.09,5.23
2024-12-06 13:16:59.713,65.47,562.0,-0.02,1.0,0.0,1.81,0.01,5.96
2024-12-06 13:16:59.761,65.25,561.0,-0.03,0.98,0.0,1.75,-0.11,4.87
2024-12-06 13:16:59.776,66.38,559.0,-0.01,0.99,0.0,1.56,-0.24,4.8
2024-12-06 13:16:59.804,68.85,564.0,-0.02,1.01,-0.0,1.2,0.62,5.78
2024-12-06 13:16:59.845,66.15,576.0,-0.01,1.0,-0.0,1.38,-0.66,5.66
2024-12-06 13:16:59.850,65.92,560.0,-0.02,0.99,-0.01,1.62,-1.27,6.51
2024-12-06 13:16:59.879,67.95,586.0,-0.03,0.96,-0.01,2.36,-1.64,5.29
2024-12-06 13:16:59.905,71.32,633.0,-0.01,0.98,0.0,1.87,-1.27,3.77
2024-12-06 13:16:59.934,69.53,590.0,-0.03,1.0,-0.01,1.69,0.01,3.71
2024-12-06 13:16:59.972,73.57,573.0,-0.03,0.98,-0.01,1.69,0.44,2.61
2024-12-06 13:16:59.990,65.7,581.0,-0.02,0.99,-0.01,0.71,-0.05,2.49
2024-12-06 13:17:00.15,77.4,572.0,-0.03,1.0,-0.01,1.08,-0.24,3.28
2024-12-06 13:17:00.44,76.5,581.0,-0.01,1.0,-0.01,0.53,-0.24,4.13
2024-12-06 13:17:00.83,74.25,581.0,-0.02,0.99,-0.01,1.08,0.01,5.11
2024-12-06 13:17:00.100,80.1,609.0,-0.02,0.98,-0.01,1.38,-0.36,4.99
2024-12-06 13:17:00.126,81.9,589.0,-0.01,0.99,-0.01,1.38,-0.3,5.17
2024-12-06 13:17:00.153,77.4,608.0,-0.02,0.99,-0.01,1.56,-0.11,4.8
2024-12-06 13:17:00.194,83.25,592.0,-0.01,0.99,-0.0,1.44,-0.17,3.83
2024-12-06 13:17:00.208,81.0,588.0,-0.02,0.99,-0.01,1.01,0.25,4.26
2024-12-06 13:17:00.236,83.25,589.0,-0.01,0.99,-0.01,0.89,-0.05,4.32
2024-12-06 13:17:01.543,83.47,596.0,0.0,0.99,-0.01,-0.21,2.39,1.02
2024-12-06 13:17:01.647,86.17,596.0,0.0,0.99,-0.01,-0.08,2.02,1.08
2024-12-06 13:17:01.671,86.62,607.0,-0.0,0.99,-0.0,0.1,2.21,3.22
2024-12-06 13:17:01.677,87.3,611.0,-0.0,0.99,-0.0,0.22,2.02,3.22
2024-12-06 13:17:01.686,77.62,593.0,-0.0,0.99,-0.0,0.34,1.84,3.22
2024-12-06 13:17:01.695,85.28,610.0,-0.0,0.99,-0.0,0.34,1.84,3.22
2024-12-06 13:17:01.702,81.9,594.0,-0.0,0.99,-0.0,0.46,1.72,3.22
2024-12-06 13:17:01.709,83.92,599.0,-0.0,0.99,-0.0,0.65,1.47,3.22
2024-12-06 13:17:01.735,81.0,595.0,-0.0,0.99,-0.0,0.89,1.11,3.1
2024-12-06 13:17:01.739,85.5,594.0,-0.0,0.99,-0.0,0.95,0.92,3.03
2024-12-06 13:17:01.750,85.5,604.0,-0.01,0.99,-0.0,1.01,0.68,2.97
2024-12-06 13:17:01.755,83.47,592.0,-0.01,0.99,-0.0,1.08,0.44,2.97
2024-12-06 13:17:01.762,87.07,598.0,-0.01,1.0,0.0,0.95,0.01,3.1
2024-12-06 13:17:01.772,86.4,601.0,-0.01,1.0,0.0,0.77,0.01,3.28
2024-12-06 13:17:01.782,82.12,597.0,-0.02,1.0,-0.0,0.77,0.01,3.28
2024-12-06 13:17:01.789,84.38,636.0,-0.01,1.01,0.01,0.65,-0.72,3.52
2024-12-06 13:17:01.795,82.35,591.0,-0.01,1.02,-0.01,0.28,-0.54,4.19
2024-12-06 13:17:01.801,86.62,593.0,-0.02,1.02,-0.01,0.22,1.23,4.99
2024-12-06 13:17:01.809,85.5,605.0,-0.02,1.02,-0.01,0.28,0.68,5.84
2024-12-06 13:17:01.834,85.72,590.0,-0.03,1.01,-0.0,0.4,0.86,6.33
2024-12-06 13:17:01.843,86.17,584.0,-0.03,0.97,-0.0,0.28,0.86,6.51
2024-12-06 13:17:01.878,86.85,588.0,-0.02,0.98,0.0,-0.27,1.53,5.6
2024-12-06 13:17:01.887,82.35,581.0,-0.02,0.98,0.0,-0.15,1.05,5.17
2024-12-06 13:17:01.900,85.05,598.0,-0.02,0.99,0.01,-0.15,1.05,4.74
2024-12-06 13:17:01.907,84.6,567.0,-0.02,0.99,0.0,-0.15,1.05,4.74
2024-12-06 13:17:01.915,84.38,582.0,-0.02,0.97,0.0,0.34,1.23,3.83
2024-12-06 13:17:01.930,84.6,586.0,-0.01,0.96,0.0,0.65,0.13,2.06
2024-12-06 13:17:01.932,84.38,594.0,0.0,0.98,0.0,0.28,0.62,1.69
2024-12-06 13:17:01.939,83.92,584.0,-0.0,0.99,0.0,0.28,0.62,1.69
2024-12-06 13:17:01.947,84.38,597.0,-0.02,1.0,0.0,0.53,0.92,1.26
2024-12-06 13:17:01.954,83.47,581.0,-0.02,1.0,0.0,1.08,0.62,0.84
2024-12-06 13:17:01.962,82.35,591.0,-0.02,1.0,-0.0,1.32,0.31,0.72
2024-12-06 13:17:01.974,84.38,579.0,-0.02,1.0,-0.0,1.38,0.31,0.96
2024-12-06 13:17:01.977,81.0,579.0,-0.01,1.0,-0.0,1.56,0.19,1.14
2024-12-06 13:17:01.985,85.5,582.0,-0.02,0.99,-0.0,1.56,0.19,1.14
2024-12-06 13:17:01.995,81.9,588.0,-0.03,0.99,-0.01,1.69,0.07,1.33
2024-12-06 13:17:02.9,86.17,579.0,-0.03,0.99,-0.01,1.56,0.07,1.51
2024-12-06 13:17:02.12,84.6,591.0,-0.03,0.99,-0.01,1.38,0.19,1.75
2024-12-06 13:17:02.16,81.0,597.0,-0.03,0.99,-0.01,1.44,0.25,2.06
2024-12-06 13:17:02.24,84.38,577.0,-0.02,0.99,-0.0,1.44,0.25,2.06
2024-12-06 13:17:02.34,84.6,590.0,-0.03,0.99,-0.0,1.38,0.37,2.42
2024-12-06 13:17:02.43,81.45,581.0,-0.03,0.99,-0.0,1.32,0.56,2.61
2024-12-06 13:17:02.47,85.5,583.0,-0.03,0.99,-0.0,1.26,0.68,2.73
2024-12-06 13:17:02.55,81.0,585.0,-0.03,0.99,-0.0,1.08,0.86,2.79
2024-12-06 13:17:02.70,86.4,600.0,-0.03,0.99,-0.0,1.01,0.99,2.97
2024-12-06 13:17:02.121,83.7,577.0,-0.02,1.0,0.0,0.65,1.6,3.95
2024-12-06 13:17:02.125,87.52,589.0,-0.02,0.99,0.0,0.53,1.66,4.19
2024-12-06 13:17:02.130,81.0,592.0,-0.02,0.99,0.0,0.46,1.78,4.44
2024-12-06 13:17:02.151,84.15,582.0,-0.02,0.99,0.0,0.46,1.84,4.68
2024-12-06 13:17:02.157,87.3,569.0,-0.02,0.99,-0.0,0.53,1.9,4.93
2024-12-06 13:17:02.162,82.57,571.0,-0.02,0.99,-0.0,0.53,1.96,5.17
2024-12-06 13:17:02.169,83.7,589.0,-0.02,0.99,-0.0,0.53,1.9,5.35
2024-12-06 13:17:02.180,81.45,581.0,-0.02,0.99,-0.0,0.53,1.84,5.54
2024-12-06 13:17:02.187,79.42,583.0,-0.02,0.99,-0.01,0.59,1.78,5.72
2024-12-06 13:17:02.193,85.95,570.0,-0.02,0.99,-0.01,0.59,1.78,5.72
2024-12-06 13:17:02.201,84.38,605.0,-0.02,0.99,-0.0,0.65,1.78,5.78
2024-12-06 13:17:02.209,80.55,581.0,-0.02,0.99,-0.0,0.71,1.78,5.84
2024-12-06 13:17:02.216,86.62,575.0,-0.02,0.99,-0.0,0.77,1.84,5.9
2024-12-06 13:17:02.224,85.95,568.0,-0.02,0.99,-0.0,0.83,1.84,5.9
2024-12-06 13:17:02.234,85.28,590.0,-0.02,0.99,-0.0,0.89,1.9,5.84
2024-12-06 13:17:02.269,87.07,577.0,-0.02,0.99,-0.0,1.08,1.96,5.6
2024-12-06 13:17:02.271,84.82,591.0,-0.02,0.99,-0.0,1.14,1.84,5.41
2024-12-06 13:17:02.282,84.15,578.0,-0.02,0.99,-0.0,1.14,1.84,5.41
2024-12-06 13:17:02.291,82.35,570.0,-0.02,0.99,-0.01,1.14,1.78,5.35
2024-12-06 13:17:02.294,85.5,585.0,-0.02,0.99,-0.01,1.2,1.72,5.23
2024-12-06 13:17:02.322,82.35,578.0,-0.02,0.99,-0.0,1.26,1.72,5.11
2024-12-06 13:17:02.324,86.17,584.0,-0.02,0.99,-0.01,1.32,1.53,4.93
2024-12-06 13:17:02.336,84.38,574.0,-0.02,0.99,-0.01,1.32,1.53,4.87
2024-12-06 13:17:02.343,84.6,567.0,-0.02,0.99,-0.01,1.38,1.47,4.68
2024-12-06 13:17:02.351,86.17,580.0,-0.02,0.99,-0.01,1.44,1.35,4.62
2024-12-06 13:17:02.361,83.7,588.0,-0.02,0.99,-0.01,1.5,1.23,4.56
2024-12-06 13:17:02.368,86.85,598.0,-0.01,0.99,-0.0,1.5,1.23,4.56
2024-12-06 13:17:02.371,84.38,572.0,-0.01,0.99,-0.0,1.5,1.11,4.56
2024-12-06 13:17:02.379,81.22,578.0,-0.02,0.99,-0.0,1.44,1.11,4.5
2024-12-06 13:17:02.388,85.05,593.0,-0.02,0.99,-0.0,1.38,1.11,4.38
2024-12-06 13:17:02.394,82.35,575.0,-0.02,0.99,-0.0,1.26,1.23,4.38
2024-12-06 13:17:02.403,84.6,578.0,-0.02,0.99,-0.0,1.14,1.35,4.32
2024-12-06 13:17:02.416,81.45,590.0,-0.02,0.99,-0.0,1.14,1.35,4.32
2024-12-06 13:17:02.419,79.65,576.0,-0.02,0.99,-0.0,1.08,1.47,4.32
2024-12-06 13:17:02.425,83.03,574.0,-0.02,0.99,-0.0,1.08,1.53,4.32
2024-12-06 13:17:02.436,83.7,577.0,-0.02,0.99,-0.0,0.89,1.66,4.32
2024-12-06 13:17:02.441,83.92,572.0,-0.02,0.99,-0.0,0.83,1.66,4.38
2024-12-06 13:17:02.451,84.38,573.0,-0.02,0.99,-0.01,0.83,1.6,4.38
2024-12-06 13:17:02.472,79.88,579.0,-0.01,0.99,-0.01,0.77,1.6,4.38
2024-12-06 13:17:02.474,86.17,582.0,-0.01,0.99,-0.01,0.65,1.47,4.44
2024-12-06 13:17:02.480,82.12,580.0,-0.01,0.99,-0.01,0.65,1.35,4.5
2024-12-06 13:17:02.493,83.92,580.0,-0.01,0.99,-0.01,0.71,1.23,4.56
2024-12-06 13:17:02.496,81.67,594.0,-0.01,0.99,-0.01,0.71,1.23,4.56
2024-12-06 13:17:02.508,83.7,595.0,-0.01,0.99,-0.01,0.77,1.17,4.56
2024-12-06 13:17:02.511,83.7,581.0,-0.01,0.99,-0.01,0.83,1.17,4.62
2024-12-06 13:17:02.519,85.95,575.0,-0.01,0.99,-0.01,0.83,1.23,4.68
2024-12-06 13:17:02.557,81.22,582.0,-0.01,0.99,-0.01,1.01,1.17,4.87
2024-12-06 13:17:02.566,77.17,590.0,-0.01,0.99,-0.01,1.14,1.17,4.87
2024-12-06 13:17:02.572,81.45,578.0,-0.01,0.99,-0.01,1.2,1.23,4.87
2024-12-06 13:17:02.582,83.25,577.0,-0.01,0.99,-0.01,1.2,1.23,4.87
2024-12-06 13:17:02.588,83.47,581.0,-0.01,0.99,-0.01,1.26,1.23,4.93
2024-12-06 13:17:02.598,83.92,585.0,-0.01,0.99,-0.01,1.38,1.29,4.93
2024-12-06 13:17:02.710,83.92,572.0,-0.01,0.99,-0.01,1.01,1.23,4.74
2024-12-06 13:17:02.721,84.38,570.0,-0.01,0.98,-0.01,0.89,1.35,4.74
2024-12-06 13:17:02.724,85.95,578.0,-0.01,0.98,-0.01,0.77,1.35,4.68
2024-12-06 13:17:02.732,80.78,578.0,-0.01,0.98,-0.01,0.77,1.41,4.62
2024-12-06 13:17:02.746,85.05,569.0,-0.01,0.98,-0.01,0.71,1.41,4.62
2024-12-06 13:17:02.784,81.0,572.0,-0.01,0.99,-0.01,0.34,1.53,4.13
2024-12-06 13:17:02.786,86.85,581.0,-0.01,0.99,-0.01,0.28,1.53,3.95
2024-12-06 13:17:02.801,86.4,638.0,-0.01,0.99,-0.01,0.28,1.29,3.77
2024-12-06 13:17:02.813,82.12,607.0,-0.01,0.99,-0.01,0.28,1.29,3.64
2024-12-06 13:17:02.816,80.55,577.0,-0.01,0.99,-0.01,0.28,1.11,3.64
2024-12-06 13:17:02.827,80.55,590.0,-0.01,0.99,-0.01,0.28,0.99,3.52
2024-12-06 13:17:02.832,87.07,593.0,-0.01,0.99,-0.01,0.16,0.99,3.4
2024-12-06 13:17:02.839,85.28,594.0,-0.01,0.99,-0.01,0.1,0.99,3.22
2024-12-06 13:17:02.846,86.62,588.0,-0.01,0.99,-0.01,0.04,0.99,3.1
2024-12-06 13:17:02.857,76.95,583.0,-0.01,0.99,-0.01,0.04,0.99,3.1
2024-12-06 13:17:02.864,86.85,579.0,-0.01,0.99,-0.01,-0.02,1.05,3.03
2024-12-06 13:17:02.869,85.05,570.0,-0.01,0.99,-0.01,-0.08,1.11,2.91
2024-12-06 13:17:02.878,83.7,582.0,-0.01,0.99,-0.01,-0.21,1.11,2.85
2024-12-06 13:17:02.885,79.88,582.0,-0.01,0.99,-0.01,-0.39,1.11,2.85
2024-12-06 13:17:02.894,81.22,571.0,-0.01,0.99,-0.01,-0.51,1.17,2.85
2024-12-06 13:17:02.902,82.12,576.0,-0.01,0.98,-0.01,-0.51,1.17,2.85
2024-12-06 13:17:02.909,85.05,605.0,-0.01,0.98,-0.01,-0.63,1.17,2.85
2024-12-06 13:17:02.918,81.0,576.0,-0.01,0.98,-0.01,-0.76,1.23,2.85
2024-12-06 13:17:02.925,86.4,584.0,-0.01,0.98,-0.01,-0.88,1.29,2.91
2024-12-06 13:17:02.932,82.57,592.0,-0.01,0.99,-0.01,-1.0,1.29,2.97
2024-12-06 13:17:02.941,75.15,590.0,-0.01,0.99,-0.01,-1.0,1.41,3.03
2024-12-06 13:17:02.949,84.82,583.0,-0.01,0.99,-0.01,-1.0,1.41,3.03
2024-12-06 13:17:02.957,85.95,584.0,-0.01,0.99,-0.01,-1.0,1.47,3.1
2024-12-06 13:17:02.965,81.45,581.0,-0.01,0.99,-0.01,-1.0,1.47,3.16
2024-12-06 13:17:03.19,87.07,593.0,-0.01,0.99,-0.01,-1.0,1.53,3.22
2024-12-06 13:17:03.24,84.82,570.0,-0.01,0.99,-0.01,-0.88,1.84,3.46
2024-12-06 13:17:03.35,81.67,583.0,-0.01,1.0,-0.01,-0.82,1.9,3.52
2024-12-06 13:17:03.40,86.85,571.0,-0.01,1.0,-0.01,-0.7,1.84,3.52
2024-12-06 13:17:03.49,86.4,600.0,-0.01,1.0,-0.01,-0.57,1.78,3.52
2024-12-06 13:17:03.56,83.7,588.0,-0.01,1.0,-0.01,-0.39,1.72,3.58
2024-12-06 13:17:03.66,83.7,583.0,-0.01,1.0,-0.01,-0.27,1.66,3.64
2024-12-06 13:17:04.71,83.47,601.0,-0.01,0.99,-0.0,0.46,2.27,4.68
2024-12-06 13:17:04.101,81.0,563.0,-0.0,1.02,0.0,0.34,1.9,4.93
2024-12-06 13:17:04.133,80.55,554.0,-0.01,1.09,-0.01,-2.1,2.88,13.78
2024-12-06 13:17:04.162,77.17,537.0,0.03,1.11,0.03,-2.53,1.41,24.82
2024-12-06 13:17:04.183,71.55,540.0,-0.05,0.96,-0.06,-1.18,-4.87,31.42
2024-12-06 13:17:04.215,71.32,521.0,-0.01,0.88,-0.02,-0.7,-4.63,28.06
2024-12-06 13:17:04.237,69.97,525.0,0.01,0.87,0.02,0.28,3.0,21.83
2024-12-06 13:17:04.264,70.2,518.0,0.03,0.91,0.04,0.22,13.44,11.88
2024-12-06 13:17:04.292,67.28,532.0,0.07,0.99,0.02,1.14,16.06,1.81
2024-12-06 13:17:04.319,66.6,506.0,0.07,1.02,-0.0,2.36,10.51,-3.31
2024-12-06 13:17:04.353,63.0,515.0,0.05,1.02,-0.02,4.31,2.88,-5.21
2024-12-06 13:17:04.375,65.03,516.0,0.02,1.01,-0.02,5.47,1.66,-4.72
2024-12-06 13:17:04.402,61.2,511.0,0.01,1.0,-0.01,5.29,3.18,-2.89
2024-12-06 13:17:04.432,60.75,508.0,-0.01,0.98,-0.01,4.62,5.2,-1.36
2024-12-06 13:17:04.467,61.65,501.0,-0.0,0.99,0.0,2.66,6.84,1.02
2024-12-06 13:17:04.485,62.55,516.0,-0.01,0.97,0.01,1.14,8.74,2.0
2024-12-06 13:17:04.513,60.52,515.0,0.03,0.98,0.02,-0.27,12.15,1.51
2024-12-06 13:17:04.541,59.85,496.0,0.02,0.99,0.0,-0.27,12.28,2.06
2024-12-06 13:17:04.579,57.6,502.0,0.04,0.99,-0.0,-0.21,9.71,1.26
2024-12-06 13:17:04.977,43.2,480.0,0.04,1.01,-0.02,1.69,9.1,4.19
2024-12-06 13:17:05.6,42.75,472.0,0.01,1.0,-0.02,1.2,7.52,5.78
2024-12-06 13:17:05.42,40.95,493.0,0.03,0.98,-0.01,0.89,6.84,5.72
2024-12-06 13:17:05.60,35.33,472.0,0.03,0.98,-0.01,0.95,8.86,7.31
2024-12-06 13:17:05.87,38.02,479.0,0.05,0.98,-0.01,0.71,10.57,6.94
2024-12-06 13:17:05.115,35.55,492.0,0.05,0.99,-0.01,0.71,11.73,8.04
2024-12-06 13:17:05.143,36.45,481.0,0.03,0.98,-0.01,0.95,11.42,8.53
2024-12-06 13:17:05.172,36.22,484.0,0.06,0.98,-0.01,0.95,11.42,7.86
2024-12-06 13:17:05.201,35.77,508.0,0.05,1.0,-0.02,1.32,10.75,8.22
2024-12-06 13:17:05.228,29.25,472.0,0.03,1.0,-0.02,1.69,7.64,7.37
2024-12-06 13:17:05.261,31.27,475.0,0.04,0.99,-0.02,1.93,6.3,6.45
2024-12-06 13:17:05.281,33.08,484.0,0.03,0.99,-0.01,1.87,7.21,5.78
2024-12-06 13:17:05.330,33.3,476.0,0.04,0.99,-0.01,1.62,8.8,5.54
2024-12-06 13:17:05.348,26.1,470.0,0.04,0.99,-0.02,1.38,10.63,6.51
2024-12-06 13:17:05.363,30.15,468.0,0.03,0.98,-0.01,0.95,11.97,7.0
2024-12-06 13:17:05.391,27.0,484.0,0.05,0.98,-0.01,0.65,14.84,6.51
2024-12-06 13:17:05.418,23.4,460.0,0.05,0.98,-0.02,0.77,17.83,6.21
2024-12-06 13:17:05.446,27.22,451.0,0.05,0.99,-0.02,1.01,17.77,5.84
2024-12-06 13:17:05.496,24.3,467.0,0.06,1.0,-0.02,1.5,16.55,4.26
2024-12-06 13:17:05.502,25.65,472.0,0.04,0.99,-0.02,2.11,15.45,4.62
2024-12-06 13:17:05.535,20.02,457.0,0.05,0.99,-0.01,2.48,14.11,2.49
2024-12-06 13:17:05.557,22.5,461.0,0.07,1.0,-0.02,2.78,16.24,3.71
2024-12-06 13:17:05.585,16.42,468.0,0.03,0.99,-0.01,3.33,16.73,3.83
2024-12-06 13:17:05.612,22.05,451.0,0.03,0.97,-0.01,2.97,18.38,2.36
2024-12-06 13:17:05.640,19.57,445.0,0.04,0.97,-0.03,2.78,21.74,2.91
2024-12-06 13:17:05.669,17.1,452.0,0.04,0.99,-0.03,2.48,24.3,3.58
2024-12-06 13:17:05.716,17.55,464.0,0.04,1.0,-0.03,1.87,24.73,5.29
2024-12-06 13:17:05.723,12.82,459.0,0.03,0.98,-0.03,1.56,23.2,5.6
2024-12-06 13:17:05.752,15.3,451.0,0.05,0.97,-0.03,0.77,23.63,3.95
2024-12-06 13:17:05.843,14.4,459.0,0.08,0.98,-0.0,0.1,16.0,5.05
2024-12-06 13:17:05.861,7.2,454.0,0.06,0.98,-0.0,0.16,15.45,5.78
2024-12-06 13:17:05.888,9.45,464.0,0.1,0.99,-0.01,-0.02,14.6,5.6
2024-12-06 13:17:05.937,9.22,457.0,0.09,0.99,-0.02,0.22,13.74,8.77
2024-12-06 13:17:05.943,9.9,455.0,0.1,0.99,-0.01,-0.15,11.85,11.15
2024-12-06 13:17:05.971,6.07,452.0,0.1,0.99,-0.01,-0.82,9.77,12.25
2024-12-06 13:17:05.998,6.3,463.0,0.09,0.98,-0.01,-0.88,8.19,12.19
2024-12-06 13:17:06.29,4.05,445.0,0.1,0.99,-0.0,-0.76,8.43,12.92
2024-12-06 13:17:06.54,-0.45,450.0,0.12,1.0,-0.01,-0.88,9.59,14.2
2024-12-06 13:17:07.361,-1.12,462.0,0.12,0.98,-0.01,0.89,-1.03,3.95
2024-12-06 13:17:09.11,2.02,470.0,0.12,0.98,-0.01,1.08,1.96,5.41
2024-12-06 13:17:09.16,-0.45,457.0,0.12,0.98,-0.02,0.77,1.78,4.74
2024-12-06 13:17:09.19,-2.25,454.0,0.12,0.98,-0.02,0.77,1.78,4.74
2024-12-06 13:17:09.23,-2.47,465.0,0.12,0.98,-0.02,0.71,1.72,4.68
2024-12-06 13:17:09.31,-2.92,462.0,0.12,0.98,-0.02,0.71,1.66,4.56
2024-12-06 13:17:09.40,-2.02,464.0,0.12,0.98,-0.02,0.65,1.6,4.5
2024-12-06 13:17:09.47,-2.47,455.0,0.12,0.98,-0.02,0.65,1.47,4.44
2024-12-06 13:17:09.54,-0.22,480.0,0.12,0.98,-0.01,0.65,1.35,4.32
2024-12-06 13:17:09.66,-2.02,472.0,0.12,0.98,-0.01,0.65,1.35,4.32
2024-12-06 13:17:09.71,-0.9,475.0,0.12,0.98,-0.01,0.65,1.23,4.26
2024-12-06 13:17:09.80,-3.38,471.0,0.12,0.98,-0.01,0.65,1.11,4.13
2024-12-06 13:17:09.88,1.12,487.0,0.12,0.98,-0.01,0.59,1.05,4.07
2024-12-06 13:17:09.95,-2.92,466.0,0.12,0.98,-0.01,0.65,1.05,3.95
2024-12-06 13:17:09.104,-1.57,470.0,0.12,0.98,-0.02,0.65,0.99,3.83
2024-12-06 13:17:09.126,-1.57,470.0,0.12,0.98,-0.02,0.71,0.92,3.71
2024-12-06 13:17:09.237,-0.45,512.0,0.12,0.98,-0.02,0.59,1.47,3.52
2024-12-06 13:17:09.247,-3.6,454.0,0.12,0.98,-0.02,0.59,1.6,3.58
2024-12-06 13:17:09.253,-2.25,465.0,0.12,0.98,-0.02,0.59,1.6,3.58
2024-12-06 13:17:09.263,-5.62,453.0,0.12,0.98,-0.02,0.53,1.72,3.58
2024-12-06 13:17:09.269,0.0,469.0,0.12,0.98,-0.02,0.46,1.9,3.58
2024-12-06 13:17:09.275,-2.7,454.0,0.12,0.98,-0.01,0.46,2.02,3.58
2024-12-06 13:17:09.283,-0.22,462.0,0.12,0.98,-0.01,0.4,2.14,3.58
2024-12-06 13:17:09.291,-5.62,480.0,0.12,0.98,-0.01,0.4,2.14,3.58
2024-12-06 13:17:09.328,0.22,440.0,0.12,0.98,-0.01,0.34,2.14,3.4
2024-12-06 13:17:09.332,-2.25,455.0,0.12,0.98,-0.01,0.34,2.08,3.34
2024-12-06 13:17:09.336,-1.12,470.0,0.12,0.98,-0.01,0.34,2.08,3.34
2024-12-06 13:17:09.344,1.12,477.0,0.12,0.98,-0.01,0.34,1.96,3.16
2024-12-06 13:17:09.352,1.8,466.0,0.12,0.98,-0.01,0.34,1.84,3.1
2024-12-06 13:17:09.359,-0.45,466.0,0.12,0.98,-0.01,0.28,1.72,2.97
2024-12-06 13:17:09.371,-0.22,473.0,0.12,0.98,-0.01,0.22,1.47,2.85
2024-12-06 13:17:09.382,-2.25,479.0,0.12,0.98,-0.01,0.22,1.47,2.85
2024-12-06 13:17:09.385,1.57,471.0,0.12,0.98,-0.01,0.22,1.17,2.79
2024-12-06 13:17:09.396,-2.47,464.0,0.12,0.98,-0.01,0.22,0.8,2.67
2024-12-06 13:17:09.403,-4.05,471.0,0.12,0.98,-0.01,0.22,0.44,2.61
2024-12-06 13:17:09.442,-3.15,474.0,0.12,0.98,-0.01,0.22,0.01,2.61
2024-12-06 13:17:09.445,-3.15,460.0,0.12,0.98,-0.01,0.22,-0.54,2.67
2024-12-06 13:17:09.452,-6.52,464.0,0.11,0.98,-0.01,0.22,-0.54,2.67
2024-12-06 13:17:09.470,0.22,472.0,0.11,0.98,-0.01,0.22,0.07,2.79
2024-12-06 13:17:09.474,1.57,450.0,0.11,0.98,-0.01,0.22,0.44,2.85
2024-12-06 13:17:09.482,-0.67,465.0,0.11,0.98,-0.01,0.22,0.74,2.91
2024-12-06 13:17:09.492,-2.7,453.0,0.11,0.98,-0.01,0.22,0.74,2.91
2024-12-06 13:17:09.497,-6.3,462.0,0.11,0.98,-0.01,0.22,0.99,3.03
2024-12-06 13:17:09.505,-0.45,456.0,0.11,0.98,-0.01,0.28,1.23,3.22
2024-12-06 13:17:09.514,-4.72,454.0,0.11,0.98,-0.01,0.28,1.41,3.28
2024-12-06 13:17:09.521,-6.52,453.0,0.11,0.98,-0.01,0.28,1.66,3.46
2024-12-06 13:17:09.528,-5.62,476.0,0.11,0.98,-0.01,0.28,1.84,3.52
2024-12-06 13:17:09.536,-3.82,458.0,0.11,0.98,-0.01,0.28,1.84,3.52
2024-12-06 13:17:09.545,-0.22,464.0,0.11,0.98,-0.01,0.28,1.96,3.58
2024-12-06 13:17:09.552,2.25,470.0,0.11,0.99,-0.01,0.28,2.08,3.58
2024-12-06 13:17:09.559,-4.05,464.0,0.11,0.99,-0.01,0.28,2.14,3.71
2024-12-06 13:17:09.597,0.45,467.0,0.11,0.99,-0.01,0.34,2.45,3.77
2024-12-06 13:17:09.600,-0.22,478.0,0.12,0.99,-0.01,0.4,2.39,3.77
2024-12-06 13:17:09.606,-0.67,459.0,0.12,0.99,-0.01,0.4,2.21,3.77
2024-12-06 13:17:09.612,-5.17,478.0,0.12,0.99,-0.01,0.4,2.14,3.77
2024-12-06 13:17:09.623,2.47,461.0,0.12,0.99,-0.01,0.4,2.14,3.77
2024-12-06 13:17:09.638,0.67,473.0,0.12,0.98,-0.01,0.34,2.08,3.71
2024-12-06 13:17:09.668,-2.25,456.0,0.12,0.98,-0.01,0.34,0.99,3.71
2024-12-06 13:17:09.673,-2.47,457.0,0.11,0.98,-0.01,0.34,0.74,3.71
2024-12-06 13:17:09.681,-3.38,456.0,0.11,0.98,-0.01,0.4,0.62,3.71
2024-12-06 13:17:09.691,-0.22,465.0,0.11,0.98,-0.01,0.4,0.62,3.71
2024-12-06 13:17:09.700,2.47,459.0,0.11,0.98,-0.01,0.4,0.68,3.71
2024-12-06 13:17:09.706,-4.72,483.0,0.11,0.98,-0.01,0.4,0.68,3.71
2024-12-06 13:17:09.714,0.0,460.0,0.11,0.98,-0.01,0.46,0.74,3.71
2024-12-06 13:17:09.725,-3.15,454.0,0.11,0.98,-0.01,0.4,0.86,3.64
2024-12-06 13:17:09.729,2.02,471.0,0.11,0.98,-0.01,0.46,0.92,3.71
2024-12-06 13:17:09.737,-3.6,461.0,0.11,0.98,-0.01,0.46,1.05,3.64
2024-12-06 13:17:09.747,-1.35,463.0,0.11,0.98,-0.01,0.46,1.05,3.64
2024-12-06 13:17:09.752,2.02,452.0,0.11,0.98,-0.01,0.46,1.11,3.71
2024-12-06 13:17:09.762,1.8,449.0,0.11,0.98,-0.01,0.46,1.29,3.71
2024-12-06 13:17:09.793,1.8,460.0,0.11,0.98,-0.01,0.4,1.35,3.77
2024-12-06 13:17:09.803,-0.22,471.0,0.11,0.98,-0.01,0.34,1.47,3.89
2024-12-06 13:17:09.807,-3.38,435.0,0.11,0.98,-0.01,0.28,1.47,3.95
2024-12-06 13:17:09.811,1.12,486.0,0.11,0.98,-0.01,0.22,1.53,3.95
2024-12-06 13:17:09.835,1.8,478.0,0.11,0.98,-0.01,0.16,1.47,4.07
2024-12-06 13:17:09.850,0.45,463.0,0.11,0.98,-0.01,0.16,1.47,4.13
2024-12-06 13:17:09.854,2.02,459.0,0.11,0.98,-0.01,0.16,1.41,4.19
2024-12-06 13:17:09.857,-2.7,468.0,0.11,0.98,-0.01,0.16,1.41,4.19
2024-12-06 13:17:09.867,2.25,457.0,0.11,0.98,-0.01,0.1,1.47,4.32
2024-12-06 13:17:09.881,0.0,473.0,0.11,0.98,-0.01,0.16,1.53,4.44
2024-12-06 13:17:09.891,0.45,475.0,0.11,0.98,-0.01,0.16,1.66,4.5
2024-12-06 13:17:09.896,-0.22,464.0,0.11,0.98,-0.01,0.1,1.72,4.62
2024-12-06 13:17:09.906,-0.22,461.0,0.11,0.98,-0.01,0.1,1.72,4.62
2024-12-06 13:17:09.910,2.25,457.0,0.11,0.98,-0.01,0.22,1.78,4.62
2024-12-06 13:17:09.918,0.45,458.0,0.11,0.98,-0.01,0.16,1.78,4.68
2024-12-06 13:17:09.926,-0.22,463.0,0.11,0.98,-0.01,0.16,1.78,4.8
2024-12-06 13:17:09.936,-4.28,469.0,0.11,0.98,-0.01,0.16,1.78,4.8
2024-12-06 13:17:09.942,0.0,465.0,0.11,0.98,-0.01,0.16,1.78,4.8
2024-12-06 13:17:09.949,-0.9,487.0,0.11,0.98,-0.01,0.16,1.84,4.8
2024-12-06 13:17:09.958,0.45,460.0,0.12,0.98,-0.01,0.16,1.84,4.8
2024-12-06 13:17:10.76,2.92,471.0,0.11,0.98,-0.01,0.04,0.37,4.13
2024-12-06 13:17:10.85,-0.22,467.0,0.11,0.98,-0.01,0.04,0.44,4.07
2024-12-06 13:17:10.97,2.02,475.0,0.11,0.98,-0.01,0.04,0.44,4.07
2024-12-06 13:17:10.103,-0.45,468.0,0.11,0.98,-0.01,0.04,0.5,4.01
2024-12-06 13:17:10.113,-2.02,464.0,0.11,0.98,-0.01,0.04,0.56,3.95
2024-12-06 13:17:10.116,0.22,468.0,0.11,0.98,-0.01,0.04,0.56,3.95
2024-12-06 13:17:10.145,0.9,488.0,0.11,0.98,-0.01,0.04,0.62,3.95
2024-12-06 13:17:10.148,2.7,465.0,0.11,0.98,-0.01,-0.02,0.62,3.95
2024-12-06 13:17:10.153,-0.22,462.0,0.11,0.98,-0.01,-0.02,0.68,3.95
2024-12-06 13:17:10.163,-0.67,473.0,0.11,0.98,-0.01,0.04,0.74,3.95
2024-12-06 13:17:10.170,-1.8,483.0,0.11,0.99,-0.01,0.1,0.92,3.95
2024-12-06 13:17:10.190,-2.25,475.0,0.11,0.99,-0.01,0.1,0.92,3.95
2024-12-06 13:17:10.193,0.22,484.0,0.11,0.98,-0.01,0.1,1.17,3.95
2024-12-06 13:17:10.202,0.45,468.0,0.11,0.99,-0.01,0.16,1.29,3.89
2024-12-06 13:17:10.208,-2.02,475.0,0.11,0.99,-0.01,0.16,1.29,3.83
2024-12-06 13:17:10.238,-2.02,454.0,0.11,0.98,-0.01,0.22,0.62,3.83
2024-12-06 13:17:10.253,-0.9,456.0,0.11,0.98,-0.01,0.28,0.25,3.83
2024-12-06 13:17:10.256,1.8,472.0,0.11,0.98,-0.01,0.28,0.07,3.89
2024-12-06 13:17:10.269,0.0,479.0,0.11,0.98,-0.01,0.28,0.07,3.89
2024-12-06 13:17:10.272,1.8,475.0,0.11,0.98,-0.01,0.34,0.01,3.89
2024-12-06 13:17:10.280,2.25,471.0,0.11,0.98,-0.01,0.34,0.07,3.89
