Timestamp,PosIsDeg,ForceIs,AccX,AccY,AccZ,GyroX,GyroY,GyroZ
2024-12-06 13:14:33.103,-0.22,473.0,0.12,0.98,-0.06,0.34,1.29,4.26
2024-12-06 13:14:33.129,0.9,485.0,0.1,0.98,-0.05,0.4,0.44,3.71
2024-12-06 13:14:33.159,-2.47,475.0,0.07,0.97,-0.04,0.59,-2.31,2.24
2024-12-06 13:14:33.183,1.12,503.0,0.1,0.96,-0.05,0.53,-3.9,-2.52
2024-12-06 13:14:33.210,-1.57,530.0,0.1,0.98,-0.05,0.95,-3.84,-3.86
2024-12-06 13:14:33.240,4.95,490.0,0.1,0.98,-0.06,0.65,-3.9,-4.53
2024-12-06 13:14:33.265,0.67,491.0,0.1,0.98,-0.06,0.22,-3.17,-3.68
2024-12-06 13:14:33.294,-0.22,500.0,0.1,0.98,-0.07,-0.08,-2.13,-2.58
2024-12-06 13:14:33.321,4.95,503.0,0.09,0.98,-0.05,-0.63,-2.07,-2.03
2024-12-06 13:14:33.379,10.12,470.0,0.07,0.97,-0.05,-0.76,-3.65,-3.68
2024-12-06 13:14:33.381,10.8,492.0,0.1,0.98,-0.05,-0.94,-2.68,-3.62
2024-12-06 13:14:33.402,3.38,495.0,0.09,0.99,-0.06,-0.76,-2.31,-2.4
2024-12-06 13:14:33.430,13.72,495.0,0.08,0.99,-0.07,-0.57,-4.08,-3.56
2024-12-06 13:14:33.460,9.22,495.0,0.09,0.99,-0.06,-0.94,-5.3,-1.85
2024-12-06 13:14:33.493,9.45,509.0,0.05,0.98,-0.05,-1.37,-7.44,-2.95
2024-12-06 13:14:33.515,13.5,510.0,0.08,0.99,-0.06,-1.43,-6.77,-2.83
2024-12-06 13:14:33.540,17.77,498.0,0.07,0.99,-0.04,-1.49,-4.81,0.1
2024-12-06 13:14:33.569,18.67,498.0,0.08,0.99,-0.04,-2.1,-5.79,1.02
2024-12-06 13:14:33.622,16.88,512.0,0.09,0.98,-0.05,-2.4,-7.07,2.85
2024-12-06 13:14:33.637,18.45,499.0,0.07,0.98,-0.05,-1.98,-9.15,2.91
2024-12-06 13:14:33.656,18.0,514.0,0.08,0.99,-0.05,-1.24,-9.39,2.3
2024-12-06 13:14:33.677,18.45,505.0,0.06,1.0,-0.05,-0.76,-9.45,2.18
2024-12-06 13:14:33.706,21.38,482.0,0.04,0.98,-0.05,-0.57,-13.36,-0.44
2024-12-06 13:14:33.739,15.3,518.0,0.05,0.98,-0.06,-0.02,-15.19,-3.5
2024-12-06 13:14:33.762,20.92,504.0,0.02,0.98,-0.05,0.71,-13.3,-3.5
2024-12-06 13:14:33.789,20.7,503.0,0.02,0.98,-0.06,0.71,-10.86,-6.24
2024-12-06 13:14:33.915,23.62,531.0,0.03,1.0,-0.05,0.16,-5.79,-4.17
2024-12-06 13:14:33.919,22.72,512.0,-0.0,0.98,-0.05,-0.76,1.78,-3.37
2024-12-06 13:14:33.950,21.38,531.0,-0.01,0.98,-0.05,-0.82,4.71,-4.9
2024-12-06 13:14:33.952,28.35,516.0,-0.0,0.99,-0.05,-0.51,5.68,-5.21
2024-12-06 13:14:33.980,30.82,519.0,0.02,1.01,-0.06,-0.15,5.81,-3.74
2024-12-06 13:14:34.12,29.47,521.0,-0.0,1.0,-0.06,0.22,4.28,-3.44
2024-12-06 13:14:34.76,32.62,531.0,0.03,1.0,-0.04,0.53,2.08,-3.37
2024-12-06 13:14:34.79,33.08,527.0,0.0,1.0,-0.04,0.89,1.35,-1.6
2024-12-06 13:14:34.90,31.5,524.0,-0.0,0.98,-0.03,0.71,0.37,-2.52
2024-12-06 13:14:34.118,35.1,522.0,-0.02,1.0,-0.04,-0.94,3.24,0.1
2024-12-06 13:14:34.145,34.88,546.0,-0.05,0.98,-0.06,-0.7,5.26,-0.44
2024-12-06 13:14:34.179,35.77,524.0,0.0,1.0,-0.05,-0.88,4.83,0.1
2024-12-06 13:14:34.200,37.8,527.0,-0.03,1.0,-0.05,-1.0,5.14,1.75
2024-12-06 13:14:34.234,39.83,545.0,-0.0,1.0,-0.04,-0.94,7.45,1.51
2024-12-06 13:14:34.257,36.22,551.0,0.01,1.01,-0.04,-0.45,9.77,5.17
2024-12-06 13:14:34.294,39.83,532.0,-0.03,0.97,-0.06,0.28,8.92,4.68
2024-12-06 13:14:34.310,38.02,530.0,0.01,0.99,-0.05,1.14,8.92,7.12
2024-12-06 13:14:34.339,38.7,532.0,-0.0,1.01,-0.05,1.38,9.1,8.22
2024-12-06 13:14:34.366,42.75,557.0,0.0,0.98,-0.05,1.5,6.97,7.43
2024-12-06 13:14:34.395,40.72,534.0,0.01,0.98,-0.04,1.93,4.71,7.0
2024-12-06 13:14:34.452,45.22,554.0,-0.0,0.99,-0.04,2.11,3.0,5.35
2024-12-06 13:14:34.461,48.38,535.0,0.0,1.0,-0.04,1.56,1.72,4.68
2024-12-06 13:14:34.476,46.12,548.0,-0.0,1.0,-0.04,0.77,1.29,5.35
2024-12-06 13:14:34.507,44.1,543.0,-0.03,0.97,-0.05,0.22,0.19,5.35
2024-12-06 13:14:34.563,46.57,560.0,-0.01,0.98,-0.04,-0.45,0.92,4.62
2024-12-06 13:14:34.575,47.02,540.0,-0.02,0.98,-0.04,-0.33,0.8,4.01
2024-12-06 13:14:34.590,52.88,549.0,0.0,0.98,-0.03,-0.15,-1.4,3.58
2024-12-06 13:14:34.613,52.42,552.0,0.01,0.99,-0.05,-0.57,-2.98,3.1
2024-12-06 13:14:34.644,49.72,552.0,-0.02,1.0,-0.05,0.04,-4.63,2.97
2024-12-06 13:14:34.674,56.7,557.0,-0.01,0.98,-0.04,0.04,-5.61,2.18
2024-12-06 13:14:34.698,51.75,563.0,-0.01,1.0,-0.05,0.04,-5.18,3.34
2024-12-06 13:14:34.741,57.6,554.0,-0.01,0.99,-0.04,0.1,-5.18,3.58
2024-12-06 13:14:34.752,56.92,565.0,0.0,1.0,-0.04,-0.08,-5.97,3.83
2024-12-06 13:14:34.785,54.22,559.0,-0.03,0.99,-0.05,-0.08,-6.16,5.35
2024-12-06 13:14:34.805,60.07,555.0,-0.02,0.96,-0.04,0.1,-6.89,3.58
2024-12-06 13:14:34.833,58.27,565.0,0.0,1.01,-0.03,-0.51,-6.52,3.58
2024-12-06 13:14:34.861,58.72,573.0,-0.02,0.98,-0.04,-0.21,-7.99,3.58
2024-12-06 13:14:34.890,60.97,567.0,0.01,1.0,-0.03,-0.82,-9.15,3.1
2024-12-06 13:14:34.918,63.22,579.0,-0.02,1.01,-0.03,-1.0,-8.96,4.32
2024-12-06 13:14:35.37,61.88,556.0,-0.02,0.97,-0.04,-0.7,-8.84,3.95
2024-12-06 13:14:35.41,62.1,585.0,-0.03,0.97,-0.05,-0.08,-7.32,2.06
2024-12-06 13:14:35.53,63.67,560.0,-0.01,1.01,-0.04,-0.51,-6.58,1.87
2024-12-06 13:14:35.84,67.95,558.0,-0.04,1.0,-0.05,0.04,-6.03,2.3
2024-12-06 13:14:35.108,68.85,582.0,-0.03,0.99,-0.04,-0.15,-5.61,2.73
2024-12-06 13:14:35.136,68.17,575.0,-0.05,0.97,-0.05,0.1,-4.45,2.61
2024-12-06 13:14:35.188,70.42,568.0,-0.03,0.97,-0.04,0.59,-3.41,2.0
2024-12-06 13:14:35.193,71.1,591.0,-0.02,1.01,-0.03,0.65,-2.37,2.06
2024-12-06 13:14:35.218,69.75,570.0,-0.04,1.0,-0.04,1.2,-1.33,2.36
2024-12-06 13:14:35.245,75.15,580.0,-0.02,1.0,-0.04,0.53,-0.36,3.03
2024-12-06 13:14:35.279,73.57,575.0,-0.04,0.99,-0.05,0.89,-0.78,3.03
2024-12-06 13:14:35.303,75.15,579.0,-0.03,1.01,-0.04,0.46,0.19,3.89
2024-12-06 13:14:35.328,72.0,589.0,-0.03,0.98,-0.04,1.2,-0.24,4.07
2024-12-06 13:14:35.359,73.57,594.0,-0.03,1.0,-0.03,0.83,0.92,5.17
2024-12-06 13:14:35.384,77.85,586.0,-0.02,0.99,-0.03,0.77,1.29,5.35
2024-12-06 13:14:35.413,80.78,589.0,-0.03,0.97,-0.04,1.38,1.17,5.96
2024-12-06 13:14:35.448,81.22,593.0,-0.02,0.99,-0.04,1.26,0.31,6.15
2024-12-06 13:14:35.473,81.0,584.0,-0.03,0.98,-0.03,1.26,-0.24,6.09
2024-12-06 13:14:35.494,78.75,589.0,-0.02,1.0,-0.03,0.77,-0.54,5.48
2024-12-06 13:14:36.895,86.4,582.0,-0.03,0.99,-0.03,0.77,0.5,3.34
2024-12-06 13:14:36.909,83.03,613.0,-0.03,0.99,-0.04,0.53,1.84,3.77
2024-12-06 13:14:36.913,84.6,584.0,-0.03,0.99,-0.04,0.53,1.84,3.77
2024-12-06 13:14:36.929,86.62,580.0,-0.03,0.99,-0.04,0.46,1.96,3.95
2024-12-06 13:14:36.932,87.07,584.0,-0.03,0.99,-0.04,0.46,2.08,4.07
2024-12-06 13:14:36.936,84.82,573.0,-0.03,0.99,-0.04,0.53,2.08,4.19
2024-12-06 13:14:36.948,85.72,589.0,-0.03,0.99,-0.04,0.53,2.08,4.26
2024-12-06 13:14:36.956,87.75,600.0,-0.03,0.99,-0.04,0.53,2.08,4.32
2024-12-06 13:14:36.960,82.35,579.0,-0.03,0.99,-0.04,0.59,2.02,4.32
2024-12-06 13:14:36.983,84.6,589.0,-0.03,0.99,-0.04,0.59,1.96,4.38
2024-12-06 13:14:36.987,84.38,600.0,-0.03,0.99,-0.04,0.71,1.78,4.32
2024-12-06 13:14:37.13,85.5,607.0,-0.03,0.99,-0.03,0.71,1.6,4.38
2024-12-06 13:14:37.16,85.72,604.0,-0.03,1.01,-0.03,0.4,0.99,4.74
2024-12-06 13:14:37.21,85.95,606.0,-0.03,1.02,-0.03,-0.08,0.74,5.41
2024-12-06 13:14:37.29,85.95,612.0,-0.03,1.02,-0.03,-0.39,1.66,6.21
2024-12-06 13:14:37.40,87.3,609.0,-0.03,1.04,-0.05,-0.39,1.66,6.21
2024-12-06 13:14:37.47,84.6,592.0,-0.04,1.05,-0.05,-0.57,3.91,7.49
2024-12-06 13:14:37.143,82.12,567.0,-0.02,0.98,-0.04,-0.51,4.83,7.92
2024-12-06 13:14:37.159,79.88,581.0,-0.02,0.99,-0.04,-0.39,4.28,7.18
2024-12-06 13:14:37.161,84.6,579.0,-0.01,0.99,-0.03,-0.39,4.28,7.18
2024-12-06 13:14:37.173,83.25,570.0,-0.01,0.99,-0.03,-0.27,3.79,6.51
2024-12-06 13:14:37.176,81.67,565.0,-0.01,0.99,-0.03,-0.02,3.18,5.78
2024-12-06 13:14:37.182,78.53,573.0,-0.01,0.99,-0.03,0.16,2.63,5.11
2024-12-06 13:14:37.222,79.88,572.0,-0.02,0.98,-0.04,1.08,2.14,3.16
2024-12-06 13:14:37.227,81.22,564.0,-0.02,0.98,-0.04,1.14,1.96,2.91
2024-12-06 13:14:37.235,75.6,566.0,-0.02,0.97,-0.04,1.14,1.96,2.91
2024-12-06 13:14:37.257,78.53,557.0,-0.02,0.97,-0.04,1.26,2.21,2.61
2024-12-06 13:14:37.262,78.07,570.0,-0.03,0.94,-0.04,1.99,2.76,1.39
2024-12-06 13:14:37.266,80.1,568.0,-0.03,0.94,-0.04,2.36,2.27,0.35
2024-12-06 13:14:37.277,79.88,547.0,-0.02,0.94,-0.04,2.23,2.39,-0.32
2024-12-06 13:14:37.288,79.42,580.0,-0.01,0.96,-0.03,2.23,2.39,-0.32
2024-12-06 13:14:37.292,80.1,558.0,-0.01,0.98,-0.03,1.99,2.63,-0.51
2024-12-06 13:14:37.306,77.62,559.0,-0.02,1.0,-0.02,1.93,2.63,-0.69
2024-12-06 13:14:37.309,82.35,549.0,-0.03,1.01,-0.03,1.81,2.88,-0.93
2024-12-06 13:14:37.334,75.38,568.0,-0.03,1.0,-0.03,1.56,2.76,-0.81
2024-12-06 13:14:37.338,77.4,559.0,-0.02,1.0,-0.03,1.44,2.69,-0.51
2024-12-06 13:14:37.343,80.32,551.0,-0.03,0.99,-0.04,1.32,2.69,-0.14
2024-12-06 13:14:37.351,78.53,562.0,-0.03,0.99,-0.04,1.08,2.69,0.23
2024-12-06 13:14:37.366,81.22,557.0,-0.03,0.99,-0.04,0.83,2.63,0.53
2024-12-06 13:14:37.369,82.57,555.0,-0.03,0.98,-0.04,0.83,2.63,0.53
2024-12-06 13:14:37.378,80.1,575.0,-0.03,0.98,-0.03,0.77,2.76,0.9
2024-12-06 13:14:37.383,76.28,550.0,-0.03,0.98,-0.03,0.71,2.88,1.2
2024-12-06 13:14:37.390,75.15,574.0,-0.03,0.98,-0.03,0.71,2.94,1.57
2024-12-06 13:14:37.397,81.9,572.0,-0.03,0.98,-0.03,0.59,3.24,1.69
2024-12-06 13:14:37.406,80.1,574.0,-0.03,0.98,-0.03,0.59,3.24,1.63
2024-12-06 13:14:37.416,76.05,550.0,-0.03,0.99,-0.03,0.53,3.37,1.63
2024-12-06 13:14:37.421,80.1,566.0,-0.03,0.99,-0.03,0.4,3.37,1.45
2024-12-06 13:14:37.465,77.62,565.0,-0.02,1.0,-0.03,0.16,1.78,1.02
2024-12-06 13:14:37.476,82.12,575.0,-0.02,1.0,-0.04,0.16,1.23,0.96
2024-12-06 13:14:37.481,75.38,567.0,-0.02,1.0,-0.04,0.1,0.74,1.02
2024-12-06 13:14:37.486,79.88,580.0,-0.03,1.0,-0.04,0.04,0.44,1.08
2024-12-06 13:14:37.494,81.67,552.0,-0.03,1.0,-0.04,0.04,0.44,1.08
2024-12-06 13:14:37.497,78.53,560.0,-0.03,1.0,-0.04,-0.08,0.31,1.26
2024-12-06 13:14:37.511,75.15,582.0,-0.03,1.0,-0.04,-0.21,0.25,1.51
2024-12-06 13:14:37.516,80.32,571.0,-0.03,1.0,-0.04,-0.21,0.25,1.94
2024-12-06 13:14:37.520,77.17,556.0,-0.03,1.0,-0.04,-0.21,0.31,2.36
2024-12-06 13:14:37.529,78.97,576.0,-0.03,1.0,-0.04,-0.21,0.5,2.97
2024-12-06 13:14:37.559,79.88,561.0,-0.03,1.0,-0.04,-0.33,0.5,2.97
2024-12-06 13:14:37.563,79.42,571.0,-0.03,0.99,-0.04,-0.39,0.8,4.68
2024-12-06 13:14:37.566,82.57,573.0,-0.02,0.99,-0.04,-0.33,0.86,5.23
2024-12-06 13:14:37.578,79.65,566.0,-0.02,0.99,-0.04,-0.33,0.86,5.23
2024-12-06 13:14:37.582,80.1,586.0,-0.02,0.99,-0.04,-0.21,0.86,5.6
2024-12-06 13:14:37.590,82.8,550.0,-0.02,0.99,-0.03,-0.08,0.92,5.84
2024-12-06 13:14:37.635,79.65,564.0,-0.02,0.99,-0.03,0.28,1.47,6.15
2024-12-06 13:14:37.642,79.88,564.0,-0.02,0.99,-0.03,0.53,1.72,6.15
2024-12-06 13:14:37.644,79.65,563.0,-0.02,0.99,-0.03,0.65,1.84,6.09
2024-12-06 13:14:37.651,81.22,562.0,-0.03,0.99,-0.04,0.65,1.9,6.09
2024-12-06 13:14:37.688,77.4,561.0,-0.03,0.99,-0.04,0.83,1.9,6.09
2024-12-06 13:14:37.693,80.1,554.0,-0.03,0.99,-0.04,0.83,1.9,6.03
2024-12-06 13:14:37.703,76.28,555.0,-0.03,0.99,-0.04,0.83,1.84,6.03
2024-12-06 13:14:37.711,77.4,562.0,-0.03,0.99,-0.04,0.83,1.78,5.96
2024-12-06 13:14:37.716,77.85,557.0,-0.03,0.99,-0.04,0.83,1.66,5.9
2024-12-06 13:14:37.722,78.3,561.0,-0.03,0.99,-0.04,0.89,1.47,5.78
2024-12-06 13:14:37.727,80.55,570.0,-0.03,0.99,-0.04,0.95,1.29,5.66
2024-12-06 13:14:37.736,78.3,551.0,-0.03,0.99,-0.04,0.95,1.29,5.66
2024-12-06 13:14:37.743,78.53,550.0,-0.03,0.99,-0.04,1.01,1.05,5.48
2024-12-06 13:14:37.756,81.67,552.0,-0.03,0.99,-0.04,1.01,0.92,5.35
2024-12-06 13:14:37.760,80.32,571.0,-0.03,0.99,-0.03,1.08,0.86,5.11
2024-12-06 13:14:37.767,69.97,573.0,-0.03,0.99,-0.03,1.01,0.8,4.93
2024-12-06 13:14:37.783,79.88,569.0,-0.03,0.99,-0.03,0.95,0.86,4.62
2024-12-06 13:14:37.788,80.32,570.0,-0.03,0.99,-0.03,0.95,0.86,4.62
2024-12-06 13:14:37.790,79.42,558.0,-0.03,0.99,-0.03,0.89,0.92,4.44
2024-12-06 13:14:37.801,79.88,553.0,-0.03,0.99,-0.03,0.95,0.99,4.26
2024-12-06 13:14:37.823,80.32,561.0,-0.03,0.98,-0.03,0.83,1.05,3.95
2024-12-06 13:14:37.829,76.5,564.0,-0.03,0.98,-0.03,0.77,1.05,3.89
2024-12-06 13:14:37.847,82.8,549.0,-0.03,0.98,-0.03,0.71,1.05,3.83
2024-12-06 13:14:37.852,76.5,573.0,-0.03,0.98,-0.03,0.59,1.11,3.83
2024-12-06 13:14:37.865,81.9,555.0,-0.03,0.98,-0.03,0.59,1.11,3.83
2024-12-06 13:14:37.872,82.12,576.0,-0.03,0.98,-0.03,0.59,1.23,3.83
2024-12-06 13:14:37.906,79.42,540.0,-0.03,0.99,-0.03,0.46,1.05,3.77
2024-12-06 13:14:37.908,77.4,559.0,-0.03,0.99,-0.03,0.46,0.86,3.71
2024-12-06 13:14:37.916,80.55,565.0,-0.03,0.99,-0.03,0.46,0.86,3.71
2024-12-06 13:14:37.923,80.78,586.0,-0.03,0.99,-0.03,0.53,0.74,3.64
2024-12-06 13:14:37.930,76.28,563.0,-0.03,0.99,-0.03,0.46,0.62,3.58
2024-12-06 13:14:37.938,76.95,576.0,-0.03,0.99,-0.03,0.4,0.56,3.58
2024-12-06 13:14:37.951,80.55,559.0,-0.03,0.99,-0.03,0.4,0.5,3.64
2024-12-06 13:14:37.954,78.97,558.0,-0.03,0.99,-0.03,0.34,0.37,3.77
2024-12-06 13:14:37.961,80.32,565.0,-0.03,0.99,-0.03,0.34,0.37,3.77
2024-12-06 13:14:37.988,80.78,558.0,-0.03,0.99,-0.03,0.16,0.5,4.19
2024-12-06 13:14:37.993,75.15,558.0,-0.03,0.99,-0.03,0.16,0.56,4.26
2024-12-06 13:14:38.2,78.07,583.0,-0.03,0.99,-0.03,0.16,0.68,4.32
2024-12-06 13:14:38.14,80.78,563.0,-0.03,0.99,-0.04,0.16,0.68,4.32
2024-12-06 13:14:38.19,79.42,560.0,-0.03,0.99,-0.03,0.16,0.68,4.38
2024-12-06 13:14:38.23,80.1,559.0,-0.03,0.99,-0.03,0.22,0.68,4.38
2024-12-06 13:14:38.39,78.3,556.0,-0.03,0.99,-0.03,0.28,0.74,4.26
2024-12-06 13:14:38.46,80.55,562.0,-0.03,0.99,-0.03,0.28,0.74,4.26
2024-12-06 13:14:38.58,82.12,571.0,-0.03,0.99,-0.03,0.34,0.68,4.19
2024-12-06 13:14:38.62,83.03,567.0,-0.03,0.99,-0.04,0.4,0.74,4.13
2024-12-06 13:14:38.84,81.45,563.0,-0.03,0.99,-0.04,0.46,0.74,4.13
2024-12-06 13:14:38.87,76.95,561.0,-0.03,0.99,-0.04,0.46,0.8,4.07
2024-12-06 13:14:38.94,77.4,575.0,-0.03,0.99,-0.04,0.46,0.8,4.07
2024-12-06 13:14:38.190,74.7,561.0,-0.03,0.99,-0.04,0.59,1.53,3.71
2024-12-06 13:14:38.198,80.1,557.0,-0.03,0.99,-0.04,0.59,1.41,3.71
2024-12-06 13:14:38.210,77.17,563.0,-0.03,0.99,-0.04,0.65,1.41,3.71
2024-12-06 13:14:38.216,81.67,573.0,-0.03,0.99,-0.04,0.65,1.41,3.71
2024-12-06 13:14:38.223,81.0,586.0,-0.03,0.99,-0.04,0.65,1.35,3.71
2024-12-06 13:14:38.232,81.0,601.0,-0.03,0.99,-0.03,0.65,1.35,3.77
2024-12-06 13:14:38.237,82.35,568.0,-0.03,0.99,-0.03,0.65,1.41,3.83
2024-12-06 13:14:38.251,76.5,575.0,-0.03,0.99,-0.03,0.65,1.41,3.83
2024-12-06 13:14:38.253,75.6,579.0,-0.03,0.99,-0.03,0.59,1.53,3.83
2024-12-06 13:14:38.262,79.88,560.0,-0.03,0.99,-0.03,0.59,1.66,3.95
2024-12-06 13:14:38.269,81.67,557.0,-0.03,0.99,-0.03,0.53,1.78,4.01
2024-12-06 13:14:38.278,77.62,568.0,-0.03,0.99,-0.03,0.53,1.84,4.07
2024-12-06 13:14:38.285,82.35,576.0,-0.03,0.99,-0.03,0.53,1.9,4.07
2024-12-06 13:14:38.292,81.9,561.0,-0.03,0.99,-0.03,0.46,1.96,4.26
2024-12-06 13:14:38.300,78.97,565.0,-0.03,0.99,-0.04,0.46,1.96,4.26
2024-12-06 13:14:38.308,80.32,574.0,-0.03,0.99,-0.04,0.46,2.02,4.38
2024-12-06 13:14:38.317,80.78,569.0,-0.03,0.99,-0.04,0.53,2.08,4.38
2024-12-06 13:14:38.331,82.35,600.0,-0.03,0.99,-0.03,0.53,2.14,4.56
2024-12-06 13:14:38.362,82.57,567.0,-0.03,0.99,-0.04,0.59,2.33,4.5
2024-12-06 13:14:38.372,78.75,574.0,-0.03,0.99,-0.03,0.65,2.33,4.5
2024-12-06 13:14:38.381,78.97,584.0,-0.03,0.99,-0.04,0.65,2.33,4.44
2024-12-06 13:14:38.430,79.88,561.0,-0.03,0.99,-0.04,0.59,2.02,4.32
2024-12-06 13:14:38.433,74.92,566.0,-0.02,0.99,-0.04,0.65,1.78,4.32
2024-12-06 13:14:38.437,81.0,564.0,-0.02,0.99,-0.04,0.71,1.6,4.26
2024-12-06 13:14:39.445,77.17,585.0,-0.03,0.99,-0.04,0.53,1.47,4.68
2024-12-06 13:14:39.493,75.15,553.0,-0.03,0.99,-0.03,-0.27,0.25,6.21
2024-12-06 13:14:39.505,74.92,629.0,-0.02,1.12,-0.04,-3.32,3.43,16.83
2024-12-06 13:14:39.528,72.22,543.0,0.0,1.1,-0.1,-2.83,6.72,24.21
2024-12-06 13:14:39.556,69.53,529.0,-0.03,0.98,-0.06,-1.92,-3.35,33.31
2024-12-06 13:14:39.584,65.92,516.0,-0.03,0.88,-0.08,-0.33,-10.18,30.93
2024-12-06 13:14:39.611,63.22,574.0,-0.01,0.89,-0.01,-0.02,-6.03,25.5
2024-12-06 13:14:39.652,62.55,513.0,-0.01,0.93,0.02,0.71,6.54,16.03
2024-12-06 13:14:39.667,61.2,510.0,0.05,0.97,0.02,1.26,15.21,6.64
2024-12-06 13:14:39.695,61.88,508.0,0.06,0.99,-0.03,2.17,12.58,0.41
2024-12-06 13:14:39.724,61.2,534.0,0.06,0.99,-0.04,3.21,5.01,-3.62
2024-12-06 13:14:39.765,57.6,504.0,0.04,1.02,-0.04,4.68,1.17,-2.64
2024-12-06 13:14:39.783,61.2,506.0,-0.02,0.99,-0.05,5.04,1.47,-0.93
2024-12-06 13:14:39.810,55.12,506.0,-0.01,0.97,-0.04,4.07,5.01,0.47
2024-12-06 13:14:39.839,58.05,556.0,-0.02,0.97,-0.03,2.6,8.86,1.87
2024-12-06 13:14:39.862,55.35,529.0,-0.02,0.97,-0.03,1.26,11.42,1.14
2024-12-06 13:14:39.893,53.1,500.0,0.0,0.98,-0.02,0.22,13.38,-0.2
2024-12-06 13:14:39.935,50.17,514.0,0.01,1.0,-0.03,-0.02,13.56,-0.57
2024-12-06 13:14:39.943,52.65,499.0,0.02,0.99,-0.03,0.04,11.97,-2.09
2024-12-06 13:14:39.970,52.65,501.0,0.02,1.0,-0.04,0.59,9.84,-1.97
2024-12-06 13:14:39.997,52.88,508.0,0.01,1.0,-0.04,0.95,8.92,-0.44
2024-12-06 13:14:40.25,42.75,500.0,0.01,0.98,-0.04,1.01,9.53,-0.81
2024-12-06 13:14:40.55,43.42,491.0,0.01,1.01,-0.04,1.01,12.15,1.69
2024-12-06 13:14:40.80,43.65,492.0,-0.02,0.97,-0.04,1.2,13.5,1.2
2024-12-06 13:14:40.108,46.12,493.0,-0.01,0.96,-0.03,0.95,16.3,0.65
2024-12-06 13:14:40.163,44.55,479.0,-0.01,0.99,-0.04,0.89,18.32,-0.57
2024-12-06 13:14:40.168,45.22,485.0,-0.0,1.01,-0.05,0.4,18.14,-0.51
2024-12-06 13:14:40.284,40.5,485.0,-0.0,1.02,-0.05,0.28,15.94,0.84
2024-12-06 13:14:40.289,42.52,523.0,0.0,0.98,-0.03,1.75,21.13,2.42
2024-12-06 13:14:40.300,34.42,481.0,-0.0,0.99,-0.04,2.36,22.59,2.73
2024-12-06 13:14:40.332,32.62,487.0,-0.01,1.0,-0.05,2.78,23.14,1.51
2024-12-06 13:14:40.360,37.8,484.0,-0.01,1.01,-0.04,2.3,21.49,1.45
2024-12-06 13:14:40.388,31.05,476.0,-0.02,0.99,-0.05,1.44,17.28,0.1
2024-12-06 13:14:40.441,30.82,474.0,-0.02,0.98,-0.05,1.75,13.8,-1.36
2024-12-06 13:14:40.449,34.42,473.0,-0.03,0.99,-0.05,2.17,12.34,-2.89
2024-12-06 13:14:40.466,30.38,479.0,-0.03,1.0,-0.05,2.48,13.68,-3.25
2024-12-06 13:14:40.493,30.6,470.0,-0.01,1.01,-0.06,3.15,18.5,-0.44
2024-12-06 13:14:40.522,25.88,485.0,-0.02,1.01,-0.06,3.21,24.36,3.16
2024-12-06 13:14:40.552,27.9,484.0,0.02,1.0,0.0,-0.02,24.54,8.28
2024-12-06 13:14:40.578,26.77,474.0,-0.01,0.98,-0.05,-0.82,23.51,9.93
2024-12-06 13:14:40.633,23.4,473.0,0.05,0.99,-0.04,-1.12,20.46,13.41
2024-12-06 13:14:40.659,21.15,468.0,0.05,1.0,-0.03,-1.12,17.77,15.79
2024-12-06 13:14:40.687,24.07,470.0,0.05,0.99,-0.04,-0.51,11.97,15.85
2024-12-06 13:14:40.714,24.52,472.0,0.06,0.98,-0.03,-0.51,5.07,15.79
2024-12-06 13:14:40.744,21.82,476.0,0.06,0.98,-0.04,-0.51,-0.78,15.85
2024-12-06 13:14:40.772,20.02,464.0,0.05,0.97,-0.04,-0.21,-5.36,15.85
2024-12-06 13:14:40.798,17.1,462.0,0.05,0.98,-0.03,-0.33,-8.48,15.3
2024-12-06 13:14:40.825,17.55,464.0,0.07,0.99,-0.03,-0.63,-10.49,14.14
2024-12-06 13:14:40.852,18.23,477.0,0.08,0.99,-0.04,-1.0,-11.83,15.18
2024-12-06 13:14:40.907,15.3,469.0,0.06,0.98,-0.03,-1.92,-14.64,14.75
2024-12-06 13:14:40.910,15.52,458.0,0.05,0.98,-0.02,-3.01,-16.29,12.86
2024-12-06 13:14:40.935,17.1,464.0,0.05,0.98,-0.02,-3.2,-15.37,11.46
2024-12-06 13:14:40.963,10.57,456.0,0.06,0.97,-0.02,-3.2,-13.48,10.05
2024-12-06 13:14:40.991,15.07,472.0,0.06,0.98,-0.04,-2.95,-12.32,9.81
2024-12-06 13:14:41.63,10.57,457.0,0.06,0.99,-0.03,-3.01,-10.49,9.63
2024-12-06 13:14:41.69,7.65,476.0,0.07,1.0,-0.04,-2.77,-10.86,9.75
2024-12-06 13:14:41.87,9.45,458.0,0.07,0.99,-0.05,-2.65,-12.14,10.54
2024-12-06 13:14:41.101,5.85,456.0,0.08,1.0,-0.04,-2.53,-12.93,9.87
2024-12-06 13:14:41.133,3.6,456.0,0.08,1.01,-0.05,-1.98,-9.76,9.87
2024-12-06 13:14:41.159,7.2,477.0,0.06,1.0,-0.05,-0.63,-3.78,10.72
2024-12-06 13:14:41.184,0.9,460.0,0.06,0.99,-0.05,1.01,-0.17,10.91
2024-12-06 13:14:41.212,5.85,459.0,0.07,0.99,-0.05,1.99,4.1,12.01
2024-12-06 13:14:41.328,4.05,472.0,0.07,0.99,-0.05,2.66,8.92,14.39
2024-12-06 13:14:41.332,2.25,451.0,0.07,0.99,-0.05,3.52,12.58,14.39
2024-12-06 13:14:42.575,-1.57,460.0,0.11,0.98,-0.03,0.83,0.25,4.26
2024-12-06 13:14:44.162,-1.12,478.0,0.11,0.98,-0.04,0.65,0.13,3.95
2024-12-06 13:14:44.173,0.0,469.0,0.11,0.98,-0.04,0.53,0.13,3.95
2024-12-06 13:14:44.181,1.57,478.0,0.11,0.98,-0.04,0.46,-0.3,4.01
2024-12-06 13:14:44.189,-4.5,474.0,0.11,0.98,-0.04,0.46,-0.78,4.01
2024-12-06 13:14:44.193,1.8,484.0,0.11,0.98,-0.04,0.46,-1.15,4.01
2024-12-06 13:14:44.233,-0.45,462.0,0.11,0.98,-0.04,0.4,-1.76,3.77
2024-12-06 13:14:44.235,0.45,480.0,0.11,0.98,-0.04,0.46,-1.94,3.71
2024-12-06 13:14:44.238,-2.7,467.0,0.11,0.98,-0.04,0.53,-1.94,3.64
2024-12-06 13:14:44.246,-0.45,468.0,0.11,0.99,-0.04,0.53,-1.94,3.64
2024-12-06 13:14:44.254,1.57,469.0,0.11,0.99,-0.04,0.59,-1.7,3.58
2024-12-06 13:14:44.261,0.67,459.0,0.11,0.99,-0.04,0.71,-1.4,3.52
2024-12-06 13:14:44.275,-3.6,472.0,0.1,0.98,-0.04,0.77,-1.09,3.58
2024-12-06 13:14:44.284,0.0,460.0,0.1,0.98,-0.04,0.83,-0.66,3.58
2024-12-06 13:14:44.287,0.0,465.0,0.1,0.98,-0.04,0.83,-0.3,3.58
2024-12-06 13:14:44.292,-5.17,458.0,0.1,0.98,-0.04,0.83,-0.3,3.58
2024-12-06 13:14:44.300,-0.22,476.0,0.1,0.98,-0.05,0.95,0.07,3.64
2024-12-06 13:14:44.310,-0.67,464.0,0.1,0.98,-0.05,0.95,0.5,3.64
2024-12-06 13:14:44.336,0.0,479.0,0.1,0.98,-0.05,1.01,1.17,3.77
2024-12-06 13:14:44.340,-0.22,514.0,0.1,0.98,-0.05,1.01,1.53,3.77
2024-12-06 13:14:44.349,-2.7,458.0,0.11,0.98,-0.05,1.01,1.96,3.71
2024-12-06 13:14:44.357,-2.7,482.0,0.11,0.98,-0.04,1.01,2.51,3.64
2024-12-06 13:14:44.363,0.67,485.0,0.11,0.98,-0.04,1.01,2.88,3.58
2024-12-06 13:14:44.373,0.22,469.0,0.11,0.99,-0.04,1.01,2.88,3.58
2024-12-06 13:14:44.475,-0.67,479.0,0.11,0.99,-0.04,1.14,3.12,3.58
2024-12-06 13:14:44.485,-7.42,464.0,0.11,0.98,-0.04,1.99,0.19,4.32
2024-12-06 13:14:44.488,-4.72,456.0,0.11,0.98,-0.04,2.05,0.01,4.5
2024-12-06 13:14:44.546,-3.15,493.0,0.11,0.98,-0.04,2.17,-0.05,4.8
2024-12-06 13:14:44.598,-10.8,459.0,0.11,0.98,-0.04,1.93,0.86,5.66
2024-12-06 13:14:44.607,-3.82,463.0,0.11,0.97,-0.05,1.14,3.91,6.64
2024-12-06 13:14:44.615,-5.62,475.0,0.11,0.97,-0.05,1.14,3.91,6.64
2024-12-06 13:14:44.623,0.0,475.0,0.11,0.97,-0.05,0.95,4.4,6.57
2024-12-06 13:14:44.657,1.35,485.0,0.11,0.98,-0.05,0.71,5.14,6.45
2024-12-06 13:14:44.702,0.22,480.0,0.13,0.98,-0.03,-0.02,4.28,4.68
2024-12-06 13:14:44.706,-3.15,466.0,0.14,0.98,-0.03,-0.02,3.37,4.32
2024-12-06 13:14:44.721,0.0,466.0,0.14,0.98,-0.03,0.04,1.72,3.52
2024-12-06 13:14:44.729,-2.02,466.0,0.14,0.98,-0.03,0.04,1.72,3.52
2024-12-06 13:14:44.744,-0.22,487.0,0.14,0.98,-0.04,0.22,0.01,2.55
2024-12-06 13:14:44.751,-3.82,470.0,0.14,0.98,-0.04,0.4,-0.6,1.87
2024-12-06 13:14:44.761,-0.45,463.0,0.14,0.98,-0.04,0.59,-1.27,1.2
2024-12-06 13:14:44.798,-2.92,473.0,0.14,0.98,-0.04,0.77,-2.13,0.53
2024-12-06 13:14:44.802,-3.38,474.0,0.14,0.97,-0.04,0.4,-4.45,-0.69
2024-12-06 13:14:44.807,1.35,482.0,0.14,0.96,-0.04,0.4,-4.45,-0.69
2024-12-06 13:14:44.810,-3.82,482.0,0.13,0.95,-0.03,0.04,-6.22,-0.63
2024-12-06 13:14:44.818,-0.22,470.0,0.13,0.95,-0.03,-0.33,-8.23,-0.26
2024-12-06 13:14:44.839,-2.92,469.0,0.13,0.96,-0.02,-0.63,-10.43,0.35
2024-12-06 13:14:44.843,-1.8,490.0,0.13,0.97,-0.02,-1.06,-12.99,2.0
2024-12-06 13:14:45.852,-3.82,479.0,0.1,0.98,-0.04,-0.33,2.94,4.62
2024-12-06 13:14:45.880,-0.9,466.0,0.12,0.98,-0.04,0.22,3.73,4.5
2024-12-06 13:14:45.917,-2.47,469.0,0.1,0.99,-0.03,0.77,3.24,4.5
2024-12-06 13:14:45.933,-0.22,467.0,0.11,0.98,-0.03,0.83,3.3,1.87
2024-12-06 13:14:45.967,-0.22,462.0,0.1,0.98,-0.03,1.44,3.37,-0.69
2024-12-06 13:14:45.989,-1.57,491.0,0.09,0.98,-0.04,2.36,2.63,0.96
2024-12-06 13:14:46.14,0.45,479.0,0.08,0.97,-0.02,1.08,0.74,-1.85
2024-12-06 13:14:46.46,4.5,475.0,0.08,0.96,-0.04,1.01,-1.21,-4.05
2024-12-06 13:14:46.71,0.67,478.0,0.1,0.97,-0.02,1.08,-1.64,-4.53
2024-12-06 13:14:46.98,3.6,523.0,0.1,0.99,-0.03,0.71,0.31,-4.53
2024-12-06 13:14:46.143,4.95,493.0,0.09,0.98,-0.04,0.65,0.01,-4.66
2024-12-06 13:14:46.167,4.95,512.0,0.1,0.98,-0.03,0.46,-0.66,-3.19
2024-12-06 13:14:46.186,6.97,518.0,0.08,0.99,-0.06,1.5,-0.6,-2.15
2024-12-06 13:14:46.211,3.38,508.0,0.08,0.99,0.01,-0.45,-1.46,-1.42
2024-12-06 13:14:46.239,10.8,496.0,0.09,0.99,-0.05,-0.45,-1.94,-0.08
2024-12-06 13:14:46.262,8.32,503.0,0.06,0.98,-0.02,-0.51,-2.56,-0.2
2024-12-06 13:14:46.290,11.02,508.0,0.06,0.98,-0.04,-0.57,-4.02,-3.13
2024-12-06 13:14:46.318,13.95,494.0,0.06,0.98,-0.04,-0.39,-3.84,-3.92
2024-12-06 13:14:46.375,14.17,496.0,0.06,0.99,-0.05,0.53,-1.15,-2.89
2024-12-06 13:14:46.384,12.82,494.0,0.05,0.99,-0.03,0.83,-0.3,-1.36
2024-12-06 13:14:46.400,15.52,496.0,0.05,0.99,-0.06,0.83,0.07,-0.75
2024-12-06 13:14:46.516,15.07,521.0,0.06,1.0,-0.05,0.71,2.02,1.57
2024-12-06 13:14:46.570,17.32,495.0,0.05,0.99,-0.02,0.16,1.53,0.41
2024-12-06 13:14:46.596,16.2,513.0,0.03,0.99,-0.04,0.04,-4.81,0.1
2024-12-06 13:14:46.621,21.15,500.0,0.07,1.0,-0.04,-0.21,-5.06,1.33
2024-12-06 13:14:46.649,23.85,503.0,0.05,1.0,-0.04,-0.15,-6.16,3.16
2024-12-06 13:14:46.674,20.7,510.0,0.03,0.98,-0.03,-0.39,-9.45,1.94
2024-12-06 13:14:46.701,20.02,497.0,0.04,0.98,-0.02,-0.63,-9.88,1.69
2024-12-06 13:14:46.730,22.05,494.0,0.03,0.99,-0.02,-0.76,-8.84,1.39
2024-12-06 13:14:46.758,27.22,495.0,0.02,0.99,-0.03,-0.57,-8.9,1.26
2024-12-06 13:14:46.790,29.02,495.0,0.01,0.98,-0.04,-0.7,-9.76,-0.57
2024-12-06 13:14:46.821,29.7,503.0,0.03,0.99,-0.04,-1.0,-9.33,0.47
2024-12-06 13:14:46.843,32.4,513.0,0.0,1.0,-0.05,-0.15,-8.05,-0.14
2024-12-06 13:14:46.867,31.27,504.0,-0.0,0.99,-0.04,0.16,-7.38,-0.14
2024-12-06 13:14:46.895,30.38,508.0,-0.02,0.99,-0.04,0.1,-6.4,-1.54
2024-12-06 13:14:46.922,32.62,525.0,0.01,1.01,-0.05,-0.45,-3.84,-2.28
2024-12-06 13:14:46.950,35.55,523.0,-0.01,1.0,-0.04,-0.45,-1.03,0.41
2024-12-06 13:14:46.981,35.33,527.0,-0.0,0.99,-0.03,-0.57,-0.24,0.47
2024-12-06 13:14:47.5,38.02,519.0,-0.01,0.99,-0.04,-0.57,0.44,1.45
2024-12-06 13:14:47.51,34.42,572.0,-0.01,0.99,-0.03,-0.27,0.07,0.65
2024-12-06 13:14:47.60,39.83,517.0,0.0,0.99,-0.03,-0.21,0.44,-0.02
2024-12-06 13:14:47.88,35.77,533.0,0.02,1.01,-0.03,0.22,0.99,2.36
2024-12-06 13:14:47.116,38.02,538.0,-0.02,0.99,-0.03,0.83,0.19,1.87
2024-12-06 13:14:47.144,38.92,520.0,0.02,0.99,-0.02,0.77,-0.48,1.87
2024-12-06 13:14:47.170,43.42,517.0,-0.02,1.0,-0.04,0.89,0.37,3.03
2024-12-06 13:14:47.200,43.65,539.0,0.0,0.99,-0.02,0.71,1.23,3.16
2024-12-06 13:14:47.226,42.3,540.0,-0.02,0.98,-0.03,0.71,2.69,4.44
2024-12-06 13:14:47.272,42.52,573.0,-0.03,0.96,-0.04,1.08,2.88,2.3
2024-12-06 13:14:47.281,42.52,527.0,-0.0,1.0,-0.03,0.53,3.98,2.06
2024-12-06 13:14:47.312,45.22,548.0,-0.01,1.02,-0.03,0.4,4.65,3.22
2024-12-06 13:14:47.339,45.45,538.0,-0.01,0.99,-0.04,0.77,2.82,2.79
2024-12-06 13:14:47.367,48.6,551.0,0.0,0.99,-0.03,1.01,0.56,3.28
2024-12-06 13:14:47.391,50.4,554.0,-0.01,0.99,-0.04,1.44,-0.48,2.55
2024-12-06 13:14:47.423,48.82,556.0,-0.0,0.99,-0.02,1.56,-0.6,2.67
2024-12-06 13:14:47.453,49.5,558.0,0.0,0.99,-0.03,1.38,-1.21,3.58
2024-12-06 13:14:47.583,52.65,609.0,-0.02,0.97,-0.04,2.11,-2.92,3.28
2024-12-06 13:14:47.586,56.47,548.0,-0.0,1.01,-0.03,-0.39,-3.23,2.55
2024-12-06 13:14:47.612,57.6,545.0,-0.04,0.98,-0.04,-0.45,-3.96,3.22
2024-12-06 13:14:47.645,61.88,553.0,-0.01,0.97,-0.03,-0.27,-5.12,1.45
2024-12-06 13:14:47.666,61.88,557.0,-0.0,1.01,-0.03,-0.82,-4.57,2.12
2024-12-06 13:14:47.693,61.42,567.0,-0.03,0.99,-0.03,-0.82,-5.67,1.51
2024-12-06 13:14:47.730,62.1,573.0,-0.01,0.98,-0.03,-1.0,-6.52,1.2
2024-12-06 13:14:47.749,63.67,557.0,-0.03,1.01,-0.02,-1.12,-5.55,3.03
2024-12-06 13:14:47.776,63.9,562.0,-0.02,0.98,-0.02,-1.55,-3.23,3.22
2024-12-06 13:14:47.803,66.15,570.0,-0.01,0.98,-0.03,-1.0,-1.7,4.56
2024-12-06 13:14:47.838,63.22,577.0,-0.02,0.99,-0.04,-0.27,-1.33,6.09
2024-12-06 13:14:47.858,67.28,568.0,-0.01,0.98,-0.04,0.83,-2.8,5.96
2024-12-06 13:14:47.886,67.95,586.0,-0.02,1.02,-0.03,0.83,-2.37,7.25
2024-12-06 13:14:47.914,67.05,559.0,-0.03,0.99,-0.03,1.44,-2.68,6.39
2024-12-06 13:14:47.956,63.22,571.0,-0.02,1.0,-0.02,0.95,-2.37,5.11
2024-12-06 13:14:47.970,66.6,562.0,-0.04,0.98,-0.03,1.2,-2.25,5.05
2024-12-06 13:14:47.996,67.5,563.0,-0.03,0.97,-0.03,1.01,-2.19,3.16
2024-12-06 13:14:48.24,72.22,557.0,-0.02,1.01,-0.03,0.59,-2.68,2.85
2024-12-06 13:14:48.55,74.47,558.0,-0.04,1.0,-0.03,1.14,-3.17,3.03
2024-12-06 13:14:48.80,71.55,570.0,-0.02,0.99,-0.02,-0.27,-3.29,3.1
2024-12-06 13:14:48.107,76.05,567.0,-0.04,1.0,-0.02,0.16,-3.17,3.83
2024-12-06 13:14:48.139,74.92,570.0,-0.02,0.98,-0.03,-0.08,-2.92,3.71
2024-12-06 13:14:48.174,72.67,583.0,-0.02,0.99,-0.02,0.22,-3.41,3.4
2024-12-06 13:14:48.196,74.25,591.0,-0.03,0.99,-0.03,0.34,-3.41,3.77
2024-12-06 13:14:48.217,78.07,575.0,-0.01,1.01,-0.02,0.16,-4.39,3.77
2024-12-06 13:14:48.245,76.28,581.0,-0.04,1.0,-0.03,-0.15,-3.04,5.29
2024-12-06 13:14:48.273,82.8,572.0,-0.02,0.95,-0.03,0.53,-3.35,4.68
2024-12-06 13:14:48.304,80.32,574.0,-0.02,1.0,-0.02,0.04,-2.98,4.8
2024-12-06 13:14:48.328,83.03,588.0,-0.03,1.0,-0.03,0.1,-2.49,5.35
2024-12-06 13:14:49.663,83.7,603.0,-0.04,0.99,-0.02,0.83,0.99,5.17
2024-12-06 13:14:49.668,85.95,590.0,-0.04,0.99,-0.02,0.59,1.6,4.93
2024-12-06 13:14:49.676,82.8,605.0,-0.04,0.99,-0.02,0.59,1.6,4.93
2024-12-06 13:14:49.685,84.38,602.0,-0.04,0.99,-0.02,0.53,1.84,4.87
2024-12-06 13:14:49.688,85.95,593.0,-0.04,0.99,-0.02,0.46,1.96,4.87
2024-12-06 13:14:49.696,83.7,595.0,-0.04,0.99,-0.02,0.53,1.96,4.8
2024-12-06 13:14:49.704,84.6,600.0,-0.04,0.99,-0.02,0.53,1.9,4.74
2024-12-06 13:14:49.717,83.25,585.0,-0.04,0.99,-0.02,0.53,1.9,4.74
2024-12-06 13:14:49.720,86.62,590.0,-0.04,0.99,-0.02,0.53,1.9,4.74
2024-12-06 13:14:49.728,86.62,601.0,-0.04,0.99,-0.02,0.53,1.84,4.62
2024-12-06 13:14:49.763,82.12,602.0,-0.04,0.99,-0.02,0.83,1.17,4.32
2024-12-06 13:14:49.766,86.62,604.0,-0.04,0.99,-0.02,0.83,1.17,4.32
2024-12-06 13:14:49.776,81.45,589.0,-0.04,0.99,-0.02,0.95,0.99,4.32
2024-12-06 13:14:49.782,85.95,591.0,-0.04,0.99,-0.02,0.95,0.86,4.32
2024-12-06 13:14:49.790,84.6,584.0,-0.04,0.99,-0.02,0.95,0.8,4.26
2024-12-06 13:14:49.799,83.92,610.0,-0.04,0.99,-0.02,0.95,0.8,4.19
2024-12-06 13:14:49.807,85.95,609.0,-0.04,0.99,-0.02,1.01,0.86,4.19
2024-12-06 13:14:49.819,83.7,620.0,-0.04,0.99,-0.02,1.01,0.86,4.19
2024-12-06 13:14:49.822,85.95,611.0,-0.04,0.99,-0.02,0.95,0.99,4.19
2024-12-06 13:14:49.829,87.3,592.0,-0.04,0.99,-0.02,1.01,1.05,4.19
2024-12-06 13:14:49.840,84.15,590.0,-0.03,1.0,-0.02,0.89,0.8,4.38
2024-12-06 13:14:49.850,82.57,591.0,-0.03,1.0,-0.02,0.71,0.86,4.68
2024-12-06 13:14:49.853,85.28,584.0,-0.03,1.0,-0.02,0.59,0.56,4.93
2024-12-06 13:14:49.865,86.17,607.0,-0.03,1.01,-0.01,0.59,0.56,4.93
2024-12-06 13:14:49.874,87.97,644.0,-0.03,1.02,-0.02,0.22,0.25,5.6
2024-12-06 13:14:49.885,83.47,584.0,-0.04,1.03,-0.02,-0.02,3.49,7.61
2024-12-06 13:14:49.897,83.25,587.0,-0.04,1.03,-0.02,0.4,3.12,8.34
2024-12-06 13:14:49.900,84.38,625.0,-0.05,1.0,-0.02,0.4,3.12,8.34
2024-12-06 13:14:49.907,82.8,586.0,-0.04,0.99,-0.01,0.34,3.24,8.71
2024-12-06 13:14:49.915,86.62,589.0,-0.03,0.98,-0.02,-0.08,3.61,9.2
2024-12-06 13:14:49.922,84.82,587.0,-0.03,0.97,-0.03,-0.39,4.1,9.57
2024-12-06 13:14:49.930,83.92,576.0,-0.03,0.97,-0.03,-0.39,3.79,9.75
2024-12-06 13:14:49.938,81.67,603.0,-0.03,0.97,-0.03,-0.27,3.67,9.81
2024-12-06 13:14:49.948,81.67,594.0,-0.03,0.98,-0.02,-0.27,3.67,9.81
2024-12-06 13:14:49.955,83.25,579.0,-0.02,0.99,-0.02,-0.33,3.73,9.81
2024-12-06 13:14:49.988,79.65,582.0,-0.03,0.99,-0.03,0.22,2.94,8.16
2024-12-06 13:14:49.999,84.82,586.0,-0.02,0.98,-0.03,0.34,2.76,8.16
2024-12-06 13:14:50.6,78.53,566.0,-0.02,0.98,-0.02,0.46,2.57,7.55
2024-12-06 13:14:50.9,84.15,582.0,-0.01,0.98,-0.02,0.59,2.21,7.06
2024-12-06 13:14:50.14,82.35,573.0,-0.01,0.98,-0.02,0.77,1.96,6.7
2024-12-06 13:14:50.23,80.1,565.0,-0.02,0.98,-0.02,0.95,1.96,6.33
2024-12-06 13:14:50.31,81.45,560.0,-0.02,0.99,-0.02,0.95,1.96,6.33
2024-12-06 13:14:50.39,84.15,579.0,-0.02,0.98,-0.02,1.2,1.96,5.84
2024-12-06 13:14:50.51,82.35,574.0,-0.02,0.98,-0.02,1.38,1.72,5.48
2024-12-06 13:14:50.57,83.92,566.0,-0.02,0.98,-0.02,1.44,2.08,5.05
2024-12-06 13:14:50.62,81.45,568.0,-0.02,0.98,-0.02,1.44,1.66,4.87
2024-12-06 13:14:50.73,80.78,566.0,-0.02,0.98,-0.02,1.56,2.08,4.5
2024-12-06 13:14:50.87,81.0,565.0,-0.02,0.98,-0.02,1.62,1.72,4.38
2024-12-06 13:14:50.93,78.75,570.0,-0.03,0.97,-0.03,1.75,2.21,3.89
2024-12-06 13:14:50.103,79.88,568.0,-0.03,0.96,-0.02,2.3,2.02,3.03
2024-12-06 13:14:50.119,79.2,573.0,-0.03,0.96,-0.02,1.93,1.17,3.1
2024-12-06 13:14:50.122,80.32,568.0,-0.01,0.99,-0.02,1.38,2.45,3.4
2024-12-06 13:14:50.127,82.8,566.0,-0.02,0.99,-0.02,1.38,2.45,3.4
2024-12-06 13:14:50.132,76.28,574.0,-0.04,0.96,-0.02,2.11,2.94,2.73
2024-12-06 13:14:50.141,80.78,572.0,-0.04,0.95,-0.02,2.85,1.66,1.69
2024-12-06 13:14:50.148,80.78,565.0,-0.01,0.97,-0.02,2.42,1.72,1.14
2024-12-06 13:14:50.156,81.22,577.0,-0.01,0.97,-0.02,1.75,2.27,1.14
2024-12-06 13:14:50.174,76.95,561.0,-0.01,0.99,-0.02,1.81,2.51,1.08
2024-12-06 13:14:50.179,81.22,572.0,-0.02,0.99,-0.01,1.81,2.51,1.08
2024-12-06 13:14:50.208,81.0,559.0,-0.04,0.99,-0.02,2.05,2.45,0.78
2024-12-06 13:14:50.214,81.22,576.0,-0.03,0.99,-0.02,1.75,2.39,0.53
2024-12-06 13:14:50.217,79.2,566.0,-0.03,0.99,-0.02,1.81,2.14,0.65
2024-12-06 13:14:50.225,79.88,572.0,-0.03,0.98,-0.03,1.69,1.96,0.72
2024-12-06 13:14:50.233,81.22,560.0,-0.03,0.98,-0.03,1.56,1.96,0.72
2024-12-06 13:14:50.244,83.03,558.0,-0.03,0.98,-0.03,1.5,1.72,0.72
2024-12-06 13:14:50.248,80.78,560.0,-0.03,0.98,-0.02,1.5,1.72,0.72
2024-12-06 13:14:51.256,78.75,565.0,-0.03,0.99,-0.03,0.53,1.66,3.34
2024-12-06 13:14:51.284,74.03,549.0,-0.01,1.03,-0.02,0.28,1.41,3.58
2024-12-06 13:14:51.311,77.4,553.0,-0.02,1.14,-0.03,-3.99,3.49,15.97
2024-12-06 13:14:51.355,74.47,538.0,-0.01,1.05,-0.12,-2.1,8.55,23.97
2024-12-06 13:14:51.367,65.25,519.0,0.01,0.95,-0.04,-1.92,-0.54,31.97
2024-12-06 13:14:51.394,67.05,578.0,-0.03,0.88,-0.08,-0.45,-6.58,28.91
2024-12-06 13:14:51.474,57.15,503.0,-0.0,0.88,0.01,0.71,-1.33,21.47
2024-12-06 13:14:51.477,63.22,541.0,-0.01,0.9,0.03,1.87,11.91,9.81
2024-12-06 13:14:51.482,61.42,506.0,0.04,0.95,0.03,2.36,19.48,-1.85
2024-12-06 13:14:51.505,58.27,508.0,0.05,1.02,-0.02,2.66,14.17,-8.68
2024-12-06 13:14:51.535,60.07,516.0,0.03,1.03,-0.03,3.21,5.44,-11.0
2024-12-06 13:14:51.568,60.52,507.0,0.01,1.04,-0.04,3.7,2.33,-8.38
2024-12-06 13:14:51.592,54.67,506.0,-0.03,1.0,-0.05,3.58,1.11,-6.18
2024-12-06 13:14:51.615,55.8,499.0,-0.03,0.97,-0.04,1.93,2.69,-2.89
2024-12-06 13:14:51.644,54.67,517.0,-0.03,0.99,-0.01,0.77,6.78,1.14
2024-12-06 13:14:51.753,57.82,554.0,-0.02,0.98,-0.01,-0.33,11.54,2.42
2024-12-06 13:14:51.759,54.45,505.0,0.02,1.0,-0.03,-1.0,12.52,0.04
2024-12-06 13:14:51.794,51.97,503.0,0.01,1.01,-0.04,0.04,10.2,1.33
2024-12-06 13:14:51.810,49.95,497.0,0.01,1.0,-0.04,0.89,9.04,2.42
2024-12-06 13:14:51.837,51.07,513.0,0.0,0.98,-0.04,0.95,10.2,2.67
2024-12-06 13:14:51.865,50.4,540.0,-0.0,0.99,-0.03,0.53,11.91,3.28
2024-12-06 13:14:51.896,48.6,503.0,-0.02,0.99,-0.04,0.28,12.58,3.4
2024-12-06 13:14:51.919,43.88,485.0,-0.03,0.97,-0.02,-0.39,13.68,1.33
2024-12-06 13:14:51.971,44.77,484.0,-0.02,0.99,-0.03,0.28,15.27,1.63
2024-12-06 13:14:51.975,41.17,500.0,-0.01,1.0,-0.02,0.16,15.88,0.41
2024-12-06 13:14:52.23,43.42,495.0,0.01,1.02,-0.03,0.46,15.51,2.24
2024-12-06 13:14:52.30,41.85,490.0,-0.02,1.0,-0.04,0.89,13.74,4.19
2024-12-06 13:14:52.57,41.17,485.0,-0.01,0.98,-0.02,1.2,13.01,4.26
2024-12-06 13:14:52.89,37.8,490.0,-0.02,0.99,-0.02,2.11,14.35,4.99
2024-12-06 13:14:52.132,42.3,484.0,-0.01,0.99,-0.02,2.36,15.69,4.01
2024-12-06 13:14:52.141,40.05,486.0,-0.01,1.0,-0.03,2.42,17.53,5.05
2024-12-06 13:14:52.175,37.12,493.0,-0.03,0.99,-0.04,2.42,17.53,4.87
2024-12-06 13:14:52.195,37.58,472.0,-0.02,0.98,-0.04,2.48,17.53,4.38
2024-12-06 13:14:52.226,36.22,471.0,-0.02,0.99,-0.04,2.42,18.2,4.5
2024-12-06 13:14:52.252,31.5,484.0,-0.03,0.99,-0.04,2.54,17.83,3.95
2024-12-06 13:14:52.286,28.35,479.0,-0.03,0.99,-0.03,2.23,18.5,2.73
2024-12-06 13:14:52.309,29.25,477.0,-0.02,0.99,-0.03,1.75,19.11,2.73
2024-12-06 13:14:52.334,32.62,476.0,-0.01,0.99,-0.03,1.44,19.66,2.61
2024-12-06 13:14:52.365,25.65,478.0,-0.0,0.99,-0.03,1.32,20.21,3.34
2024-12-06 13:14:52.388,27.0,482.0,-0.0,1.0,-0.03,0.83,21.07,6.03
2024-12-06 13:14:52.417,30.38,471.0,0.0,0.99,-0.02,0.46,20.39,7.18
2024-12-06 13:14:52.448,27.0,469.0,0.02,1.0,-0.03,-0.08,20.15,9.81
2024-12-06 13:14:52.474,22.5,474.0,0.01,0.99,-0.03,-0.27,18.62,11.27
2024-12-06 13:14:52.498,25.42,469.0,0.04,0.99,-0.02,-0.94,16.67,12.37
2024-12-06 13:14:52.526,22.72,466.0,0.04,0.99,-0.02,-0.82,14.6,13.65
2024-12-06 13:14:52.554,23.17,470.0,0.03,0.98,-0.02,-0.63,12.03,12.49
2024-12-06 13:14:52.584,21.6,471.0,0.06,1.0,-0.03,-0.15,10.81,14.39
2024-12-06 13:14:52.609,21.6,457.0,0.02,0.99,-0.03,0.65,6.91,13.11
2024-12-06 13:14:52.642,16.42,466.0,0.05,0.97,-0.03,0.65,5.07,11.64
2024-12-06 13:14:52.665,16.65,474.0,0.06,0.99,-0.04,1.01,4.1,11.95
2024-12-06 13:14:52.695,19.57,455.0,0.04,1.01,-0.03,1.2,4.04,13.41
2024-12-06 13:14:52.804,15.52,457.0,0.05,1.01,-0.03,1.2,4.28,13.41
2024-12-06 13:14:52.809,17.77,455.0,0.06,0.99,-0.04,1.32,1.78,12.13
2024-12-06 13:14:52.830,10.8,468.0,0.05,0.98,-0.03,1.01,-0.6,10.79
2024-12-06 13:14:52.857,11.92,470.0,0.07,0.98,-0.02,0.4,-1.88,9.14
2024-12-06 13:14:52.885,10.35,458.0,0.08,0.98,-0.04,0.4,0.44,10.05
2024-12-06 13:14:52.912,11.02,457.0,0.05,0.98,-0.02,0.1,1.23,9.14
2024-12-06 13:14:52.939,4.5,453.0,0.08,0.98,-0.03,-0.63,2.63,9.26
2024-12-06 13:14:52.989,7.2,456.0,0.07,0.99,-0.03,-1.06,3.3,10.18
2024-12-06 13:14:52.998,3.6,456.0,0.09,0.99,-0.03,-1.31,3.91,10.54
2024-12-06 13:14:53.22,4.5,455.0,0.08,0.98,-0.04,-1.31,5.14,11.7
2024-12-06 13:14:53.50,3.15,468.0,0.08,0.97,-0.03,-1.12,4.1,10.91
2024-12-06 13:14:53.77,3.6,463.0,0.1,0.99,-0.04,-1.12,4.22,10.97
2024-12-06 13:14:53.105,3.6,462.0,0.09,0.99,-0.03,-0.82,3.67,11.34
2024-12-06 13:14:54.413,1.8,454.0,0.06,0.97,-0.05,0.22,5.44,10.91
2024-12-06 13:14:56.997,-0.67,457.0,0.1,0.99,-0.03,1.08,1.23,4.56
2024-12-06 13:14:57.5,0.22,459.0,0.09,0.99,-0.03,1.32,0.31,4.44
2024-12-06 13:14:57.15,-1.35,468.0,0.05,0.97,-0.03,2.54,-4.14,-0.2
2024-12-06 13:14:57.45,1.57,471.0,0.09,0.97,0.0,1.26,-2.62,-3.01
2024-12-06 13:14:57.70,3.82,541.0,0.07,0.98,-0.03,2.11,-3.78,-4.05
2024-12-06 13:14:57.109,2.25,468.0,0.1,0.99,-0.02,1.32,-3.59,-4.17
2024-12-06 13:14:57.126,4.5,498.0,0.08,0.99,-0.05,1.32,-2.43,-2.03
2024-12-06 13:14:57.154,5.4,484.0,0.08,0.98,-0.03,0.53,-3.1,-2.58
2024-12-06 13:14:57.182,5.62,487.0,0.09,0.99,-0.05,0.65,-2.49,-0.93
2024-12-06 13:14:57.225,8.32,488.0,0.07,0.99,-0.05,1.56,-1.21,-0.69
2024-12-06 13:14:57.236,9.68,504.0,0.07,0.99,-0.02,0.22,-2.86,-0.93
2024-12-06 13:14:57.263,5.62,485.0,0.07,0.99,-0.04,0.1,-1.52,-0.08
2024-12-06 13:14:57.290,8.55,493.0,0.06,0.98,-0.03,0.28,-2.86,-0.57
2024-12-06 13:14:57.329,13.05,486.0,0.06,0.98,-0.04,0.1,-3.96,-1.05
2024-12-06 13:14:57.345,10.12,504.0,0.05,0.98,-0.03,0.04,-5.91,-2.58
2024-12-06 13:14:57.374,14.62,492.0,0.05,0.98,-0.05,0.34,-6.46,-3.56
2024-12-06 13:14:57.402,11.7,505.0,0.05,0.99,-0.04,0.46,-4.63,-2.46
2024-12-06 13:14:57.443,13.95,498.0,0.05,1.0,-0.04,0.4,-2.86,-1.36
2024-12-06 13:14:57.456,18.0,503.0,0.05,1.0,-0.03,-0.15,-1.76,1.26
2024-12-06 13:14:57.484,18.0,500.0,0.03,0.98,-0.03,-0.57,-1.76,2.97
2024-12-06 13:14:57.512,19.12,498.0,0.06,0.99,-0.04,-0.76,-1.03,3.71
2024-12-06 13:14:57.562,20.7,500.0,0.06,0.99,-0.02,-1.06,-1.46,5.35
2024-12-06 13:14:57.578,17.32,491.0,0.05,0.97,-0.02,-1.79,-6.03,3.22
2024-12-06 13:14:57.598,23.17,488.0,0.07,0.98,-0.03,-1.49,-7.44,2.67
2024-12-06 13:14:57.623,25.2,490.0,0.04,0.98,-0.03,-0.76,-9.33,1.75
2024-12-06 13:14:57.652,20.7,507.0,0.07,1.0,-0.04,-0.45,-9.09,1.2
2024-12-06 13:14:57.680,22.05,502.0,0.05,1.0,-0.04,-0.27,-9.7,2.49
2024-12-06 13:14:57.708,24.97,504.0,0.01,0.98,-0.04,-0.08,-12.38,0.53
2024-12-06 13:14:57.737,25.88,485.0,0.03,0.98,-0.04,-0.27,-11.65,0.29
2024-12-06 13:14:57.777,27.9,502.0,0.0,0.98,-0.04,-0.27,-10.06,-1.12
2024-12-06 13:14:57.788,27.0,517.0,0.01,0.99,-0.03,-0.57,-9.09,-0.99
2024-12-06 13:14:57.821,29.92,496.0,0.01,0.99,-0.03,-0.82,-9.09,-2.09
2024-12-06 13:14:57.843,29.25,497.0,0.02,1.0,-0.04,-1.0,-6.95,-1.54
2024-12-06 13:14:57.872,27.45,516.0,-0.01,0.99,-0.04,-0.88,-4.94,-1.48
2024-12-06 13:14:57.898,30.82,509.0,0.01,1.0,-0.04,-1.0,-4.63,-1.3
2024-12-06 13:14:57.933,33.75,511.0,-0.01,0.99,-0.03,-0.88,-5.85,-1.97
2024-12-06 13:14:57.954,30.82,519.0,0.03,1.01,-0.04,-1.06,-4.57,-2.58
2024-12-06 13:14:58.46,37.35,507.0,0.01,0.98,-0.03,-0.08,-1.52,-0.08
2024-12-06 13:14:58.71,39.38,514.0,-0.02,0.99,-0.03,0.71,-1.4,-0.32
2024-12-06 13:14:58.93,37.58,528.0,-0.0,0.99,-0.03,0.83,-0.91,-0.99
2024-12-06 13:14:58.118,40.5,506.0,-0.01,1.01,-0.03,0.59,-0.11,0.78
2024-12-06 13:14:58.146,40.95,522.0,-0.03,0.98,-0.04,1.2,0.31,-0.32
2024-12-06 13:14:58.174,36.9,529.0,-0.0,0.99,-0.02,1.2,1.47,0.04
2024-12-06 13:14:58.201,38.25,513.0,-0.04,0.99,-0.03,1.26,2.63,0.53
2024-12-06 13:14:58.240,45.0,516.0,-0.03,0.98,-0.02,1.01,3.61,0.23
2024-12-06 13:14:58.256,39.38,527.0,-0.02,0.99,-0.03,0.89,3.55,-0.26
2024-12-06 13:14:58.284,43.42,537.0,-0.03,0.99,-0.02,0.89,2.51,-0.69
2024-12-06 13:14:58.311,49.05,526.0,-0.02,1.01,-0.02,0.4,2.76,-0.02
2024-12-06 13:14:58.340,46.8,542.0,-0.03,1.01,-0.03,0.16,2.82,1.45
2024-12-06 13:14:58.368,46.57,532.0,-0.03,0.99,-0.03,0.16,1.47,1.75
2024-12-06 13:14:58.395,49.5,546.0,-0.02,0.97,-0.02,0.28,1.11,1.94
2024-12-06 13:14:58.422,47.92,553.0,-0.02,0.98,-0.02,0.46,0.56,2.12
2024-12-06 13:14:58.457,51.07,533.0,-0.02,0.99,-0.02,0.4,-0.11,2.0
2024-12-06 13:14:58.477,53.1,543.0,-0.02,1.0,-0.02,0.16,-0.24,2.36
2024-12-06 13:14:58.507,52.42,553.0,-0.03,0.99,-0.03,0.53,-1.58,2.91
2024-12-06 13:14:58.534,51.52,554.0,-0.03,0.98,-0.02,0.34,-3.84,2.3
2024-12-06 13:14:58.560,49.5,541.0,-0.02,1.01,-0.03,-0.15,-3.59,3.22
2024-12-06 13:14:58.592,55.35,545.0,-0.03,0.99,-0.03,0.34,-4.26,3.4
2024-12-06 13:14:58.627,57.6,559.0,-0.02,1.01,-0.03,0.04,-4.81,3.83
2024-12-06 13:14:58.643,53.55,538.0,-0.05,0.99,-0.03,0.46,-5.79,4.32
2024-12-06 13:14:58.682,52.65,565.0,-0.02,0.98,-0.02,0.59,-6.95,2.97
2024-12-06 13:14:58.703,61.65,574.0,-0.04,1.01,-0.03,0.22,-6.16,4.26
2024-12-06 13:14:58.728,58.5,555.0,-0.04,1.0,-0.03,0.77,-6.58,3.4
2024-12-06 13:14:58.753,60.52,546.0,-0.03,0.98,-0.03,0.77,-7.8,2.49
2024-12-06 13:14:58.780,64.8,575.0,-0.04,1.01,-0.03,1.38,-8.11,3.52
2024-12-06 13:14:58.808,65.7,576.0,-0.04,1.0,-0.03,1.81,-7.44,2.85
2024-12-06 13:14:58.835,64.8,552.0,-0.02,1.0,-0.03,1.87,-7.13,2.67
2024-12-06 13:14:58.869,65.03,557.0,-0.05,0.99,-0.03,2.11,-5.73,3.64
2024-12-06 13:14:58.891,67.05,559.0,-0.04,0.97,-0.04,2.54,-5.55,3.16
2024-12-06 13:14:58.926,66.82,566.0,-0.05,0.99,-0.04,2.17,-3.59,4.8
2024-12-06 13:14:58.955,67.28,562.0,-0.06,0.97,-0.03,2.11,-2.49,4.62
2024-12-06 13:14:58.975,64.35,560.0,-0.04,0.99,-0.02,0.89,0.07,5.35
2024-12-06 13:14:59.1,66.38,559.0,-0.07,0.96,-0.02,0.4,2.51,6.15
2024-12-06 13:14:59.292,69.3,557.0,-0.04,1.0,-0.03,-0.45,3.73,5.29
2024-12-06 13:14:59.302,76.05,604.0,-0.03,1.0,-0.02,0.46,-1.4,3.71
2024-12-06 13:14:59.308,80.55,608.0,-0.03,0.99,-0.03,0.46,-2.13,3.89
2024-12-06 13:14:59.331,79.42,586.0,-0.03,1.0,-0.02,-0.08,-2.56,4.5
2024-12-06 13:14:59.371,81.22,579.0,-0.03,0.99,-0.03,-0.15,-2.8,5.41
2024-12-06 13:15:00.687,84.6,590.0,-0.04,0.99,-0.02,-0.88,1.05,4.5
2024-12-06 13:15:00.694,86.85,598.0,-0.03,0.99,-0.02,-0.76,1.05,4.26
2024-12-06 13:15:00.707,83.92,590.0,-0.03,0.99,-0.02,-0.76,1.05,4.19
2024-12-06 13:15:00.709,87.75,606.0,-0.03,0.99,-0.02,-0.51,0.99,4.19
2024-12-06 13:15:00.713,85.05,594.0,-0.03,0.99,-0.01,-0.15,0.8,4.13
2024-12-06 13:15:00.718,86.62,612.0,-0.03,0.99,-0.01,-0.02,0.99,4.01
2024-12-06 13:15:00.726,80.32,584.0,-0.03,0.99,-0.01,-0.08,1.23,3.83
2024-12-06 13:15:00.734,86.4,591.0,-0.03,0.99,-0.01,-0.08,1.35,3.83
2024-12-06 13:15:00.741,85.72,610.0,-0.04,0.99,-0.01,-0.08,1.35,3.83
2024-12-06 13:15:00.780,83.92,646.0,-0.04,0.99,-0.01,-0.02,1.78,3.95
2024-12-06 13:15:00.782,84.6,617.0,-0.04,0.99,-0.01,-0.02,1.78,3.95
2024-12-06 13:15:00.787,78.3,591.0,-0.04,0.99,-0.01,0.04,1.78,4.01
2024-12-06 13:15:00.796,86.4,594.0,-0.04,0.99,-0.01,0.16,1.78,4.13
2024-12-06 13:15:00.833,85.5,589.0,-0.04,1.0,-0.01,0.34,1.6,4.44
2024-12-06 13:15:00.837,86.85,590.0,-0.04,1.0,-0.01,0.28,1.41,4.5
2024-12-06 13:15:00.842,80.32,592.0,-0.04,1.0,-0.01,0.22,1.29,4.62
2024-12-06 13:15:00.848,84.6,592.0,-0.04,1.0,-0.01,0.22,1.17,4.62
2024-12-06 13:15:00.869,86.17,604.0,-0.04,1.0,-0.01,0.28,0.99,4.62
2024-12-06 13:15:00.876,82.12,609.0,-0.04,1.0,-0.01,0.16,0.68,4.8
2024-12-06 13:15:00.880,88.2,604.0,-0.04,1.0,-0.02,-0.02,0.74,4.99
2024-12-06 13:15:00.889,84.6,603.0,-0.04,1.0,-0.02,-0.02,0.44,5.17
2024-12-06 13:15:00.899,83.03,623.0,-0.04,1.0,-0.01,-0.33,-0.6,5.72
2024-12-06 13:15:00.907,84.82,595.0,-0.03,1.01,-0.02,-0.33,-0.6,5.72
2024-12-06 13:15:00.910,82.57,587.0,-0.03,1.02,-0.03,-0.57,1.53,6.39
2024-12-06 13:15:00.965,87.52,585.0,-0.04,0.96,-0.02,-0.57,3.12,9.08
2024-12-06 13:15:00.972,86.17,580.0,-0.04,0.96,-0.02,-0.39,3.12,8.95
2024-12-06 13:15:00.978,79.42,594.0,-0.03,0.97,-0.02,-0.39,3.12,8.95
2024-12-06 13:15:00.990,81.0,589.0,-0.03,0.97,-0.01,-0.45,3.24,8.71
2024-12-06 13:15:00.993,78.53,578.0,-0.03,0.98,-0.01,-0.45,3.61,8.47
2024-12-06 13:15:01.15,83.25,595.0,-0.02,0.99,-0.0,-0.45,3.85,7.98
2024-12-06 13:15:01.17,84.38,586.0,-0.03,0.99,-0.01,-0.08,4.16,6.88
2024-12-06 13:15:01.23,80.55,577.0,-0.03,0.99,-0.01,-0.08,4.16,6.88
2024-12-06 13:15:01.72,82.35,584.0,-0.02,0.99,-0.01,0.77,3.49,3.89
2024-12-06 13:15:01.78,79.65,578.0,-0.02,0.99,-0.01,0.89,3.24,3.58
2024-12-06 13:15:01.86,82.8,576.0,-0.02,0.99,-0.01,1.44,3.49,2.67
2024-12-06 13:15:01.95,85.05,579.0,-0.03,0.96,-0.02,2.11,2.33,1.63
2024-12-06 13:15:01.214,77.62,585.0,-0.02,0.95,-0.02,2.11,2.33,1.63
2024-12-06 13:15:01.227,82.57,568.0,-0.04,0.99,-0.01,0.59,2.39,2.12
2024-12-06 13:15:01.230,79.88,567.0,-0.03,0.99,-0.01,0.59,2.51,2.12
2024-12-06 13:15:01.236,81.22,567.0,-0.03,0.99,-0.01,0.46,2.69,2.06
2024-12-06 13:15:01.254,81.0,588.0,-0.03,1.0,-0.01,0.28,2.69,2.06
2024-12-06 13:15:01.282,84.82,575.0,-0.03,1.0,-0.01,0.04,1.47,2.55
2024-12-06 13:15:01.290,81.9,568.0,-0.03,1.0,-0.01,0.04,1.47,2.55
2024-12-06 13:15:01.305,80.32,560.0,-0.03,1.0,-0.01,-0.02,1.23,2.79
2024-12-06 13:15:01.309,82.8,569.0,-0.03,1.0,-0.01,-0.08,0.99,3.16
2024-12-06 13:15:01.312,82.12,609.0,-0.03,1.0,-0.01,-0.08,0.99,3.46
2024-12-06 13:15:01.320,78.97,575.0,-0.03,1.0,-0.01,-0.08,1.05,3.83
2024-12-06 13:15:01.328,82.8,569.0,-0.03,1.0,-0.01,-0.02,1.17,4.19
2024-12-06 13:15:01.336,81.22,592.0,-0.03,1.0,-0.01,-0.02,1.17,4.19
2024-12-06 13:15:01.346,82.35,577.0,-0.03,1.0,-0.01,-0.02,1.29,4.62
2024-12-06 13:15:01.357,78.07,569.0,-0.03,1.0,-0.02,-0.02,1.41,4.93
2024-12-06 13:15:01.365,80.55,578.0,-0.03,1.0,-0.02,0.1,1.53,5.23
2024-12-06 13:15:01.393,82.57,570.0,-0.02,0.99,-0.02,0.34,0.86,5.72
2024-12-06 13:15:01.405,84.82,585.0,-0.03,0.99,-0.02,0.53,0.62,5.78
2024-12-06 13:15:01.418,80.55,577.0,-0.03,0.99,-0.02,0.59,0.44,5.72
2024-12-06 13:15:01.421,78.75,572.0,-0.03,0.99,-0.02,0.71,0.37,5.72
2024-12-06 13:15:01.427,79.88,596.0,-0.03,0.99,-0.01,0.83,0.5,5.72
2024-12-06 13:15:01.435,84.82,570.0,-0.03,0.99,-0.01,0.95,0.62,5.66
2024-12-06 13:15:01.448,82.35,568.0,-0.03,0.99,-0.01,1.08,0.8,5.6
2024-12-06 13:15:01.455,84.38,577.0,-0.03,0.99,-0.01,1.14,1.05,5.48
2024-12-06 13:15:01.459,81.9,576.0,-0.04,0.99,-0.01,1.14,1.05,5.48
2024-12-06 13:15:01.467,83.25,588.0,-0.04,0.99,-0.01,1.26,1.29,5.23
2024-12-06 13:15:01.474,82.57,574.0,-0.04,0.99,-0.01,1.38,1.41,5.05
2024-12-06 13:15:01.489,80.55,587.0,-0.04,1.0,-0.02,1.5,1.35,4.8
2024-12-06 13:15:01.491,82.12,605.0,-0.04,1.0,-0.02,1.56,1.29,4.68
2024-12-06 13:15:01.500,83.25,566.0,-0.04,1.0,-0.02,1.62,1.23,4.5
2024-12-06 13:15:01.506,81.67,572.0,-0.04,1.0,-0.02,1.62,1.23,4.5
2024-12-06 13:15:02.520,83.92,584.0,-0.03,0.99,-0.02,0.4,1.23,2.97
2024-12-06 13:15:02.542,82.12,558.0,-0.01,1.04,-0.0,0.04,0.92,3.77
2024-12-06 13:15:02.571,78.97,574.0,-0.04,1.11,-0.01,-3.99,3.0,14.69
2024-12-06 13:15:02.598,76.05,548.0,-0.0,1.05,-0.09,-2.95,5.93,21.59
2024-12-06 13:15:02.632,73.8,525.0,-0.02,0.94,-0.03,-1.73,0.56,26.17
2024-12-06 13:15:02.651,68.4,528.0,-0.03,0.89,-0.05,-1.06,-3.84,22.14
2024-12-06 13:15:02.679,70.2,521.0,-0.01,0.89,-0.01,-0.08,0.5,16.03
2024-12-06 13:15:02.709,68.62,520.0,-0.01,0.92,0.02,1.81,7.94,6.7
2024-12-06 13:15:02.773,66.82,519.0,0.03,0.99,0.02,2.23,11.91,-1.24
2024-12-06 13:15:02.815,65.7,542.0,0.01,1.03,-0.03,2.85,10.87,-4.23
2024-12-06 13:15:02.819,63.22,514.0,-0.02,1.0,-0.03,2.85,-0.48,-4.05
2024-12-06 13:15:02.863,64.12,526.0,-0.04,1.0,-0.03,2.11,1.72,-0.69
2024-12-06 13:15:02.881,65.25,529.0,-0.03,0.98,-0.02,0.59,5.5,1.14
2024-12-06 13:15:02.898,62.55,531.0,-0.02,0.98,-0.01,-0.33,8.37,2.36
2024-12-06 13:15:02.925,61.42,508.0,-0.01,0.97,-0.0,-0.76,9.47,2.55
2024-12-06 13:15:02.985,60.07,506.0,0.01,0.98,-0.0,-1.06,9.9,1.26
2024-12-06 13:15:02.988,58.72,517.0,0.01,1.01,-0.02,-0.21,8.86,1.51
2024-12-06 13:15:03.8,57.6,504.0,0.0,1.0,-0.03,0.89,5.75,1.51
2024-12-06 13:15:03.35,55.8,504.0,0.0,0.99,-0.03,0.95,4.28,1.57
2024-12-06 13:15:03.89,50.17,503.0,-0.02,0.98,-0.02,1.38,4.1,1.08
2024-12-06 13:15:03.102,54.22,518.0,-0.01,0.99,-0.01,1.38,5.38,0.29
2024-12-06 13:15:03.122,51.3,495.0,-0.02,1.01,-0.03,1.01,6.97,1.33
2024-12-06 13:15:03.153,52.88,496.0,-0.03,1.0,-0.03,0.46,7.58,3.34
2024-12-06 13:15:03.290,48.15,497.0,-0.02,0.97,-0.02,-0.08,8.25,3.4
2024-12-06 13:15:03.319,51.07,496.0,-0.03,0.99,-0.03,1.93,7.33,3.28
2024-12-06 13:15:03.342,43.2,486.0,-0.02,0.98,-0.02,1.93,7.58,3.71
2024-12-06 13:15:03.375,40.5,499.0,-0.03,0.98,-0.03,1.81,9.16,3.34
2024-12-06 13:15:03.392,38.02,499.0,-0.02,0.98,-0.03,1.32,10.02,2.91
2024-12-06 13:15:03.424,39.83,493.0,-0.01,1.01,-0.03,0.89,11.3,4.99
2024-12-06 13:15:03.455,40.95,477.0,-0.04,0.98,-0.03,1.01,11.73,5.66
2024-12-06 13:15:03.483,41.4,475.0,-0.01,0.98,-0.03,0.95,13.38,4.8
2024-12-06 13:15:03.504,38.47,483.0,-0.03,0.99,-0.03,1.26,13.74,4.26
2024-12-06 13:15:03.535,41.17,477.0,-0.01,0.99,-0.03,1.14,11.97,2.67
2024-12-06 13:15:03.558,38.02,499.0,-0.01,1.01,-0.03,1.26,11.3,3.64
2024-12-06 13:15:03.588,37.12,514.0,-0.02,0.99,-0.02,1.38,10.38,3.46
2024-12-06 13:15:03.618,37.35,473.0,-0.02,0.98,-0.02,1.44,11.73,2.97
2024-12-06 13:15:03.653,32.17,481.0,-0.01,0.99,-0.02,1.56,13.31,3.34
2024-12-06 13:15:03.668,30.38,488.0,-0.03,0.99,-0.03,1.87,12.95,2.55
2024-12-06 13:15:03.696,29.47,472.0,-0.03,0.98,-0.03,1.81,12.83,1.57
2024-12-06 13:15:03.733,29.25,458.0,-0.02,1.0,-0.04,1.56,13.99,2.61
2024-12-06 13:15:03.761,30.82,469.0,-0.03,0.99,-0.04,1.69,13.99,2.0
2024-12-06 13:15:03.779,30.82,456.0,-0.02,1.0,-0.04,1.32,14.11,2.12
2024-12-06 13:15:03.823,24.75,481.0,-0.04,1.0,-0.05,1.32,14.23,3.28
2024-12-06 13:15:03.833,28.12,462.0,-0.02,0.99,-0.03,1.08,13.62,2.79
2024-12-06 13:15:03.878,27.22,463.0,-0.01,1.0,-0.04,0.89,14.72,4.62
2024-12-06 13:15:03.892,24.97,466.0,-0.03,0.99,-0.03,0.71,16.24,5.78
2024-12-06 13:15:03.916,24.07,449.0,-0.02,0.98,-0.03,0.59,17.16,6.82
2024-12-06 13:15:03.944,19.57,463.0,-0.02,0.99,-0.03,0.46,17.4,7.55
2024-12-06 13:15:03.972,20.02,457.0,0.0,0.99,-0.03,0.16,17.28,8.95
2024-12-06 13:15:04.1,21.15,455.0,0.0,0.99,-0.03,0.1,16.12,10.6
2024-12-06 13:15:04.49,15.52,449.0,0.01,0.98,-0.03,0.1,13.44,10.85
2024-12-06 13:15:04.56,19.57,450.0,0.03,0.99,-0.02,0.28,11.91,12.13
2024-12-06 13:15:04.105,15.3,452.0,0.02,0.98,-0.02,0.16,14.72,12.07
2024-12-06 13:15:04.112,20.02,451.0,0.03,1.0,-0.04,0.46,12.89,13.96
2024-12-06 13:15:04.139,18.45,453.0,0.04,0.99,-0.03,0.34,9.41,14.26
2024-12-06 13:15:04.167,14.17,449.0,0.03,0.98,-0.04,0.22,6.54,14.57
2024-12-06 13:15:04.217,10.57,454.0,0.04,0.98,-0.03,0.22,5.44,13.47
2024-12-06 13:15:04.221,12.82,463.0,0.04,0.98,-0.04,1.08,4.65,12.74
2024-12-06 13:15:04.336,15.52,469.0,0.02,0.98,-0.03,1.62,3.43,11.64
2024-12-06 13:15:04.346,13.05,461.0,0.05,1.0,-0.04,2.05,4.1,8.1
2024-12-06 13:15:04.358,7.2,460.0,0.03,1.01,-0.05,1.87,6.72,9.75
2024-12-06 13:15:04.386,3.15,452.0,0.03,1.0,-0.04,1.26,4.95,10.66
2024-12-06 13:15:04.413,5.62,437.0,0.03,0.99,-0.05,0.46,4.4,9.87
2024-12-06 13:15:04.457,2.25,447.0,0.03,0.97,-0.03,0.34,5.93,9.2
2024-12-06 13:15:04.471,5.85,462.0,0.05,0.98,-0.04,0.71,8.98,8.22
2024-12-06 13:15:04.496,1.12,448.0,0.06,0.99,-0.04,1.56,14.41,10.85
2024-12-06 13:15:05.810,-2.47,446.0,0.09,0.99,-0.02,0.34,2.51,3.52
