Timestamp,PosIsDeg,ForceIs,AccX,AccY,AccZ,GyroX,GyroY,GyroZ
2024-12-06 13:15:39.779,-4.5,474.0,0.16,0.97,-0.03,0.83,0.62,4.26
2024-12-06 13:15:39.807,-0.45,483.0,0.17,0.98,-0.03,0.83,2.14,4.62
2024-12-06 13:15:39.837,2.47,486.0,0.19,0.99,-0.03,0.65,5.87,8.1
2024-12-06 13:15:39.862,-0.9,486.0,0.14,0.96,-0.04,0.77,2.88,4.38
2024-12-06 13:15:39.889,-0.9,476.0,0.16,0.97,-0.03,0.89,2.45,3.95
2024-12-06 13:15:40.0,0.9,492.0,0.16,0.98,-0.01,1.26,0.13,2.73
2024-12-06 13:15:40.3,-4.05,476.0,0.13,0.98,-0.01,1.01,-4.45,-3.01
2024-12-06 13:15:40.27,3.15,487.0,0.12,0.96,-0.02,0.16,-7.01,-5.21
2024-12-06 13:15:40.55,5.85,494.0,0.15,0.97,-0.03,-0.27,-6.03,-5.02
2024-12-06 13:15:40.93,3.15,497.0,0.13,0.98,-0.03,-0.51,-2.13,-3.62
2024-12-06 13:15:40.109,3.38,506.0,0.14,0.99,-0.03,-0.76,0.68,-1.85
2024-12-06 13:15:40.139,8.55,495.0,0.12,0.98,-0.03,-0.82,-0.24,-1.36
2024-12-06 13:15:40.175,8.32,499.0,0.14,0.98,-0.03,-1.06,-1.52,-2.34
2024-12-06 13:15:40.191,3.82,507.0,0.13,0.98,-0.03,-0.51,-1.64,-2.58
2024-12-06 13:15:40.219,7.65,524.0,0.12,0.98,-0.0,-0.08,-2.31,-3.5
2024-12-06 13:15:40.253,10.57,510.0,0.12,0.98,-0.03,0.16,-2.62,-3.68
2024-12-06 13:15:40.630,22.05,544.0,0.07,0.99,-0.04,0.53,5.26,-2.52
2024-12-06 13:15:40.656,26.55,509.0,0.09,0.99,-0.03,0.28,5.26,0.41
2024-12-06 13:15:40.700,22.27,505.0,0.06,0.97,-0.02,0.83,4.77,-1.36
2024-12-06 13:15:40.743,28.57,512.0,0.09,0.99,-0.01,0.83,4.89,-1.97
2024-12-06 13:15:40.752,29.7,501.0,0.06,0.99,-0.02,0.77,3.0,-1.12
2024-12-06 13:15:40.766,26.32,513.0,0.07,0.99,-0.04,1.01,0.99,-1.3
2024-12-06 13:15:40.794,30.38,521.0,0.06,0.99,-0.03,0.89,0.07,-1.48
2024-12-06 13:15:40.827,32.85,525.0,0.05,0.98,-0.03,0.53,-0.54,-1.91
2024-12-06 13:15:40.850,31.5,509.0,0.04,0.98,-0.03,0.1,-0.97,-2.83
2024-12-06 13:15:40.879,33.52,540.0,0.05,0.99,-0.02,-0.57,0.44,-1.97
2024-12-06 13:15:40.905,29.25,509.0,0.03,1.0,-0.02,-1.73,2.39,-1.36
2024-12-06 13:15:40.932,36.0,520.0,0.03,0.99,-0.03,-2.28,4.65,-1.48
2024-12-06 13:15:41.51,32.4,521.0,0.06,1.0,-0.02,-0.7,0.99,2.97
2024-12-06 13:15:41.70,40.27,541.0,0.06,0.99,-0.02,0.22,0.07,3.58
2024-12-06 13:15:41.105,38.25,521.0,0.04,1.0,-0.02,0.71,-0.3,5.72
2024-12-06 13:15:41.124,39.15,532.0,0.05,0.98,-0.02,1.01,-2.13,4.68
2024-12-06 13:15:41.155,40.27,529.0,0.06,0.98,-0.02,0.89,-3.1,4.74
2024-12-06 13:15:41.194,44.77,534.0,0.04,0.99,-0.01,0.83,-5.0,4.32
2024-12-06 13:15:41.210,45.22,543.0,0.02,0.98,-0.01,0.65,-6.64,2.18
2024-12-06 13:15:41.235,41.85,529.0,0.04,1.0,-0.01,-0.39,-6.95,2.73
2024-12-06 13:15:41.262,46.8,541.0,0.02,0.99,-0.02,-0.94,-7.01,1.94
2024-12-06 13:15:41.291,48.15,552.0,0.03,0.99,-0.01,-1.43,-7.25,2.06
2024-12-06 13:15:41.319,49.72,608.0,0.02,0.99,-0.02,-1.85,-7.25,2.97
2024-12-06 13:15:41.346,48.6,538.0,0.02,0.97,-0.02,-1.67,-8.41,1.14
2024-12-06 13:15:41.372,49.5,538.0,0.03,0.99,-0.02,-1.61,-8.05,1.02
2024-12-06 13:15:41.414,52.2,563.0,0.03,1.01,-0.02,-1.92,-7.19,1.45
2024-12-06 13:15:41.428,54.0,554.0,0.03,0.99,-0.03,-1.31,-7.87,0.9
2024-12-06 13:15:41.455,51.3,565.0,0.02,0.98,-0.02,-0.82,-8.41,1.02
2024-12-06 13:15:41.485,57.6,568.0,0.02,0.99,-0.02,-0.45,-8.23,1.26
2024-12-06 13:15:41.512,56.02,569.0,0.02,0.99,-0.02,-0.27,-7.44,2.12
2024-12-06 13:15:41.538,58.05,546.0,0.02,1.01,-0.01,-0.02,-6.34,3.77
2024-12-06 13:15:41.566,60.75,550.0,-0.0,0.98,-0.02,0.22,-6.28,3.22
2024-12-06 13:15:41.594,62.55,563.0,0.01,0.98,-0.01,0.46,-5.73,2.85
2024-12-06 13:15:41.643,60.75,561.0,0.0,1.01,-0.01,-0.15,-3.84,3.95
2024-12-06 13:15:41.649,62.32,561.0,0.01,1.0,-0.01,-0.21,-4.26,3.28
2024-12-06 13:15:41.679,64.57,567.0,0.02,1.01,-0.01,-0.57,-4.75,4.26
2024-12-06 13:15:41.705,64.8,564.0,0.02,0.98,-0.0,-0.45,-5.67,5.17
2024-12-06 13:15:41.732,67.05,565.0,0.03,0.98,-0.01,0.04,-6.28,5.11
2024-12-06 13:15:41.760,64.8,579.0,0.01,0.99,-0.01,0.04,-5.42,5.84
2024-12-06 13:15:41.790,63.9,569.0,0.01,0.98,-0.01,0.1,-5.0,4.8
2024-12-06 13:15:41.815,69.3,591.0,0.01,1.0,-0.01,-0.33,-4.45,5.11
2024-12-06 13:15:41.871,67.28,587.0,0.01,1.0,-0.01,-0.21,-4.51,5.6
2024-12-06 13:15:41.873,69.07,578.0,0.01,0.98,-0.01,-0.15,-4.75,5.11
2024-12-06 13:15:41.897,71.55,592.0,0.02,1.0,-0.01,-0.08,-4.26,5.6
2024-12-06 13:15:41.926,69.07,570.0,0.0,0.96,-0.02,0.46,-3.84,3.83
2024-12-06 13:15:41.954,70.2,597.0,0.02,0.98,-0.01,0.4,-4.02,3.03
2024-12-06 13:15:41.979,69.75,581.0,0.01,1.01,-0.01,0.34,-4.08,2.85
2024-12-06 13:15:42.9,73.57,588.0,0.0,0.99,-0.01,0.59,-3.78,2.12
2024-12-06 13:15:42.101,72.22,590.0,0.02,1.02,-0.01,-1.06,-3.53,2.3
2024-12-06 13:15:42.124,77.4,611.0,-0.0,1.0,-0.01,-0.63,-2.43,3.4
2024-12-06 13:15:42.158,75.15,638.0,0.02,0.98,-0.0,-0.45,-2.43,3.89
2024-12-06 13:15:42.171,75.82,612.0,0.03,0.99,-0.01,-0.39,-1.94,4.74
2024-12-06 13:15:42.199,81.0,614.0,0.02,0.98,-0.01,1.01,-1.82,4.93
2024-12-06 13:15:42.227,83.25,614.0,0.03,0.99,-0.01,1.01,-2.56,5.72
2024-12-06 13:15:42.257,77.17,609.0,0.02,1.0,-0.01,1.5,-2.86,6.76
2024-12-06 13:15:42.282,83.7,616.0,0.02,1.0,-0.01,1.44,-2.86,7.43
2024-12-06 13:15:43.591,81.22,614.0,0.02,0.98,-0.01,0.71,0.86,4.62
2024-12-06 13:15:43.603,89.1,601.0,0.02,0.98,-0.01,0.71,0.99,4.44
2024-12-06 13:15:43.609,81.22,618.0,0.02,0.99,-0.01,0.59,1.23,4.26
2024-12-06 13:15:43.614,84.38,618.0,0.02,0.99,-0.01,0.59,1.23,4.26
2024-12-06 13:15:43.626,82.12,614.0,0.02,0.99,-0.01,0.53,1.41,4.13
2024-12-06 13:15:43.631,84.6,620.0,0.02,0.99,-0.01,0.53,1.53,3.95
2024-12-06 13:15:43.657,85.28,623.0,0.02,0.99,-0.01,0.65,1.72,3.83
2024-12-06 13:15:43.660,85.05,637.0,0.02,0.99,-0.01,0.59,1.72,3.83
2024-12-06 13:15:43.674,85.72,607.0,0.02,0.99,-0.01,0.59,1.78,3.77
2024-12-06 13:15:43.679,84.82,606.0,0.02,0.99,-0.01,0.59,1.78,3.71
2024-12-06 13:15:43.683,81.22,609.0,0.02,0.99,-0.01,0.59,1.72,3.71
2024-12-06 13:15:43.690,84.38,609.0,0.02,0.99,-0.01,0.53,1.72,3.64
2024-12-06 13:15:43.698,88.42,605.0,0.02,0.99,-0.01,0.53,1.72,3.64
2024-12-06 13:15:43.707,86.85,605.0,0.02,0.99,-0.01,0.53,1.72,3.58
2024-12-06 13:15:43.714,85.5,612.0,0.02,0.99,-0.01,0.46,1.78,3.52
2024-12-06 13:15:43.721,86.85,607.0,0.02,0.99,-0.01,0.46,1.78,3.46
2024-12-06 13:15:43.732,85.05,605.0,0.02,0.99,-0.01,0.46,1.72,3.46
2024-12-06 13:15:43.737,87.3,620.0,0.02,0.99,-0.01,0.4,1.72,3.46
2024-12-06 13:15:43.747,85.28,598.0,0.02,0.99,-0.01,0.4,1.72,3.46
2024-12-06 13:15:43.753,80.1,622.0,0.02,0.99,-0.01,0.4,1.66,3.52
2024-12-06 13:15:43.761,81.22,600.0,0.02,0.99,-0.01,0.4,1.6,3.52
2024-12-06 13:15:43.802,85.72,617.0,0.02,0.99,-0.01,0.46,1.6,3.77
2024-12-06 13:15:43.806,85.72,626.0,0.02,1.0,-0.01,0.4,1.47,3.95
2024-12-06 13:15:43.814,84.82,600.0,0.02,1.0,-0.01,0.16,1.47,4.19
2024-12-06 13:15:43.833,86.62,603.0,0.02,1.0,-0.01,0.16,1.72,4.26
2024-12-06 13:15:43.835,82.8,609.0,0.02,1.0,-0.01,0.16,1.72,4.26
2024-12-06 13:15:43.838,85.5,607.0,0.03,1.01,-0.01,0.04,0.92,4.74
2024-12-06 13:15:43.851,84.82,619.0,0.03,1.01,-0.02,-0.39,1.9,5.41
2024-12-06 13:15:43.859,85.28,597.0,0.02,1.01,-0.02,-0.33,3.43,5.96
2024-12-06 13:15:43.862,86.4,615.0,0.02,1.01,-0.02,-0.21,3.0,6.82
2024-12-06 13:15:43.868,84.82,596.0,0.02,1.01,-0.01,-0.21,3.0,6.82
2024-12-06 13:15:43.876,84.15,616.0,0.02,1.0,-0.01,-0.02,3.24,7.25
2024-12-06 13:15:43.884,84.6,611.0,0.02,0.98,-0.01,-0.15,3.49,7.43
2024-12-06 13:15:43.892,85.95,610.0,0.02,0.95,-0.01,0.1,3.91,7.0
2024-12-06 13:15:43.901,83.47,615.0,0.03,0.95,-0.01,0.4,2.57,6.45
2024-12-06 13:15:43.919,82.12,605.0,0.04,0.98,-0.02,-0.21,2.39,6.51
2024-12-06 13:15:43.923,85.5,628.0,0.03,0.98,-0.01,-0.63,3.85,6.39
2024-12-06 13:15:43.931,83.25,617.0,0.01,0.97,-0.01,0.4,3.37,5.35
2024-12-06 13:15:43.941,84.82,619.0,0.03,0.97,-0.01,1.14,2.08,4.26
2024-12-06 13:15:43.946,81.9,606.0,0.03,0.97,-0.01,0.53,2.21,3.77
2024-12-06 13:15:43.960,87.75,620.0,0.05,0.99,-0.01,0.1,2.51,3.52
2024-12-06 13:15:43.970,88.42,619.0,0.04,1.0,-0.0,0.1,2.51,3.52
2024-12-06 13:15:43.976,88.42,625.0,0.03,1.0,-0.01,0.53,2.33,3.16
2024-12-06 13:15:43.988,85.5,614.0,0.06,1.0,-0.01,0.95,1.78,2.73
2024-12-06 13:15:44.15,84.82,598.0,0.02,0.98,-0.02,1.14,1.66,3.16
2024-12-06 13:15:44.23,85.05,603.0,0.02,0.98,-0.02,1.01,1.78,3.22
2024-12-06 13:15:44.31,87.52,602.0,0.02,0.98,-0.02,0.95,1.84,3.22
2024-12-06 13:15:44.39,85.72,606.0,0.02,0.98,-0.02,0.95,1.84,3.34
2024-12-06 13:15:44.57,86.17,593.0,0.02,0.98,-0.01,1.01,1.72,3.34
2024-12-06 13:15:44.59,86.17,614.0,0.02,0.98,-0.01,0.95,1.66,3.34
2024-12-06 13:15:44.62,82.8,607.0,0.02,0.99,-0.01,0.89,1.66,3.34
2024-12-06 13:15:44.70,87.52,621.0,0.02,0.99,-0.01,0.77,1.6,3.28
2024-12-06 13:15:44.89,74.92,603.0,0.02,0.99,-0.01,0.65,1.6,3.16
2024-12-06 13:15:44.93,84.15,613.0,0.02,0.99,-0.01,0.53,1.6,3.1
2024-12-06 13:15:44.102,87.3,595.0,0.02,0.99,-0.01,0.46,1.72,3.03
2024-12-06 13:15:44.209,84.82,595.0,0.03,0.99,-0.01,-0.08,1.72,4.44
2024-12-06 13:15:44.245,87.52,606.0,0.03,0.99,-0.01,-0.02,1.72,4.8
2024-12-06 13:15:44.259,84.82,596.0,0.03,0.99,-0.01,0.04,1.66,4.87
2024-12-06 13:15:44.272,81.45,597.0,0.03,0.99,-0.01,0.1,1.6,4.87
2024-12-06 13:15:44.274,82.8,592.0,0.03,0.99,-0.01,0.22,1.47,4.87
2024-12-06 13:15:44.286,82.8,616.0,0.03,0.99,-0.01,0.34,1.35,4.99
2024-12-06 13:15:44.289,85.28,594.0,0.03,0.99,-0.01,0.53,1.17,5.05
2024-12-06 13:15:44.297,86.4,595.0,0.03,0.99,-0.01,0.65,1.23,5.05
2024-12-06 13:15:44.308,85.95,600.0,0.03,0.99,-0.01,0.71,1.29,5.11
2024-12-06 13:15:44.313,85.28,591.0,0.03,0.99,-0.01,0.83,1.35,5.05
2024-12-06 13:15:44.320,81.9,604.0,0.03,0.99,-0.01,0.83,1.35,5.05
2024-12-06 13:15:44.329,88.2,598.0,0.02,0.99,-0.01,0.89,1.35,5.05
2024-12-06 13:15:44.336,85.95,643.0,0.02,0.99,-0.01,1.01,1.41,4.99
2024-12-06 13:15:44.345,86.17,599.0,0.02,0.99,-0.01,1.08,1.41,4.93
2024-12-06 13:15:44.352,85.05,593.0,0.02,0.99,-0.01,1.14,1.41,4.87
2024-12-06 13:15:44.360,83.92,602.0,0.02,0.99,-0.01,1.2,1.41,4.8
2024-12-06 13:15:44.368,82.57,607.0,0.02,0.99,-0.01,1.2,1.41,4.8
2024-12-06 13:15:44.380,81.67,612.0,0.02,0.99,-0.01,1.14,1.53,4.68
2024-12-06 13:15:44.389,84.82,604.0,0.02,0.99,-0.01,1.2,1.6,4.56
2024-12-06 13:15:44.394,84.6,599.0,0.02,0.99,-0.01,1.26,1.6,4.44
2024-12-06 13:15:44.398,85.05,627.0,0.02,0.99,-0.01,1.2,1.66,4.38
2024-12-06 13:15:44.406,86.85,612.0,0.02,0.99,-0.01,1.2,1.66,4.32
2024-12-06 13:15:44.423,87.97,613.0,0.02,0.99,-0.01,1.14,1.72,4.32
2024-12-06 13:15:44.428,86.62,653.0,0.02,0.99,-0.01,1.08,1.78,4.26
2024-12-06 13:15:44.433,80.1,607.0,0.02,1.0,-0.01,1.08,1.78,4.26
2024-12-06 13:15:44.467,81.22,599.0,0.02,1.0,-0.01,1.01,1.78,4.19
2024-12-06 13:15:44.470,84.82,599.0,0.02,0.99,-0.01,0.95,1.84,4.32
2024-12-06 13:15:44.476,84.15,608.0,0.02,0.99,-0.01,0.89,1.84,4.38
2024-12-06 13:15:44.490,80.55,602.0,0.03,0.99,-0.01,0.95,1.84,4.44
2024-12-06 13:15:44.495,81.9,600.0,0.03,0.99,-0.01,0.95,1.84,4.44
2024-12-06 13:15:44.499,85.28,600.0,0.03,0.99,-0.01,1.08,1.72,4.5
2024-12-06 13:15:44.512,86.4,597.0,0.03,0.98,-0.01,1.08,1.72,4.5
2024-12-06 13:15:44.516,81.67,596.0,0.03,0.98,-0.01,1.08,1.66,4.5
2024-12-06 13:15:44.522,83.47,616.0,0.06,0.98,-0.01,1.2,1.6,4.5
2024-12-06 13:15:44.531,86.17,603.0,0.03,0.98,-0.01,1.26,1.53,4.5
2024-12-06 13:15:44.540,85.05,594.0,0.03,0.99,-0.01,1.26,1.53,4.5
2024-12-06 13:15:44.548,82.8,608.0,0.03,0.99,-0.01,1.32,1.53,4.44
2024-12-06 13:15:44.556,81.67,601.0,0.03,0.99,-0.01,1.32,1.66,4.38
2024-12-06 13:15:44.561,82.12,591.0,0.03,0.99,-0.01,1.26,1.72,4.38
2024-12-06 13:15:44.572,85.5,640.0,0.03,0.99,-0.01,1.26,1.78,4.32
2024-12-06 13:15:44.579,82.35,596.0,0.03,0.99,-0.01,1.26,1.78,4.32
2024-12-06 13:15:44.585,85.28,598.0,0.03,0.99,-0.01,1.26,1.78,4.32
2024-12-06 13:15:44.592,84.82,612.0,0.03,0.99,-0.01,1.2,1.72,4.32
2024-12-06 13:15:44.616,83.92,606.0,0.03,0.99,-0.02,1.26,1.53,4.44
2024-12-06 13:15:44.630,85.95,596.0,0.03,0.99,-0.02,1.26,1.47,4.5
2024-12-06 13:15:44.633,85.05,595.0,0.03,0.99,-0.01,1.2,1.41,4.56
2024-12-06 13:15:44.641,86.62,606.0,0.03,0.99,-0.01,1.14,1.41,4.62
2024-12-06 13:15:44.646,81.0,605.0,0.03,0.99,-0.01,1.08,1.41,4.62
2024-12-06 13:15:44.655,86.85,600.0,0.03,0.99,-0.01,1.01,1.47,4.68
2024-12-06 13:15:44.662,85.28,611.0,0.02,0.99,-0.01,1.01,1.47,4.68
2024-12-06 13:15:44.669,85.72,615.0,0.02,0.99,-0.01,0.95,1.47,4.8
2024-12-06 13:15:44.686,84.82,601.0,0.03,0.99,-0.01,0.83,1.35,4.93
2024-12-06 13:15:44.690,81.9,606.0,0.03,0.99,-0.01,0.77,1.17,5.05
2024-12-06 13:15:44.692,83.03,616.0,0.03,0.99,-0.01,0.77,1.11,5.23
2024-12-06 13:15:44.700,84.6,606.0,0.03,0.99,-0.01,0.71,0.99,5.29
2024-12-06 13:15:44.734,85.72,598.0,0.03,0.99,-0.01,0.83,0.86,5.48
2024-12-06 13:15:44.739,85.05,594.0,0.03,0.99,-0.01,0.89,0.92,5.54
2024-12-06 13:15:44.752,85.5,597.0,0.03,0.99,-0.01,0.89,0.92,5.54
2024-12-06 13:15:44.776,81.9,592.0,0.03,0.99,-0.01,0.89,1.05,5.41
2024-12-06 13:15:44.784,85.72,608.0,0.03,0.99,-0.01,0.71,1.11,5.17
2024-12-06 13:15:44.794,81.9,593.0,0.03,0.99,-0.02,0.65,1.11,5.05
2024-12-06 13:15:44.801,84.82,608.0,0.03,0.99,-0.02,0.65,1.11,4.99
2024-12-06 13:15:44.808,87.97,600.0,0.03,0.99,-0.02,0.59,1.17,4.99
2024-12-06 13:15:44.815,84.15,602.0,0.03,0.99,-0.02,0.65,1.11,4.99
2024-12-06 13:15:44.822,78.3,611.0,0.03,0.99,-0.02,0.65,1.17,4.93
2024-12-06 13:15:44.834,84.6,600.0,0.03,0.99,-0.02,0.65,1.17,4.93
2024-12-06 13:15:44.842,81.45,606.0,0.03,0.99,-0.02,0.65,1.23,4.8
2024-12-06 13:15:44.849,82.35,597.0,0.03,0.99,-0.02,0.71,1.11,4.74
2024-12-06 13:15:44.854,81.67,607.0,0.03,0.99,-0.02,0.77,0.99,4.68
2024-12-06 13:15:44.862,84.82,593.0,0.03,0.99,-0.02,0.83,0.92,4.62
2024-12-06 13:15:44.870,85.72,597.0,0.03,0.99,-0.02,0.83,0.92,4.62
2024-12-06 13:15:44.876,80.78,595.0,0.03,1.0,-0.02,0.77,0.8,4.5
2024-12-06 13:15:44.885,84.6,603.0,0.03,1.0,-0.02,0.77,0.68,4.38
2024-12-06 13:15:44.924,81.22,595.0,0.03,0.99,-0.02,0.71,0.13,4.38
2024-12-06 13:15:44.944,82.35,594.0,0.03,0.99,-0.02,0.71,0.01,4.44
2024-12-06 13:15:44.947,84.6,595.0,0.03,0.99,-0.02,0.83,-0.11,4.74
2024-12-06 13:15:44.954,85.5,591.0,0.03,0.99,-0.02,0.83,-0.11,4.74
2024-12-06 13:15:44.965,87.3,606.0,0.03,0.99,-0.02,0.95,-0.05,4.93
2024-12-06 13:15:44.969,84.38,588.0,0.03,0.99,-0.02,1.01,0.01,5.05
2024-12-06 13:15:44.976,85.05,595.0,0.03,0.99,-0.02,1.14,0.13,5.11
2024-12-06 13:15:44.983,86.4,595.0,0.03,0.99,-0.02,1.26,0.25,5.17
2024-12-06 13:15:44.991,85.72,613.0,0.03,0.99,-0.02,1.26,0.37,5.23
2024-12-06 13:15:45.2,85.28,601.0,0.03,0.99,-0.02,1.32,0.37,5.23
2024-12-06 13:15:45.29,85.95,597.0,0.03,0.99,-0.02,1.32,0.56,5.29
2024-12-06 13:15:45.34,85.28,591.0,0.03,0.99,-0.02,1.14,1.47,5.41
2024-12-06 13:15:45.39,82.8,593.0,0.03,0.98,-0.02,1.14,1.47,5.41
2024-12-06 13:15:45.49,80.55,592.0,0.03,0.98,-0.02,1.01,1.9,5.41
2024-12-06 13:15:45.54,82.8,597.0,0.03,0.98,-0.02,0.95,2.33,5.48
2024-12-06 13:15:45.60,86.17,590.0,0.03,0.98,-0.02,0.89,2.82,5.6
2024-12-06 13:15:45.79,87.52,592.0,0.03,0.99,-0.02,0.83,3.3,5.6
2024-12-06 13:15:45.82,81.45,623.0,0.03,0.99,-0.02,0.83,3.3,5.6
2024-12-06 13:15:45.85,82.35,629.0,0.03,0.99,-0.02,0.77,3.73,5.66
2024-12-06 13:15:45.96,81.9,604.0,0.04,0.99,-0.02,0.77,4.04,5.6
2024-12-06 13:15:45.100,88.2,582.0,0.04,0.99,-0.02,0.77,4.22,5.54
2024-12-06 13:15:45.106,84.38,594.0,0.04,0.99,-0.02,0.77,4.28,5.41
2024-12-06 13:15:45.120,83.47,622.0,0.04,0.99,-0.02,0.77,4.28,5.41
2024-12-06 13:15:45.153,85.5,602.0,0.04,0.99,-0.03,0.95,4.22,4.56
2024-12-06 13:15:45.156,86.17,585.0,0.04,0.99,-0.03,0.95,4.22,4.56
2024-12-06 13:15:45.160,84.15,600.0,0.04,0.99,-0.03,0.95,4.22,4.32
2024-12-06 13:15:45.258,81.0,592.0,0.04,0.99,-0.02,1.38,2.45,3.28
2024-12-06 13:15:45.264,86.85,590.0,0.04,0.99,-0.02,1.38,2.45,3.28
2024-12-06 13:15:45.273,85.05,587.0,0.04,0.99,-0.02,1.26,2.45,3.22
2024-12-06 13:15:45.289,83.47,580.0,0.04,0.99,-0.02,1.14,2.51,3.22
2024-12-06 13:15:45.297,85.28,593.0,0.04,0.99,-0.02,1.08,2.45,3.22
2024-12-06 13:15:45.317,82.57,615.0,0.05,0.99,-0.02,1.08,2.33,3.28
2024-12-06 13:15:45.321,80.55,593.0,0.05,0.99,-0.02,1.14,2.21,3.28
2024-12-06 13:15:45.325,87.52,597.0,0.05,0.99,-0.02,1.14,1.96,3.4
2024-12-06 13:15:45.335,87.52,598.0,0.05,0.99,-0.02,1.2,1.78,3.4
2024-12-06 13:15:45.344,87.52,609.0,0.04,0.99,-0.02,1.2,1.6,3.46
2024-12-06 13:15:45.350,81.9,589.0,0.04,0.99,-0.02,1.2,1.6,3.46
2024-12-06 13:15:45.358,80.1,602.0,0.04,0.99,-0.02,1.2,1.47,3.52
2024-12-06 13:15:45.364,86.62,583.0,0.04,0.99,-0.02,1.14,1.41,3.58
2024-12-06 13:15:45.372,84.82,590.0,0.04,0.99,-0.02,1.08,1.41,3.64
2024-12-06 13:15:45.380,86.85,596.0,0.04,0.99,-0.02,0.95,1.41,3.71
2024-12-06 13:15:45.389,81.67,593.0,0.04,0.99,-0.02,0.95,1.41,3.71
2024-12-06 13:15:45.422,85.5,605.0,0.04,0.99,-0.02,0.65,1.35,3.83
2024-12-06 13:15:45.426,80.1,603.0,0.04,0.99,-0.02,0.65,1.35,3.83
2024-12-06 13:15:45.434,83.25,589.0,0.04,0.99,-0.02,0.65,1.23,3.89
2024-12-06 13:15:45.443,79.65,600.0,0.04,0.99,-0.02,0.65,1.11,3.83
2024-12-06 13:15:45.448,87.75,601.0,0.04,0.99,-0.02,0.71,0.86,3.83
2024-12-06 13:15:46.455,87.52,603.0,0.03,0.99,-0.02,0.34,-2.19,2.67
2024-12-06 13:15:46.499,83.92,592.0,0.03,1.01,-0.01,-0.57,-3.9,4.68
2024-12-06 13:15:46.512,81.0,582.0,0.01,1.11,-0.01,-2.77,-0.54,11.7
2024-12-06 13:15:46.538,76.95,550.0,0.01,1.01,-0.08,-1.67,3.12,17.8
2024-12-06 13:15:46.566,78.53,550.0,0.04,0.95,-0.0,-1.55,-1.09,23.3
2024-12-06 13:15:46.594,77.17,540.0,0.01,0.89,-0.05,-0.82,-0.66,20.98
2024-12-06 13:15:46.620,73.57,533.0,0.05,0.91,0.01,-0.76,1.53,15.42
2024-12-06 13:15:46.649,72.45,539.0,0.06,0.94,0.01,0.53,6.97,7.55
2024-12-06 13:15:46.676,67.5,546.0,0.08,1.0,0.01,1.56,9.59,0.17
2024-12-06 13:15:46.720,70.2,539.0,0.06,1.03,-0.03,2.36,5.07,-3.37
2024-12-06 13:15:46.732,70.88,545.0,0.03,0.99,-0.03,3.27,-0.54,-3.92
2024-12-06 13:15:46.758,69.07,536.0,0.03,0.98,-0.02,3.46,-0.66,-3.5
2024-12-06 13:15:46.793,69.75,534.0,0.01,0.97,-0.01,2.54,3.06,-3.01
2024-12-06 13:15:46.813,64.57,521.0,0.0,0.98,-0.02,1.08,6.11,-2.64
2024-12-06 13:15:46.844,66.38,549.0,0.0,1.0,-0.02,0.1,6.84,-1.54
2024-12-06 13:15:46.875,63.9,515.0,0.01,1.0,-0.02,-1.43,7.64,-1.05
2024-12-06 13:15:46.900,65.03,498.0,0.03,0.99,0.0,-1.73,9.1,-0.99
2024-12-06 13:15:46.947,63.9,510.0,0.03,0.99,-0.02,-1.37,9.59,-1.12
2024-12-06 13:15:46.956,61.42,510.0,0.03,0.99,-0.02,-0.51,8.55,-2.46
2024-12-06 13:15:46.979,60.07,508.0,0.04,1.0,-0.01,0.04,7.52,-2.15
2024-12-06 13:15:47.14,58.95,497.0,0.02,0.99,-0.01,0.53,7.7,-0.75
2024-12-06 13:15:47.36,55.57,506.0,0.03,0.99,-0.02,0.53,10.08,-0.2
2024-12-06 13:15:47.70,58.05,494.0,0.01,1.01,-0.02,0.53,11.73,1.81
2024-12-06 13:15:47.89,56.47,504.0,-0.0,0.98,-0.03,0.71,10.87,2.3
2024-12-06 13:15:47.118,53.77,501.0,0.01,0.99,-0.02,0.59,12.22,2.12
2024-12-06 13:15:47.145,51.75,510.0,0.01,1.01,-0.01,0.77,14.47,2.3
2024-12-06 13:15:47.176,50.62,524.0,0.02,0.99,-0.01,1.08,15.94,1.63
2024-12-06 13:15:47.201,48.82,500.0,0.03,0.98,-0.01,1.5,16.3,2.18
2024-12-06 13:15:47.228,53.1,500.0,0.0,0.99,-0.03,1.81,15.88,2.36
2024-12-06 13:15:47.348,49.72,511.0,-0.01,1.0,-0.03,1.69,14.47,1.14
2024-12-06 13:15:47.351,49.27,490.0,-0.01,0.98,-0.02,1.62,17.34,1.39
2024-12-06 13:15:47.364,44.55,492.0,-0.0,0.98,-0.02,1.62,18.07,1.08
2024-12-06 13:15:47.392,45.9,482.0,-0.0,0.98,-0.02,1.56,16.92,-0.2
2024-12-06 13:15:47.421,44.55,485.0,0.02,1.01,-0.02,1.38,16.49,0.72
2024-12-06 13:15:47.468,43.65,479.0,0.01,1.02,-0.02,1.38,16.18,2.79
2024-12-06 13:15:47.482,43.42,502.0,0.01,0.98,-0.02,1.44,16.67,3.16
2024-12-06 13:15:47.502,37.58,495.0,0.03,0.99,-0.01,1.5,18.5,5.29
2024-12-06 13:15:47.530,39.38,493.0,0.01,0.99,-0.01,1.93,18.69,5.66
2024-12-06 13:15:47.557,40.95,472.0,0.03,0.99,-0.02,2.17,17.71,5.54
2024-12-06 13:15:47.585,32.4,483.0,0.02,0.99,-0.03,2.85,16.06,6.27
2024-12-06 13:15:47.623,32.62,481.0,0.02,0.99,-0.02,3.03,13.56,4.87
2024-12-06 13:15:47.643,34.65,483.0,0.02,1.0,-0.03,3.03,12.95,5.54
2024-12-06 13:15:47.668,35.77,476.0,-0.0,0.99,-0.03,3.03,12.83,5.72
2024-12-06 13:15:47.700,30.15,469.0,-0.0,0.98,-0.02,2.78,12.22,4.62
2024-12-06 13:15:47.724,34.42,451.0,0.01,0.99,-0.02,1.93,11.54,4.13
2024-12-06 13:15:47.752,31.5,490.0,-0.0,1.0,-0.04,1.75,12.58,4.87
2024-12-06 13:15:47.779,30.6,473.0,0.01,1.0,-0.02,1.26,13.86,5.48
2024-12-06 13:15:47.806,29.7,472.0,0.01,0.99,-0.02,0.71,14.29,6.27
2024-12-06 13:15:47.833,27.9,472.0,0.02,0.98,-0.02,0.1,14.35,6.94
2024-12-06 13:15:47.884,29.25,467.0,0.03,0.99,-0.02,-0.27,14.78,8.77
2024-12-06 13:15:47.890,28.35,469.0,0.03,1.0,-0.02,-0.39,13.8,9.81
2024-12-06 13:15:47.918,26.32,481.0,0.05,0.99,-0.02,-0.39,13.01,10.42
2024-12-06 13:15:47.944,24.07,462.0,0.05,0.99,-0.01,-0.45,10.93,12.37
2024-12-06 13:15:47.972,27.22,465.0,0.05,0.99,-0.02,-0.39,7.39,12.92
2024-12-06 13:15:48.7,23.4,467.0,0.07,0.99,-0.01,-0.39,3.67,13.84
2024-12-06 13:15:48.30,22.5,464.0,0.07,0.99,-0.02,-0.63,1.17,15.18
2024-12-06 13:15:48.57,20.25,477.0,0.06,0.98,-0.02,-0.82,-3.04,13.65
2024-12-06 13:15:48.84,19.35,462.0,0.08,0.98,-0.01,-1.06,-5.73,13.47
2024-12-06 13:15:48.112,18.67,473.0,0.07,0.99,-0.01,-1.06,-7.62,13.72
2024-12-06 13:15:48.138,15.97,463.0,0.09,0.99,-0.01,-1.55,-8.66,13.65
2024-12-06 13:15:48.168,20.48,483.0,0.07,0.99,-0.02,-1.79,-12.08,14.2
2024-12-06 13:15:48.193,13.5,472.0,0.07,0.98,-0.02,-2.34,-14.76,12.25
2024-12-06 13:15:48.222,11.25,464.0,0.08,0.98,-0.02,-2.4,-14.95,12.19
2024-12-06 13:15:48.248,13.95,461.0,0.07,0.98,-0.01,-2.22,-14.09,11.76
2024-12-06 13:15:48.396,8.1,454.0,0.07,0.97,-0.02,-2.04,-10.98,10.18
2024-12-06 13:15:48.404,12.38,450.0,0.07,1.0,-0.04,-1.06,1.78,10.05
2024-12-06 13:15:48.412,6.75,457.0,0.07,0.99,-0.03,0.22,3.73,9.69
2024-12-06 13:15:48.441,9.68,448.0,0.09,0.99,-0.04,1.87,7.88,10.66
2024-12-06 13:15:48.468,7.42,468.0,0.04,0.97,-0.03,3.09,11.97,10.66
2024-12-06 13:15:48.497,5.85,456.0,0.09,0.97,-0.01,4.19,14.23,6.82
2024-12-06 13:15:48.539,0.9,456.0,0.1,0.99,-0.04,4.62,18.26,7.73
2024-12-06 13:15:48.555,5.17,451.0,0.09,1.0,-0.01,4.31,14.35,8.83
2024-12-06 13:15:49.883,-1.57,462.0,0.11,0.98,-0.02,1.01,0.99,4.07
2024-12-06 13:15:51.464,-0.67,460.0,0.11,0.98,-0.03,-0.08,1.53,4.8
2024-12-06 13:15:51.474,-3.6,467.0,0.11,0.98,-0.02,-0.27,0.99,4.62
2024-12-06 13:15:51.479,2.02,479.0,0.11,0.98,-0.02,-0.27,0.8,4.5
2024-12-06 13:15:51.486,-1.12,463.0,0.12,0.98,-0.03,-0.27,0.8,4.5
2024-12-06 13:15:51.491,-3.38,468.0,0.12,0.98,-0.02,-0.27,0.62,4.38
2024-12-06 13:15:51.501,-1.57,479.0,0.12,0.98,-0.02,-0.27,0.31,4.26
2024-12-06 13:15:51.506,1.57,474.0,0.12,0.99,-0.02,-0.15,0.07,4.07
2024-12-06 13:15:51.514,-2.02,477.0,0.12,0.99,-0.02,-0.15,-0.17,4.01
2024-12-06 13:15:51.611,-0.9,475.0,0.12,0.99,-0.02,-0.02,-0.54,3.95
2024-12-06 13:15:51.627,-0.22,460.0,0.11,0.98,-0.03,0.83,-1.76,3.77
2024-12-06 13:15:51.635,-0.67,452.0,0.11,0.99,-0.03,0.83,-1.76,3.83
2024-12-06 13:15:51.643,-0.9,474.0,0.11,0.99,-0.03,0.89,-1.46,3.83
2024-12-06 13:15:51.650,-4.05,474.0,0.1,0.99,-0.03,0.95,-1.03,3.95
2024-12-06 13:15:51.677,-4.05,473.0,0.1,0.98,-0.04,0.95,0.13,4.32
2024-12-06 13:15:51.685,-1.35,466.0,0.1,0.98,-0.04,0.95,0.13,4.32
2024-12-06 13:15:51.690,-2.02,493.0,0.1,0.98,-0.04,0.95,0.5,4.44
2024-12-06 13:15:51.696,-0.45,473.0,0.1,0.98,-0.03,0.83,0.86,4.56
2024-12-06 13:15:51.708,-2.7,477.0,0.1,0.98,-0.03,0.77,1.11,4.68
2024-12-06 13:15:51.715,-1.57,479.0,0.1,0.98,-0.03,0.71,1.41,4.8
2024-12-06 13:15:51.721,-1.35,485.0,0.1,0.98,-0.03,0.71,1.41,4.8
2024-12-06 13:15:51.729,1.57,475.0,0.1,0.98,-0.03,0.65,1.72,4.93
2024-12-06 13:15:52.740,-3.6,476.0,0.11,0.99,-0.03,0.59,1.35,4.07
2024-12-06 13:15:52.763,-2.02,464.0,0.13,0.99,-0.03,0.46,2.33,4.62
2024-12-06 13:15:52.789,-3.6,469.0,0.1,0.97,-0.03,0.53,0.68,4.38
2024-12-06 13:15:52.823,1.35,479.0,0.09,0.97,-0.04,0.34,0.19,1.2
2024-12-06 13:15:52.844,0.9,468.0,0.1,0.98,-0.03,0.89,-0.6,-0.81
2024-12-06 13:15:52.876,-3.15,483.0,0.11,0.99,-0.02,1.26,-2.92,0.65
2024-12-06 13:15:52.902,0.45,483.0,0.08,0.97,-0.02,0.4,-3.78,-1.67
2024-12-06 13:15:52.927,0.0,487.0,0.08,0.97,-0.03,0.22,-8.05,-3.37
2024-12-06 13:15:52.959,4.72,474.0,0.1,0.98,-0.02,-0.02,-8.78,-4.9
2024-12-06 13:15:52.983,1.57,473.0,0.09,0.99,-0.03,0.04,-6.58,-4.17
2024-12-06 13:15:53.9,4.05,492.0,0.09,0.99,-0.03,-0.39,-5.97,-4.41
2024-12-06 13:15:53.43,4.28,498.0,0.09,0.99,-0.04,-0.51,-5.36,-2.52
2024-12-06 13:15:53.64,10.35,485.0,0.08,0.98,-0.04,-0.51,-5.91,-1.54
2024-12-06 13:15:53.92,6.75,481.0,0.09,0.99,-0.02,-1.37,-7.62,-0.75
2024-12-06 13:15:53.138,6.75,499.0,0.08,0.99,-0.02,-2.1,-9.33,-0.2
2024-12-06 13:15:53.150,14.62,505.0,0.07,0.98,-0.02,-2.28,-11.89,-0.57
2024-12-06 13:15:53.175,11.7,507.0,0.1,0.99,-0.03,-2.04,-11.34,0.96
2024-12-06 13:15:53.205,10.57,495.0,0.07,0.98,-0.02,-1.49,-12.5,0.23
2024-12-06 13:15:53.231,14.17,506.0,0.07,0.98,-0.03,-1.12,-12.69,-0.38
2024-12-06 13:15:53.274,9.68,500.0,0.07,0.99,-0.03,-0.94,-12.08,0.23
2024-12-06 13:15:53.285,14.4,514.0,0.05,1.0,-0.04,-0.76,-11.59,0.59
2024-12-06 13:15:53.314,13.05,515.0,0.05,0.99,-0.03,-0.57,-10.86,1.14
2024-12-06 13:15:53.340,18.45,497.0,0.02,0.98,-0.03,-0.33,-10.49,0.04
2024-12-06 13:15:53.368,14.4,500.0,0.05,0.99,-0.02,-0.63,-8.84,-1.54
2024-12-06 13:15:53.397,19.35,498.0,0.02,0.99,-0.03,-0.33,-7.8,-1.18
2024-12-06 13:15:53.423,17.1,490.0,0.02,0.98,-0.04,-0.27,-7.99,-3.8
2024-12-06 13:15:53.450,20.25,497.0,0.03,0.99,-0.03,0.1,-4.75,-2.76
2024-12-06 13:15:53.490,21.6,494.0,-0.01,0.98,-0.03,0.53,-4.39,-4.53
2024-12-06 13:15:53.506,25.2,501.0,0.01,0.98,-0.04,0.4,-2.31,-5.57
2024-12-06 13:15:53.533,26.32,502.0,0.02,1.0,-0.03,0.28,0.5,-3.5
2024-12-06 13:15:53.562,27.45,507.0,-0.02,0.99,-0.04,0.65,-0.05,-5.21
2024-12-06 13:15:53.590,24.97,506.0,0.02,0.99,-0.02,0.1,1.05,-4.11
2024-12-06 13:15:53.616,22.72,512.0,-0.0,0.99,-0.02,-0.27,1.23,-3.74
2024-12-06 13:15:53.714,28.8,520.0,0.01,0.99,-0.03,-0.15,2.63,-2.7
2024-12-06 13:15:53.728,28.57,507.0,-0.0,0.99,-0.02,0.1,1.78,-1.54
2024-12-06 13:15:53.753,32.17,501.0,0.0,0.99,-0.01,-0.63,0.8,-0.63
2024-12-06 13:15:53.781,31.72,510.0,-0.01,0.99,-0.02,-1.06,-0.72,-0.51
2024-12-06 13:15:53.811,36.9,530.0,0.0,1.0,-0.01,-1.67,-0.48,0.41
2024-12-06 13:15:53.835,31.72,521.0,0.0,1.01,-0.02,-1.43,-0.3,3.03
2024-12-06 13:15:53.863,33.08,523.0,-0.01,0.99,-0.02,-1.73,-2.19,2.55
2024-12-06 13:15:53.901,32.4,514.0,0.01,0.99,-0.01,-1.73,-4.75,4.07
2024-12-06 13:15:53.943,37.58,513.0,-0.01,0.98,-0.02,-1.67,-6.89,3.58
2024-12-06 13:15:53.947,39.83,516.0,0.01,0.98,-0.02,-1.18,-9.7,2.06
2024-12-06 13:15:53.973,33.75,529.0,0.0,1.01,-0.01,-0.88,-10.12,3.4
2024-12-06 13:15:54.8,40.72,514.0,-0.01,0.99,-0.0,-0.7,-11.71,2.24
2024-12-06 13:15:54.28,39.38,526.0,0.01,0.99,-0.02,-0.45,-12.5,2.12
2024-12-06 13:15:54.57,42.75,517.0,-0.02,1.0,-0.03,-0.02,-12.14,2.61
2024-12-06 13:15:54.83,38.02,534.0,-0.02,1.0,-0.01,0.16,-12.63,2.85
2024-12-06 13:15:54.112,39.83,546.0,-0.04,0.99,-0.02,0.16,-14.09,2.36
2024-12-06 13:15:54.142,48.82,541.0,-0.03,0.97,-0.01,0.4,-13.48,0.04
2024-12-06 13:15:54.172,49.95,531.0,-0.02,1.0,-0.0,-0.27,-12.26,0.41
2024-12-06 13:15:54.206,42.3,528.0,-0.03,1.01,-0.01,-0.39,-11.41,1.08
2024-12-06 13:15:54.251,46.8,531.0,-0.05,0.99,-0.02,-0.02,-11.95,1.2
2024-12-06 13:15:54.259,49.5,548.0,-0.04,0.98,-0.01,0.1,-11.59,1.2
2024-12-06 13:15:54.283,51.52,544.0,-0.04,0.99,-0.01,0.4,-10.43,1.08
2024-12-06 13:15:54.314,51.07,551.0,-0.04,1.0,-0.01,0.77,-8.78,1.45
2024-12-06 13:15:54.332,48.82,543.0,-0.03,1.01,-0.0,0.34,-7.87,2.61
2024-12-06 13:15:54.360,48.38,541.0,-0.06,0.98,-0.02,0.95,-8.54,2.24
2024-12-06 13:15:54.415,54.9,559.0,-0.04,0.98,0.0,0.95,-8.41,1.33
2024-12-06 13:15:54.420,56.47,570.0,-0.04,1.01,-0.01,0.65,-7.07,2.85
2024-12-06 13:15:54.442,58.05,558.0,-0.04,1.01,-0.01,0.53,-7.25,3.58
2024-12-06 13:15:54.470,59.17,550.0,-0.05,0.99,-0.02,0.65,-7.99,4.74
2024-12-06 13:15:54.504,58.27,552.0,-0.06,0.96,-0.0,0.95,-7.38,3.83
2024-12-06 13:15:54.529,56.92,578.0,-0.05,0.97,0.02,1.01,-5.12,2.3
2024-12-06 13:15:54.553,61.42,573.0,-0.05,1.01,-0.0,0.83,-3.9,3.28
2024-12-06 13:15:54.584,61.2,562.0,-0.07,0.98,-0.01,0.89,-4.51,2.61
2024-12-06 13:15:54.636,59.62,565.0,-0.04,1.0,-0.01,0.4,-2.86,3.46
2024-12-06 13:15:54.769,61.42,571.0,-0.03,1.0,-0.01,0.89,0.25,3.4
2024-12-06 13:15:54.772,68.62,586.0,-0.07,1.01,-0.02,1.14,1.05,4.74
2024-12-06 13:15:54.799,65.7,575.0,-0.05,0.99,-0.01,0.89,1.11,4.62
2024-12-06 13:15:54.863,69.3,567.0,-0.04,0.99,-0.01,0.65,1.72,5.17
2024-12-06 13:15:54.870,71.32,574.0,-0.05,0.97,-0.01,1.62,2.27,4.99
2024-12-06 13:15:54.887,74.03,582.0,-0.04,0.97,-0.01,1.38,3.61,4.07
2024-12-06 13:15:54.915,72.0,630.0,-0.04,1.0,-0.01,1.26,3.37,4.8
2024-12-06 13:15:54.938,75.38,596.0,-0.04,1.0,-0.02,1.56,2.63,5.41
2024-12-06 13:15:54.965,75.6,578.0,-0.04,0.99,-0.01,1.2,1.47,5.9
2024-12-06 13:15:54.997,75.6,585.0,-0.05,1.0,-0.01,0.77,1.6,6.33
2024-12-06 13:15:55.23,76.05,583.0,-0.04,0.98,-0.01,0.89,1.41,6.21
2024-12-06 13:15:55.76,78.75,592.0,-0.03,0.99,-0.01,0.89,1.05,5.6
2024-12-06 13:15:55.79,79.65,606.0,-0.04,1.0,-0.01,0.65,0.74,6.64
2024-12-06 13:15:55.102,80.55,610.0,-0.03,0.96,-0.01,0.95,-0.72,5.66
2024-12-06 13:15:55.131,79.42,593.0,-0.04,0.98,-0.01,0.77,-0.48,4.74
2024-12-06 13:15:55.159,80.32,606.0,-0.04,0.99,-0.0,0.59,-0.48,4.56
2024-12-06 13:15:55.186,85.28,602.0,-0.04,0.99,-0.02,0.34,-1.58,4.38
2024-12-06 13:15:55.212,79.2,610.0,-0.03,1.02,-0.01,-0.33,-1.27,5.66
2024-12-06 13:15:56.524,87.52,596.0,-0.03,0.99,-0.02,-0.39,2.02,4.44
2024-12-06 13:15:56.538,84.15,594.0,-0.02,0.99,-0.02,-0.39,2.08,4.56
2024-12-06 13:15:56.546,83.03,595.0,-0.02,0.99,-0.02,-0.39,1.96,4.62
2024-12-06 13:15:56.551,82.8,607.0,-0.02,0.99,-0.03,-0.39,1.96,4.62
2024-12-06 13:15:56.563,85.5,585.0,-0.02,0.99,-0.03,-0.51,1.84,4.68
2024-12-06 13:15:56.568,84.82,594.0,-0.02,0.99,-0.03,-0.57,1.72,4.62
2024-12-06 13:15:56.575,86.17,597.0,-0.02,0.99,-0.03,-0.7,1.6,4.5
2024-12-06 13:15:56.583,85.72,590.0,-0.02,0.99,-0.02,-0.63,1.47,4.44
2024-12-06 13:15:56.591,84.38,591.0,-0.02,0.99,-0.02,-0.51,1.29,4.38
2024-12-06 13:15:56.601,83.47,610.0,-0.02,0.99,-0.02,-0.33,1.17,4.32
2024-12-06 13:15:56.608,86.4,600.0,-0.02,0.99,-0.02,-0.33,1.17,4.32
2024-12-06 13:15:56.624,85.72,605.0,-0.02,0.98,-0.02,-0.21,1.11,4.32
2024-12-06 13:15:56.660,85.95,596.0,-0.02,0.99,-0.02,0.04,1.11,4.26
2024-12-06 13:15:56.662,88.88,592.0,-0.02,0.99,-0.02,0.04,1.05,4.26
2024-12-06 13:15:56.670,86.62,594.0,-0.02,0.99,-0.02,0.1,1.05,4.26
2024-12-06 13:15:56.676,81.67,594.0,-0.02,0.99,-0.02,0.22,1.05,4.26
2024-12-06 13:15:56.683,81.45,597.0,-0.02,0.99,-0.01,0.22,1.05,4.26
2024-12-06 13:15:56.701,87.07,605.0,-0.02,0.99,-0.01,0.28,1.05,4.19
2024-12-06 13:15:56.704,86.17,592.0,-0.02,0.99,-0.01,0.28,1.17,4.13
2024-12-06 13:15:56.710,86.4,594.0,-0.03,0.99,-0.02,0.1,1.23,4.13
2024-12-06 13:15:56.715,85.95,599.0,-0.03,0.99,-0.02,-0.15,1.23,4.13
2024-12-06 13:15:56.721,86.4,589.0,-0.03,0.99,-0.02,-0.15,1.23,4.26
2024-12-06 13:15:56.733,85.72,591.0,-0.03,1.0,-0.02,-0.45,0.92,4.26
2024-12-06 13:15:56.738,88.42,598.0,-0.03,1.0,-0.02,-0.76,0.92,4.38
2024-12-06 13:15:56.746,88.42,627.0,-0.03,1.0,-0.01,-0.76,0.8,4.62
2024-12-06 13:15:56.759,84.15,598.0,-0.02,1.01,-0.02,-1.06,-0.11,5.23
2024-12-06 13:15:56.765,84.15,594.0,-0.02,1.01,-0.02,-1.37,1.35,5.96
2024-12-06 13:15:56.770,85.28,616.0,-0.03,1.01,-0.03,-1.37,1.35,5.96
2024-12-06 13:15:56.878,86.62,621.0,-0.01,0.96,-0.01,1.26,-0.54,3.4
2024-12-06 13:15:56.883,84.38,599.0,-0.0,0.98,-0.01,1.26,-0.54,3.4
2024-12-06 13:15:56.893,85.95,589.0,-0.0,1.0,-0.01,0.71,0.31,2.91
2024-12-06 13:15:56.902,85.5,594.0,-0.02,1.01,-0.01,0.65,1.17,2.24
2024-12-06 13:15:56.911,86.17,604.0,-0.03,1.01,-0.01,1.14,1.17,1.63
2024-12-06 13:15:56.917,85.95,590.0,-0.03,1.0,-0.01,1.32,1.11,1.39
2024-12-06 13:15:56.923,87.75,579.0,-0.02,1.0,-0.01,1.26,1.23,1.51
2024-12-06 13:15:56.937,84.82,575.0,-0.02,1.0,-0.01,1.26,1.17,1.69
2024-12-06 13:15:56.939,84.6,616.0,-0.02,0.99,-0.02,1.26,1.17,1.69
2024-12-06 13:15:56.948,82.12,609.0,-0.03,0.99,-0.02,1.32,0.99,1.87
2024-12-06 13:15:56.953,85.5,606.0,-0.03,0.99,-0.02,1.26,1.05,2.12
2024-12-06 13:15:56.962,86.62,590.0,-0.03,0.99,-0.02,1.14,1.11,2.3
2024-12-06 13:15:56.973,87.97,594.0,-0.03,0.99,-0.02,1.2,1.11,2.61
2024-12-06 13:15:56.981,85.72,620.0,-0.03,0.98,-0.02,1.2,1.11,2.61
2024-12-06 13:15:56.987,84.82,590.0,-0.03,0.98,-0.02,1.32,1.11,2.91
2024-12-06 13:15:56.991,85.28,585.0,-0.03,0.99,-0.02,1.38,1.23,3.16
2024-12-06 13:15:57.1,85.5,585.0,-0.03,0.99,-0.02,1.26,1.29,3.22
2024-12-06 13:15:57.6,85.72,587.0,-0.03,0.99,-0.02,1.08,1.35,3.22
2024-12-06 13:15:57.28,83.7,588.0,-0.02,0.99,-0.01,1.01,1.47,3.16
2024-12-06 13:15:57.33,84.82,561.0,-0.03,0.99,-0.01,0.83,1.66,3.1
2024-12-06 13:15:57.36,85.28,594.0,-0.03,0.99,-0.01,0.65,1.84,3.03
2024-12-06 13:15:57.44,86.85,582.0,-0.03,0.99,-0.01,0.53,1.9,2.97
2024-12-06 13:15:57.54,84.82,609.0,-0.03,1.0,-0.01,0.53,1.96,2.85
2024-12-06 13:15:57.61,85.5,583.0,-0.03,0.99,-0.01,0.53,1.96,2.85
2024-12-06 13:15:57.71,86.85,606.0,-0.03,0.99,-0.01,0.4,2.08,2.79
2024-12-06 13:15:57.79,81.0,658.0,-0.03,0.99,-0.01,0.28,2.14,2.73
2024-12-06 13:15:57.111,85.05,586.0,-0.02,0.99,-0.02,0.28,2.02,2.85
2024-12-06 13:15:57.116,81.9,597.0,-0.03,0.99,-0.02,0.28,1.96,2.91
2024-12-06 13:15:57.128,84.82,601.0,-0.02,0.99,-0.02,0.34,1.84,3.03
2024-12-06 13:15:57.132,82.8,587.0,-0.02,0.99,-0.02,0.4,1.6,3.22
2024-12-06 13:15:57.143,85.05,582.0,-0.02,1.0,-0.02,0.4,1.6,3.22
2024-12-06 13:15:57.151,84.6,578.0,-0.02,1.0,-0.02,0.53,1.41,3.28
2024-12-06 13:15:57.154,85.05,588.0,-0.02,0.99,-0.02,0.59,1.23,3.4
2024-12-06 13:15:57.166,79.65,587.0,-0.02,0.99,-0.02,0.71,1.17,3.52
2024-12-06 13:15:57.170,86.4,610.0,-0.02,0.99,-0.02,0.77,1.05,3.64
2024-12-06 13:15:57.280,85.05,599.0,-0.02,0.99,-0.02,0.34,1.9,4.38
2024-12-06 13:15:57.285,83.25,605.0,-0.02,0.99,-0.02,0.28,1.84,4.44
2024-12-06 13:15:57.293,85.5,595.0,-0.02,0.98,-0.02,0.28,1.84,4.44
2024-12-06 13:15:57.295,87.52,597.0,-0.02,0.98,-0.02,0.4,1.78,4.56
2024-12-06 13:15:57.305,86.17,599.0,-0.02,0.99,-0.02,0.46,1.72,4.56
2024-12-06 13:15:57.417,81.45,584.0,-0.03,0.99,-0.01,0.28,1.23,2.85
2024-12-06 13:15:57.430,87.07,596.0,-0.03,0.99,-0.02,0.34,1.05,2.85
2024-12-06 13:15:57.444,84.82,596.0,-0.03,0.99,-0.02,0.34,1.05,2.91
2024-12-06 13:15:57.447,87.52,602.0,-0.03,0.99,-0.02,0.28,0.86,2.91
2024-12-06 13:15:57.462,83.7,583.0,-0.03,0.99,-0.02,0.22,0.62,3.03
2024-12-06 13:15:57.469,81.22,607.0,-0.03,0.99,-0.02,0.1,0.56,3.16
2024-12-06 13:15:57.471,83.7,585.0,-0.03,0.99,-0.02,0.04,0.5,3.28
2024-12-06 13:15:57.477,86.4,603.0,-0.03,0.99,-0.02,-0.02,0.5,3.4
2024-12-06 13:15:57.486,84.38,608.0,-0.03,0.99,-0.01,-0.02,0.5,3.4
2024-12-06 13:15:57.496,79.88,592.0,-0.03,0.99,-0.01,-0.02,0.62,3.52
2024-12-06 13:15:57.504,86.17,607.0,-0.03,0.99,-0.01,-0.02,0.74,3.64
2024-12-06 13:15:57.508,84.38,598.0,-0.03,0.99,-0.01,0.04,0.92,3.77
2024-12-06 13:15:57.518,88.88,586.0,-0.03,0.99,-0.01,0.1,1.17,3.83
2024-12-06 13:15:57.526,82.12,585.0,-0.03,0.99,-0.01,0.1,1.17,3.83
2024-12-06 13:15:57.560,81.67,615.0,-0.02,0.99,-0.01,0.04,1.35,3.83
2024-12-06 13:15:57.569,85.05,584.0,-0.03,0.99,-0.02,0.04,1.23,4.07
2024-12-06 13:15:57.588,86.85,588.0,-0.03,0.99,-0.02,-0.15,1.05,4.07
2024-12-06 13:15:57.591,85.05,614.0,-0.03,0.99,-0.01,-0.15,1.05,4.01
2024-12-06 13:15:57.593,83.47,609.0,-0.03,0.99,-0.01,-0.21,1.05,4.01
2024-12-06 13:15:57.599,86.17,609.0,-0.03,0.99,-0.01,-0.27,0.99,4.01
2024-12-06 13:15:57.607,82.12,593.0,-0.03,0.99,-0.01,-0.27,0.99,4.01
2024-12-06 13:15:57.616,84.82,608.0,-0.03,0.99,-0.02,-0.27,0.99,4.07
2024-12-06 13:15:57.626,84.6,593.0,-0.03,0.99,-0.02,-0.33,0.92,4.19
2024-12-06 13:15:57.632,82.35,581.0,-0.03,0.99,-0.02,-0.39,0.92,4.19
2024-12-06 13:15:57.642,80.55,597.0,-0.03,0.99,-0.02,-0.45,0.99,4.26
2024-12-06 13:15:57.646,87.97,600.0,-0.03,0.99,-0.02,-0.45,0.99,4.26
2024-12-06 13:15:57.654,80.78,586.0,-0.03,0.99,-0.02,-0.39,0.8,4.32
2024-12-06 13:15:57.661,84.15,605.0,-0.03,0.99,-0.02,-0.27,0.68,4.38
2024-12-06 13:15:57.669,85.95,587.0,-0.03,0.99,-0.02,-0.21,0.56,4.38
2024-12-06 13:15:57.679,87.3,581.0,-0.03,0.99,-0.01,-0.15,0.5,4.32
2024-12-06 13:15:57.686,84.6,587.0,-0.03,0.99,-0.01,-0.08,0.5,4.26
2024-12-06 13:15:57.697,84.6,589.0,-0.03,0.99,-0.01,-0.08,0.5,4.26
2024-12-06 13:15:57.704,85.5,597.0,-0.03,0.99,-0.01,-0.08,0.5,4.19
2024-12-06 13:15:57.708,86.85,586.0,-0.03,0.99,-0.01,-0.15,0.62,4.01
2024-12-06 13:15:57.727,84.15,586.0,-0.03,0.99,-0.01,-0.21,0.74,3.89
2024-12-06 13:15:57.749,83.47,594.0,-0.03,0.99,-0.01,-0.27,0.99,3.58
2024-12-06 13:15:57.752,82.35,596.0,-0.03,0.99,-0.01,-0.39,1.35,3.46
2024-12-06 13:15:57.782,80.32,598.0,-0.03,0.99,-0.01,-0.39,1.41,3.46
2024-12-06 13:15:57.784,85.05,591.0,-0.03,0.99,-0.01,-0.21,1.17,3.77
2024-12-06 13:15:57.792,86.62,599.0,-0.03,0.99,-0.01,-0.15,1.11,3.77
2024-12-06 13:15:57.810,84.82,586.0,-0.03,0.99,-0.01,-0.27,1.05,3.89
2024-12-06 13:15:57.812,87.3,589.0,-0.03,0.99,-0.01,-0.33,0.92,3.95
2024-12-06 13:15:57.819,85.72,633.0,-0.03,0.99,-0.01,-0.33,0.92,3.95
2024-12-06 13:15:57.928,81.67,612.0,-0.03,0.99,-0.01,0.1,0.8,4.26
2024-12-06 13:15:57.941,87.07,608.0,-0.03,0.99,-0.01,0.22,0.86,4.26
2024-12-06 13:15:57.944,84.82,598.0,-0.03,0.99,-0.01,0.34,0.99,4.26
2024-12-06 13:15:57.962,81.67,587.0,-0.03,0.99,-0.01,0.46,1.05,4.26
2024-12-06 13:15:57.967,80.1,592.0,-0.03,0.99,-0.01,0.59,1.11,4.19
2024-12-06 13:15:57.970,81.0,598.0,-0.03,0.99,-0.01,0.59,1.11,4.19
2024-12-06 13:15:57.973,82.8,605.0,-0.03,0.99,-0.01,0.65,1.11,4.07
2024-12-06 13:15:57.981,84.6,577.0,-0.03,0.99,-0.01,0.77,1.17,4.01
2024-12-06 13:15:58.8,83.03,580.0,-0.03,0.99,-0.01,0.83,1.23,3.77
2024-12-06 13:15:58.11,87.97,599.0,-0.03,0.99,-0.01,0.89,1.23,3.71
2024-12-06 13:15:58.23,87.97,605.0,-0.03,0.99,-0.01,0.95,1.23,3.58
2024-12-06 13:15:58.27,85.95,596.0,-0.03,0.99,-0.01,1.01,1.17,3.58
2024-12-06 13:15:58.35,85.5,599.0,-0.03,0.99,-0.01,1.01,1.17,3.64
2024-12-06 13:15:58.47,84.82,595.0,-0.03,0.99,-0.01,1.01,1.17,3.58
2024-12-06 13:15:58.53,85.95,597.0,-0.03,0.99,-0.01,1.01,1.17,3.58
2024-12-06 13:15:58.58,84.38,597.0,-0.03,0.99,-0.01,0.95,1.23,3.64
2024-12-06 13:15:58.68,86.62,580.0,-0.03,0.99,-0.01,0.83,1.29,3.64
2024-12-06 13:15:58.79,83.03,603.0,-0.03,0.99,-0.01,0.71,1.35,3.52
2024-12-06 13:15:58.86,85.5,589.0,-0.03,0.99,-0.01,0.65,1.47,3.46
2024-12-06 13:15:58.95,87.07,598.0,-0.03,0.99,-0.01,0.53,1.53,3.4
2024-12-06 13:15:58.98,85.95,607.0,-0.03,0.99,-0.01,0.53,1.53,3.4
2024-12-06 13:15:58.111,86.62,592.0,-0.03,0.99,-0.01,0.53,1.53,3.28
2024-12-06 13:15:58.120,85.5,596.0,-0.03,0.99,-0.01,0.59,1.53,3.16
2024-12-06 13:15:58.124,84.82,586.0,-0.03,0.99,-0.01,0.65,1.47,3.03
2024-12-06 13:15:58.137,85.28,600.0,-0.03,0.99,-0.01,0.71,1.35,2.97
2024-12-06 13:15:58.140,82.8,585.0,-0.03,0.99,-0.01,0.83,1.23,2.85
2024-12-06 13:15:58.146,85.05,606.0,-0.03,0.99,-0.01,0.83,1.23,2.85
2024-12-06 13:15:58.155,85.05,590.0,-0.03,0.99,-0.01,0.89,1.17,2.79
2024-12-06 13:15:58.160,85.5,602.0,-0.03,0.99,-0.01,0.89,1.05,2.67
2024-12-06 13:15:58.168,86.17,584.0,-0.03,0.99,-0.01,0.95,0.99,2.55
2024-12-06 13:15:58.177,85.05,589.0,-0.03,0.99,-0.01,0.89,0.86,2.55
2024-12-06 13:15:58.184,80.55,587.0,-0.03,0.99,-0.01,0.89,0.86,2.55
2024-12-06 13:15:58.197,85.28,592.0,-0.03,0.99,-0.01,0.95,0.74,2.55
2024-12-06 13:15:58.203,86.85,603.0,-0.03,0.99,-0.01,0.89,0.74,2.61
2024-12-06 13:15:58.232,87.07,603.0,-0.04,0.99,-0.01,0.77,0.86,2.67
2024-12-06 13:15:58.235,82.35,586.0,-0.04,0.99,-0.01,0.46,1.23,2.85
2024-12-06 13:15:58.239,84.82,591.0,-0.04,0.99,-0.01,0.28,1.29,2.97
2024-12-06 13:15:58.246,87.97,588.0,-0.04,0.99,-0.01,0.16,1.41,3.1
2024-12-06 13:15:58.254,82.8,593.0,-0.04,0.99,-0.01,0.1,1.47,3.22
2024-12-06 13:15:58.262,87.52,601.0,-0.04,0.99,-0.01,-0.02,1.53,3.34
2024-12-06 13:15:58.270,81.22,599.0,-0.04,0.99,-0.01,0.04,1.47,3.46
2024-12-06 13:15:58.280,81.9,585.0,-0.03,0.99,-0.01,0.04,1.47,3.46
2024-12-06 13:15:58.287,87.52,581.0,-0.03,0.99,-0.01,0.1,1.35,3.71
2024-12-06 13:15:58.294,84.82,599.0,-0.03,0.99,-0.01,0.22,1.23,3.83
2024-12-06 13:15:58.304,86.4,597.0,-0.03,0.99,-0.01,0.34,1.11,4.07
2024-12-06 13:15:58.318,85.28,633.0,-0.03,0.99,-0.01,0.4,0.92,4.13
2024-12-06 13:15:58.325,83.03,605.0,-0.03,0.99,-0.01,0.4,0.92,4.13
2024-12-06 13:15:58.332,89.1,592.0,-0.03,0.99,-0.01,0.46,0.8,4.26
2024-12-06 13:15:58.336,85.72,591.0,-0.03,0.99,-0.01,0.53,0.68,4.32
2024-12-06 13:15:58.342,83.03,587.0,-0.03,0.99,-0.01,0.59,0.68,4.38
2024-12-06 13:15:58.349,81.9,591.0,-0.03,0.99,-0.01,0.53,0.74,4.38
2024-12-06 13:15:58.355,81.0,590.0,-0.03,0.99,-0.01,0.4,0.92,4.38
2024-12-06 13:15:58.365,85.72,590.0,-0.03,0.99,-0.01,0.4,0.92,4.38
2024-12-06 13:15:58.377,81.9,600.0,-0.03,0.98,-0.01,0.28,1.29,4.32
2024-12-06 13:15:58.379,87.3,584.0,-0.03,0.98,-0.01,0.22,1.6,4.26
2024-12-06 13:15:58.390,82.8,594.0,-0.03,0.99,-0.01,0.1,1.9,4.26
2024-12-06 13:15:58.400,84.6,595.0,-0.03,0.99,-0.01,0.1,2.08,4.26
2024-12-06 13:15:58.410,84.15,594.0,-0.03,0.99,-0.01,0.1,2.27,4.26
2024-12-06 13:15:58.412,87.75,637.0,-0.03,0.99,-0.01,0.1,2.27,4.26
2024-12-06 13:15:58.428,82.35,588.0,-0.03,0.99,-0.01,0.04,2.39,4.26
2024-12-06 13:15:58.431,84.6,609.0,-0.03,0.99,-0.01,0.1,2.33,4.19
2024-12-06 13:15:58.437,83.03,611.0,-0.03,0.99,-0.01,0.22,2.02,4.19
2024-12-06 13:15:58.442,85.28,591.0,-0.03,0.99,-0.01,0.4,1.72,4.19
2024-12-06 13:15:58.448,84.38,580.0,-0.03,0.99,-0.01,0.4,1.72,4.19
2024-12-06 13:15:58.457,85.05,588.0,-0.03,0.99,-0.01,0.46,1.53,4.19
2024-12-06 13:15:58.468,80.1,586.0,-0.03,0.99,-0.01,0.53,1.29,4.26
2024-12-06 13:15:58.474,84.6,602.0,-0.03,0.99,-0.01,0.65,1.17,4.26
2024-12-06 13:15:59.480,83.92,582.0,-0.04,0.99,-0.01,0.16,0.99,3.4
2024-12-06 13:15:59.510,78.97,573.0,-0.04,1.0,-0.0,-0.57,-0.48,5.11
2024-12-06 13:15:59.535,81.22,561.0,-0.04,1.14,0.01,-2.71,1.9,15.85
2024-12-06 13:15:59.593,78.53,560.0,-0.03,1.1,-0.04,-2.77,1.84,27.81
2024-12-06 13:15:59.596,70.42,540.0,-0.05,0.97,-0.05,-2.16,-1.58,32.82
2024-12-06 13:15:59.619,74.7,521.0,-0.05,0.86,-0.04,-0.57,-1.46,30.62
2024-12-06 13:15:59.646,68.17,522.0,-0.02,0.85,0.01,0.28,5.14,24.4
2024-12-06 13:15:59.673,65.25,531.0,-0.0,0.91,0.03,0.16,14.96,12.98
2024-12-06 13:15:59.701,64.35,523.0,0.05,0.98,0.03,1.14,18.01,0.9
2024-12-06 13:15:59.736,66.6,520.0,0.03,1.04,-0.02,2.48,13.44,-5.82
2024-12-06 13:15:59.757,64.57,515.0,0.02,1.03,-0.02,4.55,4.4,-8.14
2024-12-06 13:15:59.786,65.92,512.0,-0.02,1.01,-0.02,5.53,1.6,-7.04
2024-12-06 13:15:59.819,54.67,527.0,-0.04,1.0,-0.02,5.1,3.0,-3.56
2024-12-06 13:15:59.840,62.55,506.0,-0.04,0.97,-0.01,3.39,5.62,-0.57
2024-12-06 13:15:59.865,58.27,527.0,-0.05,0.98,-0.01,0.89,9.41,2.18
2024-12-06 13:15:59.900,60.75,534.0,-0.05,0.97,0.01,-0.39,12.95,2.73
2024-12-06 13:15:59.923,57.38,500.0,0.0,0.98,0.02,-1.73,16.3,2.55
2024-12-06 13:16:00.18,59.17,492.0,0.02,1.03,-0.02,0.04,9.29,2.42
2024-12-06 13:16:00.44,58.05,489.0,0.0,1.0,-0.01,1.38,5.14,3.28
2024-12-06 13:16:00.59,57.82,496.0,0.01,1.0,-0.01,2.05,4.77,3.58
2024-12-06 13:16:00.86,52.65,490.0,-0.01,1.0,-0.02,2.17,6.17,4.32
2024-12-06 13:16:00.113,51.07,489.0,-0.01,0.98,-0.01,1.93,5.68,5.54
2024-12-06 13:16:00.143,51.52,494.0,-0.0,0.97,-0.0,1.26,7.45,5.72
2024-12-06 13:16:00.170,54.67,521.0,-0.01,0.97,-0.0,0.65,10.99,6.57
2024-12-06 13:16:00.196,52.2,499.0,-0.02,0.97,-0.0,-0.45,14.23,5.96
2024-12-06 13:16:00.226,50.17,489.0,-0.02,0.98,-0.01,-0.94,15.57,5.72
2024-12-06 13:16:00.266,43.2,485.0,-0.01,1.0,-0.01,-1.49,14.53,6.21
2024-12-06 13:16:00.282,47.7,486.0,-0.0,1.0,-0.01,-1.61,14.11,6.15
2024-12-06 13:16:00.307,42.75,476.0,0.01,1.0,-0.01,-1.43,12.34,5.23
2024-12-06 13:16:00.335,39.38,483.0,-0.02,0.99,-0.01,-0.94,9.47,4.5
2024-12-06 13:16:00.361,40.95,497.0,0.01,0.99,0.0,-0.7,7.33,2.3
2024-12-06 13:16:00.391,42.75,490.0,0.01,1.0,-0.0,-0.45,6.72,3.1
2024-12-06 13:16:00.417,43.88,472.0,-0.01,0.99,0.0,-0.7,5.81,2.55
2024-12-06 13:16:00.450,40.72,474.0,-0.02,0.99,-0.01,-1.06,5.99,2.42
2024-12-06 13:16:00.472,40.5,485.0,-0.03,0.99,-0.01,-0.94,6.48,3.4
2024-12-06 13:16:00.499,37.8,486.0,-0.01,0.99,0.0,-1.43,7.7,2.79
2024-12-06 13:16:00.603,39.83,484.0,-0.0,1.01,-0.0,-1.24,8.25,4.07
2024-12-06 13:16:00.606,30.82,487.0,0.0,0.98,-0.0,-0.21,4.4,4.13
2024-12-06 13:16:00.609,38.47,485.0,-0.03,0.98,-0.01,0.1,5.56,4.26
2024-12-06 13:16:00.650,36.9,472.0,-0.03,0.97,0.01,-0.27,9.04,2.42
2024-12-06 13:16:00.664,31.95,463.0,-0.02,1.01,-0.01,-0.27,14.11,3.28
2024-12-06 13:16:00.692,27.67,475.0,-0.04,1.01,-0.01,0.4,16.18,3.77
2024-12-06 13:16:00.726,28.35,466.0,-0.01,1.0,-0.01,0.53,18.2,4.5
2024-12-06 13:16:00.750,29.47,462.0,-0.02,1.0,-0.02,1.56,16.67,5.6
2024-12-06 13:16:00.775,25.88,464.0,-0.02,0.99,-0.02,1.62,17.89,6.09
2024-12-06 13:16:00.803,28.35,466.0,-0.01,0.99,-0.01,2.11,21.25,5.35
2024-12-06 13:16:00.843,28.8,458.0,-0.02,0.99,-0.01,3.09,23.32,5.66
2024-12-06 13:16:00.857,26.1,455.0,-0.0,1.0,-0.01,3.88,24.85,5.6
2024-12-06 13:16:00.885,27.67,461.0,0.02,1.0,-0.01,4.25,25.46,7.06
2024-12-06 13:16:00.913,23.17,471.0,0.0,1.0,-0.0,5.23,22.04,8.22
2024-12-06 13:16:00.946,24.07,456.0,0.0,0.98,-0.0,4.49,19.97,6.51
2024-12-06 13:16:01.60,17.77,476.0,0.03,1.0,-0.01,4.37,19.66,7.86
2024-12-06 13:16:01.66,14.4,456.0,0.02,0.99,-0.0,3.03,18.75,7.67
2024-12-06 13:16:01.78,17.77,470.0,0.04,1.0,0.0,2.36,17.16,8.22
2024-12-06 13:16:01.105,17.1,449.0,0.05,1.0,-0.01,1.75,14.17,9.99
2024-12-06 13:16:01.139,9.68,459.0,0.03,1.0,-0.0,1.75,8.92,10.72
2024-12-06 13:16:01.183,15.97,464.0,0.06,1.01,-0.01,1.56,4.71,10.72
2024-12-06 13:16:01.188,11.02,472.0,0.05,1.01,-0.03,1.75,2.94,11.52
2024-12-06 13:16:01.241,14.17,485.0,0.04,1.0,-0.03,2.23,0.19,11.52
2024-12-06 13:16:01.247,13.5,458.0,0.05,0.99,-0.03,2.48,-1.09,12.25
2024-12-06 13:16:01.294,9.22,478.0,0.04,0.98,-0.03,2.78,-1.15,13.04
2024-12-06 13:16:01.304,5.85,465.0,0.04,0.97,-0.03,2.54,1.11,12.74
2024-12-06 13:16:01.325,7.42,456.0,0.05,0.99,-0.03,2.85,4.34,14.51
2024-12-06 13:16:01.353,5.85,432.0,0.04,0.99,-0.03,2.42,9.1,15.91
2024-12-06 13:16:01.388,4.28,458.0,0.06,0.97,-0.03,2.05,11.73,15.79
2024-12-06 13:16:01.409,0.9,459.0,0.03,0.96,-0.03,2.3,11.48,14.94
2024-12-06 13:16:01.436,3.15,444.0,0.07,0.97,-0.03,2.23,10.99,11.7
2024-12-06 13:16:01.466,3.82,446.0,0.12,1.0,-0.03,2.23,13.5,14.45
2024-12-06 13:16:02.772,2.92,451.0,0.09,0.99,-0.03,0.89,0.44,3.03
2024-12-06 13:16:05.300,-0.22,457.0,0.09,0.98,-0.03,0.53,-0.24,4.38
2024-12-06 13:16:05.350,0.0,457.0,0.07,0.98,-0.03,0.71,-0.11,3.95
2024-12-06 13:16:05.358,0.22,468.0,0.04,0.96,-0.03,1.62,-3.96,1.02
2024-12-06 13:16:05.381,1.35,467.0,0.09,0.98,-0.02,0.53,-5.06,-2.7
2024-12-06 13:16:05.410,2.92,462.0,0.06,0.98,-0.03,1.26,-7.07,-4.47
2024-12-06 13:16:05.447,2.92,486.0,0.09,0.98,-0.03,0.65,-8.41,-4.78
2024-12-06 13:16:05.492,3.6,484.0,0.07,0.99,-0.03,0.53,-8.29,-3.68
2024-12-06 13:16:05.498,4.05,478.0,0.07,0.98,-0.03,-0.21,-8.23,-3.98
2024-12-06 13:16:05.518,5.17,478.0,0.07,0.98,-0.04,-0.39,-6.95,-2.28
2024-12-06 13:16:05.575,6.75,492.0,0.06,0.99,-0.05,-0.27,-5.97,-1.67
2024-12-06 13:16:05.588,8.1,474.0,0.06,0.98,-0.02,-1.24,-7.32,-1.97
2024-12-06 13:16:05.600,6.52,497.0,0.06,0.99,-0.04,-1.49,-6.52,-1.18
2024-12-06 13:16:05.644,10.12,485.0,0.06,0.99,-0.03,-1.79,-7.19,-0.87
2024-12-06 13:16:05.656,12.6,499.0,0.07,0.99,-0.04,-1.49,-6.83,0.9
2024-12-06 13:16:05.697,12.82,480.0,0.05,0.98,-0.03,-1.18,-7.56,1.57
2024-12-06 13:16:05.711,13.72,511.0,0.06,0.98,-0.04,-0.94,-8.11,1.87
2024-12-06 13:16:05.749,12.15,485.0,0.06,0.99,-0.04,-0.88,-6.89,2.61
2024-12-06 13:16:05.766,11.7,503.0,0.05,1.0,-0.04,-0.51,-6.16,3.1
2024-12-06 13:16:05.800,17.1,493.0,0.04,0.99,-0.05,-0.27,-5.67,2.73
2024-12-06 13:16:05.822,18.45,491.0,0.03,0.98,-0.04,-0.15,-5.24,2.24
2024-12-06 13:16:05.849,18.45,497.0,0.06,0.99,-0.04,-0.27,-5.36,1.51
2024-12-06 13:16:05.957,16.42,497.0,0.04,0.99,-0.04,-0.33,-5.0,2.0
2024-12-06 13:16:05.960,21.15,510.0,0.03,0.99,-0.02,-0.51,-6.03,1.45
2024-12-06 13:16:05.988,19.57,513.0,0.04,0.99,-0.03,-0.82,-5.36,1.39
2024-12-06 13:16:06.22,24.75,503.0,0.04,1.0,-0.02,-0.82,-4.2,2.85
2024-12-06 13:16:06.51,22.5,512.0,0.04,0.99,-0.03,-1.24,-4.87,3.77
2024-12-06 13:16:06.69,23.17,517.0,0.04,0.99,-0.03,-1.12,-5.67,4.01
2024-12-06 13:16:06.101,27.9,508.0,0.06,1.0,-0.02,-1.18,-6.71,4.5
2024-12-06 13:16:06.133,27.9,491.0,0.03,0.99,-0.03,-1.0,-9.27,4.68
2024-12-06 13:16:06.154,29.25,507.0,0.04,0.98,-0.03,-0.33,-10.55,2.49
2024-12-06 13:16:06.188,31.05,505.0,0.05,1.0,-0.03,0.53,-7.5,3.4
2024-12-06 13:16:06.207,32.85,512.0,0.02,1.0,-0.03,0.95,-7.56,2.49
2024-12-06 13:16:06.317,29.7,511.0,0.05,1.0,-0.01,0.34,-9.33,3.71
2024-12-06 13:16:06.320,31.72,514.0,0.03,1.01,-0.03,0.46,-4.2,4.26
2024-12-06 13:16:06.360,38.02,516.0,-0.0,0.97,-0.04,0.65,-4.94,2.85
2024-12-06 13:16:06.374,36.0,521.0,0.03,0.98,-0.03,0.83,-3.35,2.55
2024-12-06 13:16:06.400,37.8,523.0,-0.0,0.98,-0.03,1.2,-1.33,2.12
2024-12-06 13:16:06.428,36.9,516.0,0.01,0.98,-0.04,1.2,0.13,0.29
2024-12-06 13:16:06.455,38.47,531.0,0.02,1.0,-0.03,0.71,1.23,1.2
2024-12-06 13:16:06.485,44.32,519.0,0.02,1.0,-0.03,0.22,0.56,1.81
2024-12-06 13:16:06.511,40.95,519.0,0.02,0.99,-0.04,0.46,0.44,2.24
2024-12-06 13:16:06.541,40.27,525.0,0.02,0.99,-0.03,0.65,1.47,2.67
2024-12-06 13:16:06.589,46.35,534.0,0.01,0.99,-0.02,0.53,0.44,2.79
2024-12-06 13:16:06.954,54.9,555.0,-0.02,0.99,-0.03,-1.24,-4.2,3.28
2024-12-06 13:16:06.975,59.4,560.0,-0.03,0.99,-0.03,-1.18,-3.1,4.01
2024-12-06 13:16:07.3,61.88,540.0,-0.02,0.98,-0.03,-0.94,-2.56,2.61
2024-12-06 13:16:07.37,62.32,553.0,0.0,1.0,-0.02,-0.82,-2.56,2.49
2024-12-06 13:16:07.61,65.47,548.0,-0.01,1.0,-0.03,-0.15,-2.98,2.61
2024-12-06 13:16:07.85,61.88,559.0,-0.0,0.99,-0.03,0.16,-3.04,2.85
2024-12-06 13:16:07.113,66.15,564.0,-0.0,0.99,-0.02,0.4,-2.86,3.77
2024-12-06 13:16:07.140,66.15,564.0,-0.01,0.99,-0.03,0.89,-2.37,4.13
2024-12-06 13:16:07.171,63.45,561.0,-0.01,0.99,-0.03,1.2,-1.76,4.5
2024-12-06 13:16:07.195,65.47,566.0,-0.03,0.98,-0.03,1.2,-0.91,4.32
2024-12-06 13:16:07.223,65.47,570.0,-0.01,0.99,-0.02,0.71,-0.36,3.71
2024-12-06 13:16:07.357,64.35,562.0,-0.01,0.97,-0.02,0.53,-0.85,3.58
2024-12-06 13:16:07.363,72.67,586.0,-0.01,0.99,-0.03,0.16,0.19,3.1
2024-12-06 13:16:07.388,74.92,579.0,-0.0,1.0,-0.02,0.04,0.07,3.1
2024-12-06 13:16:07.415,75.82,582.0,-0.0,1.0,-0.03,0.1,-1.21,3.58
2024-12-06 13:16:07.448,75.6,587.0,-0.01,0.98,-0.03,0.53,-2.13,3.22
2024-12-06 13:16:07.478,74.7,597.0,0.0,0.99,-0.02,0.53,-2.25,3.03
2024-12-06 13:16:07.500,73.35,584.0,-0.01,1.02,-0.02,-0.08,-1.21,4.56
2024-12-06 13:16:07.538,75.82,583.0,-0.01,0.98,-0.02,0.46,-1.7,4.8
2024-12-06 13:16:07.556,76.28,602.0,0.0,0.99,-0.02,0.04,-1.76,5.23
2024-12-06 13:16:07.585,78.97,596.0,-0.02,0.99,-0.03,0.16,-1.4,6.15
2024-12-06 13:16:07.607,81.9,605.0,0.0,0.99,-0.02,0.1,-1.7,5.66
2024-12-06 13:16:07.635,79.65,612.0,-0.02,0.99,-0.02,0.04,-1.58,6.21
2024-12-06 13:16:07.662,80.55,602.0,0.0,0.98,-0.02,0.22,-1.58,5.6
2024-12-06 13:16:07.716,80.32,598.0,-0.0,1.01,-0.02,-0.21,-1.03,5.96
2024-12-06 13:16:09.1,82.12,600.0,-0.01,0.99,-0.02,0.65,1.17,4.01
2024-12-06 13:16:09.10,84.6,593.0,-0.01,0.99,-0.02,0.65,1.17,4.07
2024-12-06 13:16:09.13,84.38,592.0,-0.01,0.99,-0.02,0.59,1.17,4.13
2024-12-06 13:16:09.24,85.05,592.0,-0.01,0.99,-0.02,0.59,1.23,4.13
2024-12-06 13:16:09.39,82.57,592.0,-0.01,0.99,-0.02,0.53,1.41,4.13
2024-12-06 13:16:09.71,86.4,597.0,-0.01,0.99,-0.02,0.53,1.41,4.13
2024-12-06 13:16:09.73,87.75,587.0,-0.01,0.99,-0.02,0.46,1.41,4.19
2024-12-06 13:16:09.76,83.47,594.0,-0.01,0.99,-0.02,0.46,1.41,4.19
2024-12-06 13:16:09.90,85.28,594.0,-0.01,0.99,-0.02,0.4,1.35,4.19
2024-12-06 13:16:09.92,81.45,610.0,-0.01,0.99,-0.02,0.46,1.41,4.13
2024-12-06 13:16:09.97,84.38,595.0,-0.01,0.99,-0.02,0.46,1.41,4.13
2024-12-06 13:16:09.105,87.97,606.0,-0.01,0.99,-0.02,0.46,1.47,4.13
2024-12-06 13:16:09.114,87.97,604.0,-0.01,0.99,-0.02,0.46,1.53,4.19
2024-12-06 13:16:09.121,83.7,590.0,-0.01,0.99,-0.02,0.46,1.53,4.19
2024-12-06 13:16:09.129,85.28,595.0,-0.01,0.99,-0.02,0.53,1.47,4.19
2024-12-06 13:16:09.138,87.07,606.0,-0.01,0.99,-0.02,0.59,1.41,4.13
2024-12-06 13:16:09.150,87.52,605.0,-0.01,0.99,-0.02,0.59,1.35,4.07
2024-12-06 13:16:09.156,86.62,602.0,-0.01,0.99,-0.02,0.59,1.35,4.01
2024-12-06 13:16:09.166,85.28,595.0,-0.01,0.99,-0.02,0.53,1.29,3.89
2024-12-06 13:16:09.171,83.7,616.0,-0.01,0.99,-0.02,0.53,1.29,3.89
2024-12-06 13:16:09.176,82.12,588.0,-0.01,0.99,-0.02,0.59,1.29,3.77
2024-12-06 13:16:09.198,85.95,591.0,-0.01,0.99,-0.02,0.59,1.17,3.77
2024-12-06 13:16:09.203,85.95,589.0,-0.01,0.99,-0.02,0.65,1.11,3.77
2024-12-06 13:16:09.207,85.72,598.0,-0.01,0.99,-0.02,0.65,1.11,3.77
2024-12-06 13:16:09.214,84.15,590.0,-0.01,1.0,-0.02,0.46,0.99,3.89
2024-12-06 13:16:09.221,88.65,600.0,-0.01,1.0,-0.02,0.28,1.05,4.07
2024-12-06 13:16:09.229,85.5,606.0,-0.01,1.0,-0.02,0.28,0.68,4.32
2024-12-06 13:16:09.261,85.95,594.0,-0.01,1.0,-0.03,-0.15,1.72,5.11
2024-12-06 13:16:09.314,85.05,610.0,-0.0,0.98,-0.03,-0.27,3.18,6.45
2024-12-06 13:16:09.323,86.17,582.0,-0.01,0.96,-0.02,0.46,1.84,5.23
2024-12-06 13:16:09.333,85.05,604.0,0.01,0.99,-0.02,0.1,1.84,5.23
2024-12-06 13:16:09.346,85.5,606.0,-0.02,0.98,-0.02,0.1,3.06,4.62
2024-12-06 13:16:09.352,84.6,583.0,-0.02,0.98,-0.02,0.95,1.78,3.58
2024-12-06 13:16:09.465,86.85,588.0,-0.01,0.99,-0.02,0.89,0.99,3.64
2024-12-06 13:16:09.471,85.28,578.0,-0.01,0.99,-0.02,0.89,0.99,3.64
2024-12-06 13:16:09.520,84.38,593.0,-0.01,0.99,-0.02,0.53,1.53,3.46
2024-12-06 13:16:09.524,85.28,582.0,-0.01,0.99,-0.02,0.53,1.53,3.4
2024-12-06 13:16:09.530,84.38,588.0,-0.01,0.99,-0.02,0.46,1.6,3.28
2024-12-06 13:16:09.541,85.95,579.0,-0.01,0.99,-0.02,0.46,1.53,3.28
2024-12-06 13:16:09.549,87.07,582.0,-0.01,0.99,-0.02,0.46,1.53,3.28
2024-12-06 13:16:09.582,80.32,583.0,-0.01,0.99,-0.02,0.34,1.23,3.58
2024-12-06 13:16:09.587,83.47,583.0,-0.01,0.99,-0.02,0.34,1.23,3.58
2024-12-06 13:16:09.593,84.82,587.0,-0.01,0.99,-0.02,0.34,1.17,3.77
2024-12-06 13:16:09.600,82.35,581.0,-0.01,0.99,-0.02,0.34,1.17,3.89
2024-12-06 13:16:09.606,85.72,588.0,-0.01,0.99,-0.02,0.22,1.23,4.07
2024-12-06 13:16:09.615,86.17,632.0,-0.01,0.99,-0.02,0.16,1.23,4.13
2024-12-06 13:16:09.622,83.7,582.0,-0.01,1.0,-0.02,0.16,1.23,4.19
2024-12-06 13:16:09.631,83.92,608.0,-0.01,0.99,-0.02,0.16,1.23,4.19
2024-12-06 13:16:09.642,83.47,586.0,-0.01,0.99,-0.02,0.1,1.23,4.19
2024-12-06 13:16:09.648,82.35,596.0,-0.01,0.99,-0.02,0.1,1.23,4.26
2024-12-06 13:16:09.658,86.4,587.0,-0.01,0.99,-0.02,0.1,1.11,4.26
2024-12-06 13:16:09.667,85.95,579.0,-0.01,0.99,-0.02,0.16,0.86,4.19
2024-12-06 13:16:09.672,85.28,583.0,-0.0,0.99,-0.02,0.16,0.86,4.26
2024-12-06 13:16:09.678,83.47,570.0,-0.0,0.99,-0.02,0.22,0.56,4.26
2024-12-06 13:16:09.687,85.28,579.0,-0.0,0.99,-0.02,0.34,0.37,4.19
2024-12-06 13:16:09.694,81.67,586.0,-0.01,0.99,-0.02,0.46,0.25,4.26
2024-12-06 13:16:09.699,87.97,596.0,-0.01,0.99,-0.02,0.53,0.37,4.32
2024-12-06 13:16:09.709,84.6,582.0,-0.01,0.99,-0.02,0.53,0.56,4.38
2024-12-06 13:16:09.715,85.28,584.0,-0.01,0.99,-0.02,0.53,0.56,4.38
2024-12-06 13:16:10.723,84.15,587.0,-0.0,0.99,-0.02,0.65,1.35,4.01
2024-12-06 13:16:10.764,82.35,567.0,0.01,1.04,-0.01,0.59,1.17,4.5
2024-12-06 13:16:10.777,77.4,565.0,-0.01,1.12,-0.03,-2.77,2.63,13.29
2024-12-06 13:16:10.807,74.7,541.0,0.02,1.1,-0.04,-3.01,3.49,26.11
2024-12-06 13:16:10.833,73.57,531.0,-0.02,0.94,-0.08,-1.85,-3.17,31.9
2024-12-06 13:16:10.874,74.47,542.0,-0.01,0.87,-0.05,-1.0,-4.81,27.69
2024-12-06 13:16:10.899,71.32,527.0,0.03,0.85,0.0,-0.45,0.5,20.98
2024-12-06 13:16:10.915,66.38,521.0,0.04,0.92,0.02,-0.27,10.51,11.03
2024-12-06 13:16:10.944,71.78,524.0,0.08,0.99,0.02,0.28,13.62,2.55
2024-12-06 13:16:10.971,68.4,525.0,0.08,1.01,-0.02,1.87,8.8,-0.99
2024-12-06 13:16:11.0,63.45,514.0,0.06,0.99,-0.04,3.33,0.13,-3.5
2024-12-06 13:16:11.26,63.67,525.0,0.04,1.0,-0.03,4.74,-1.82,-4.11
2024-12-06 13:16:11.53,60.75,515.0,0.0,0.99,-0.03,4.55,0.13,-1.91
2024-12-06 13:16:11.110,67.5,517.0,0.02,0.98,-0.01,3.09,2.39,-0.69
2024-12-06 13:16:11.124,60.97,513.0,0.01,1.0,-0.01,1.01,4.95,2.91
2024-12-06 13:16:11.137,59.4,507.0,0.02,0.98,-0.01,-0.15,6.72,4.44
2024-12-06 13:16:11.163,63.22,495.0,0.04,0.96,-0.01,-0.7,8.92,3.83
2024-12-06 13:16:11.191,60.97,510.0,0.04,0.98,-0.01,-0.7,8.61,2.61
2024-12-06 13:16:11.228,57.15,509.0,0.05,0.99,-0.02,-0.21,6.05,1.2
2024-12-06 13:16:11.247,58.5,495.0,0.05,1.02,-0.02,0.53,3.3,1.75
2024-12-06 13:16:11.278,59.62,507.0,0.04,1.01,-0.03,0.95,1.78,2.55
2024-12-06 13:16:11.338,56.02,504.0,0.03,0.98,-0.02,1.5,1.6,2.42
2024-12-06 13:16:11.341,57.82,496.0,0.03,0.99,-0.02,1.5,2.88,2.49
2024-12-06 13:16:11.356,49.05,485.0,0.01,0.98,-0.03,1.69,3.85,3.22
2024-12-06 13:16:11.384,50.17,493.0,0.03,0.98,-0.02,1.26,5.62,2.61
2024-12-06 13:16:11.413,53.55,509.0,0.02,1.0,-0.03,0.71,7.03,3.95
2024-12-06 13:16:11.445,51.75,495.0,0.03,0.99,-0.02,0.46,6.78,3.83
2024-12-06 13:16:11.550,49.72,505.0,0.03,1.0,-0.03,0.53,6.91,4.87
2024-12-06 13:16:11.552,51.07,498.0,0.05,1.01,-0.03,0.77,7.39,6.39
2024-12-06 13:16:11.577,44.32,477.0,0.02,0.98,-0.03,1.38,5.07,5.23
2024-12-06 13:16:11.603,45.22,480.0,0.05,0.97,-0.01,1.56,5.56,4.5
2024-12-06 13:16:11.630,45.67,476.0,0.02,0.98,-0.02,1.62,6.84,3.77
2024-12-06 13:16:11.669,43.65,468.0,0.05,0.99,-0.02,1.69,7.94,2.73
2024-12-06 13:16:11.686,44.32,495.0,0.04,1.02,-0.03,1.44,7.76,5.41
2024-12-06 13:16:11.713,37.8,491.0,0.0,0.98,-0.04,1.5,5.56,5.66
2024-12-06 13:16:11.754,41.85,483.0,0.03,0.97,-0.02,1.2,7.39,4.13
2024-12-06 13:16:11.781,40.05,481.0,0.02,1.01,-0.03,1.26,9.96,4.5
2024-12-06 13:16:11.795,36.45,477.0,0.0,0.98,-0.03,1.56,7.82,3.58
2024-12-06 13:16:11.823,38.47,477.0,0.03,0.98,-0.03,1.44,7.33,2.55
2024-12-06 13:16:11.850,33.52,483.0,0.03,0.99,-0.02,1.5,9.1,2.61
2024-12-06 13:16:11.891,34.88,485.0,0.04,0.99,-0.02,1.56,10.38,2.73
2024-12-06 13:16:11.908,31.72,485.0,0.03,0.99,-0.03,1.75,11.3,3.16
2024-12-06 13:16:11.941,31.72,474.0,0.02,0.98,-0.03,2.05,10.57,3.1
2024-12-06 13:16:11.964,32.4,478.0,0.03,0.99,-0.03,1.99,11.73,2.3
2024-12-06 13:16:12.12,31.05,485.0,0.03,1.01,-0.04,2.3,13.19,2.73
2024-12-06 13:16:12.48,24.97,479.0,0.01,1.0,-0.04,2.23,13.13,3.83
2024-12-06 13:16:12.51,24.52,480.0,0.03,0.98,-0.02,2.05,13.5,3.03
2024-12-06 13:16:12.72,29.02,477.0,0.0,0.99,-0.04,2.48,14.9,4.38
2024-12-06 13:16:12.118,23.62,469.0,0.03,0.99,-0.03,1.99,15.39,2.67
2024-12-06 13:16:12.127,24.97,484.0,0.04,1.02,-0.03,1.81,16.0,5.66
2024-12-06 13:16:12.155,26.32,459.0,0.03,1.0,-0.02,1.5,16.12,6.45
2024-12-06 13:16:12.182,23.4,461.0,0.04,0.98,-0.03,1.26,17.71,7.18
2024-12-06 13:16:12.210,25.65,456.0,0.01,0.98,-0.03,1.01,20.09,6.64
2024-12-06 13:16:12.250,21.6,462.0,0.06,0.99,-0.02,1.44,18.75,8.28
2024-12-06 13:16:12.265,19.8,447.0,0.05,0.99,-0.02,1.08,16.98,8.77
2024-12-06 13:16:12.302,19.35,446.0,0.06,0.97,-0.02,1.14,16.3,8.04
2024-12-06 13:16:12.338,20.02,462.0,0.07,0.98,-0.02,1.62,17.22,7.25
2024-12-06 13:16:12.347,17.32,455.0,0.07,0.99,-0.04,2.6,17.04,7.67
2024-12-06 13:16:12.377,14.17,458.0,0.05,0.99,-0.04,2.85,14.23,7.43
2024-12-06 13:16:12.404,15.75,475.0,0.06,0.98,-0.04,2.85,11.3,5.05
2024-12-06 13:16:12.432,12.38,476.0,0.05,0.99,-0.04,3.27,10.51,5.23
2024-12-06 13:16:12.461,11.92,477.0,0.04,0.99,-0.04,3.33,10.08,2.85
2024-12-06 13:16:12.492,13.5,448.0,0.06,0.99,-0.05,3.03,10.87,2.85
2024-12-06 13:16:12.592,7.88,467.0,0.03,0.98,-0.04,2.6,11.48,4.32
2024-12-06 13:16:12.600,10.12,439.0,0.07,1.0,-0.05,1.44,13.92,6.64
2024-12-06 13:16:12.604,6.97,444.0,0.05,0.99,-0.03,1.38,14.17,7.98
2024-12-06 13:16:12.628,3.38,448.0,0.08,0.99,-0.03,1.2,15.08,9.69
2024-12-06 13:16:12.652,8.77,448.0,0.07,0.99,-0.03,1.08,13.62,10.24
2024-12-06 13:16:12.679,0.67,434.0,0.07,0.98,-0.03,0.83,12.52,7.92
2024-12-06 13:16:12.707,4.28,448.0,0.12,1.0,-0.03,1.26,10.02,9.44
2024-12-06 13:16:12.734,1.8,453.0,0.09,1.0,-0.03,1.44,8.86,12.62
2024-12-06 13:16:14.48,1.57,451.0,0.1,0.98,-0.03,-0.33,-0.85,3.28
