Timestamp,PosIsDeg,ForceIs,AccX,AccY,AccZ,GyroX,GyroY,GyroZ
2024-12-06 12:39:05.241,-2.92,448.0,0.88,0.45,-0.02,0.22,0.37,-0.91
2024-12-06 12:39:05.269,-5.4,454.0,0.88,0.45,-0.01,0.22,0.43,-0.6
2024-12-06 12:39:05.303,-2.02,444.0,0.88,0.45,-0.02,-0.02,0.31,-0.66
2024-12-06 12:39:05.324,0.22,453.0,0.87,0.45,-0.01,-0.08,-0.06,-0.97
2024-12-06 12:39:05.351,-4.5,459.0,0.87,0.45,-0.01,0.04,0.37,-1.39
2024-12-06 12:39:05.389,1.8,454.0,0.85,0.45,-0.02,0.34,-0.91,-3.65
2024-12-06 12:39:05.416,-4.05,473.0,0.83,0.44,0.0,0.16,-0.85,-8.41
2024-12-06 12:39:05.436,-0.67,454.0,0.82,0.44,-0.02,0.59,0.37,-11.4
2024-12-06 12:39:05.468,7.2,471.0,0.87,0.47,-0.02,0.71,0.62,-10.79
2024-12-06 12:39:05.513,8.32,486.0,0.87,0.47,-0.03,2.36,3.12,-9.82
2024-12-06 12:39:05.525,5.85,473.0,0.9,0.48,-0.01,1.26,1.23,-9.33
2024-12-06 12:39:05.544,10.12,478.0,0.91,0.49,-0.03,1.2,-0.06,-8.96
2024-12-06 12:39:05.573,11.47,457.0,0.9,0.5,-0.02,1.75,-0.24,-5.85
2024-12-06 12:39:05.614,10.57,469.0,0.83,0.49,-0.02,1.38,0.55,-5.54
2024-12-06 12:39:05.634,7.42,467.0,0.88,0.49,-0.01,1.44,-0.12,-6.28
2024-12-06 12:39:05.686,11.02,466.0,0.88,0.51,-0.02,2.17,0.62,-4.93
2024-12-06 12:39:05.689,11.7,457.0,0.87,0.5,-0.03,2.66,0.13,-4.75
2024-12-06 12:39:05.729,9.22,469.0,0.83,0.48,-0.03,1.44,-2.56,-7.92
2024-12-06 12:39:05.738,11.92,517.0,0.81,0.47,0.0,-0.27,-1.03,-10.61
2024-12-06 12:39:05.765,15.07,462.0,0.83,0.49,-0.01,1.01,2.14,-8.96
2024-12-06 12:39:05.797,15.75,462.0,0.82,0.48,-0.04,2.11,2.87,-10.49
2024-12-06 12:39:05.822,19.12,457.0,0.84,0.5,-0.06,1.38,-1.22,-13.11
2024-12-06 12:39:05.851,20.25,476.0,0.82,0.51,-0.02,0.16,-2.74,-16.77
2024-12-06 12:39:05.880,20.25,456.0,0.84,0.51,-0.01,0.83,2.39,-19.46
2024-12-06 12:39:05.905,19.57,466.0,0.83,0.56,-0.02,1.75,4.28,-18.42
2024-12-06 12:39:05.954,18.9,467.0,0.83,0.56,-0.03,1.99,2.57,-14.21
2024-12-06 12:39:05.998,21.6,482.0,0.83,0.58,-0.04,3.21,1.96,-15.07
2024-12-06 12:39:06.16,20.48,473.0,0.81,0.58,-0.05,4.25,1.65,-14.82
2024-12-06 12:39:06.45,23.85,482.0,0.79,0.59,-0.05,4.74,1.77,-14.58
2024-12-06 12:39:06.81,28.12,484.0,0.81,0.59,-0.03,5.04,3.36,-14.09
2024-12-06 12:39:06.195,26.55,477.0,0.8,0.59,-0.04,5.9,3.67,-13.42
2024-12-06 12:39:06.199,28.57,464.0,0.83,0.62,-0.04,6.02,4.7,-8.41
2024-12-06 12:39:06.216,28.35,492.0,0.81,0.59,-0.02,5.35,2.57,-8.17
2024-12-06 12:39:06.237,33.75,503.0,0.8,0.59,0.0,4.07,1.96,-9.33
2024-12-06 12:39:06.267,33.08,507.0,0.78,0.6,-0.01,3.52,1.59,-9.14
2024-12-06 12:39:06.292,30.6,491.0,0.83,0.53,-0.0,2.42,4.77,-12.75
2024-12-06 12:39:06.319,34.65,498.0,0.77,0.61,-0.04,-0.02,3.91,-12.14
2024-12-06 12:39:06.346,34.88,490.0,0.73,0.61,-0.03,0.47,-0.24,-9.57
2024-12-06 12:39:06.375,39.15,494.0,0.77,0.61,0.04,-0.21,-0.48,-10.55
2024-12-06 12:39:06.411,35.1,518.0,0.74,0.63,0.0,-0.69,3.3,-9.39
2024-12-06 12:39:06.429,35.77,497.0,0.79,0.62,-0.03,0.47,2.63,-11.53
2024-12-06 12:39:06.457,39.38,503.0,0.79,0.62,-0.03,-0.69,-0.85,-10.73
2024-12-06 12:39:06.485,43.2,501.0,0.77,0.64,-0.03,-1.67,-3.78,-11.34
2024-12-06 12:39:06.513,41.85,521.0,0.76,0.65,-0.0,-1.61,-2.56,-10.91
2024-12-06 12:39:06.544,39.15,513.0,0.74,0.63,-0.02,-0.76,0.19,-10.0
2024-12-06 12:39:06.568,38.92,535.0,0.77,0.64,-0.03,-0.82,-0.24,-9.33
2024-12-06 12:39:06.602,42.52,509.0,0.77,0.63,-0.02,-2.1,-2.38,-8.72
2024-12-06 12:39:06.650,51.3,510.0,0.76,0.64,-0.03,-2.1,-4.39,-9.39
2024-12-06 12:39:06.655,44.1,505.0,0.76,0.66,-0.0,-1.98,-3.47,-8.84
2024-12-06 12:39:06.678,47.25,529.0,0.75,0.66,-0.0,-2.95,-2.44,-7.62
2024-12-06 12:39:06.706,47.47,512.0,0.75,0.66,-0.03,-2.83,-3.54,-7.31
2024-12-06 12:39:06.740,49.72,532.0,0.74,0.66,-0.03,-3.14,-4.82,-6.7
2024-12-06 12:39:06.763,51.97,522.0,0.73,0.66,-0.03,-3.38,-5.24,-7.19
2024-12-06 12:39:06.792,50.85,528.0,0.72,0.67,-0.03,-2.71,-3.6,-6.22
2024-12-06 12:39:06.816,52.65,553.0,0.74,0.68,-0.01,-3.5,-2.86,-5.97
2024-12-06 12:39:06.856,54.45,522.0,0.73,0.68,-0.03,-4.3,-2.86,-5.48
2024-12-06 12:39:06.872,55.8,521.0,0.71,0.67,-0.03,-4.6,-4.63,-6.22
2024-12-06 12:39:06.911,51.07,541.0,0.72,0.69,-0.02,-5.15,-5.06,-7.13
2024-12-06 12:39:06.928,56.92,532.0,0.7,0.68,-0.03,-4.91,-5.18,-7.31
2024-12-06 12:39:06.955,54.22,533.0,0.7,0.69,-0.03,-4.84,-5.24,-7.68
2024-12-06 12:39:06.988,59.62,540.0,0.7,0.69,-0.04,-4.78,-4.39,-6.76
2024-12-06 12:39:07.11,59.62,552.0,0.7,0.7,-0.05,-4.23,-5.79,-8.29
2024-12-06 12:39:07.45,50.17,540.0,0.72,0.69,-0.04,-2.65,-7.2,-7.56
2024-12-06 12:39:07.80,58.27,534.0,0.71,0.69,-0.02,-2.34,-5.67,-6.58
2024-12-06 12:39:07.96,65.25,543.0,0.71,0.7,-0.02,-1.67,-4.15,-7.44
2024-12-06 12:39:07.124,67.05,555.0,0.72,0.71,-0.04,-1.24,-3.54,-4.69
2024-12-06 12:39:07.150,63.45,549.0,0.7,0.69,-0.03,-1.98,-4.76,-4.87
2024-12-06 12:39:07.261,65.25,546.0,0.68,0.67,-0.02,-2.46,-1.34,-6.28
2024-12-06 12:39:07.263,63.0,553.0,0.69,0.72,-0.03,-3.38,-1.52,-6.46
2024-12-06 12:39:07.287,66.38,549.0,0.68,0.7,-0.04,-2.71,-2.19,-7.62
2024-12-06 12:39:07.316,61.65,548.0,0.69,0.71,-0.03,-2.77,-2.99,-7.56
2024-12-06 12:39:07.355,65.47,547.0,0.68,0.73,-0.03,-2.59,-2.62,-6.4
2024-12-06 12:39:07.372,73.57,573.0,0.68,0.71,-0.03,-1.79,-1.77,-6.34
2024-12-06 12:39:07.401,67.72,559.0,0.7,0.73,-0.02,-1.61,-2.25,-6.09
2024-12-06 12:39:07.425,69.75,585.0,0.67,0.74,-0.03,-1.92,-1.52,-6.52
2024-12-06 12:39:07.455,73.12,563.0,0.68,0.73,-0.03,-2.34,-2.74,-6.34
2024-12-06 12:39:07.487,73.35,578.0,0.66,0.73,-0.04,-3.01,-2.8,-4.26
2024-12-06 12:39:07.534,72.22,566.0,0.71,0.69,-0.03,-3.26,-3.96,-5.42
2024-12-06 12:39:07.538,75.6,571.0,0.71,0.74,-0.03,-4.6,-2.86,-8.17
2024-12-06 12:39:07.565,76.72,582.0,0.61,0.75,-0.02,-4.3,-6.89,-5.54
2024-12-06 12:39:07.592,77.17,579.0,0.65,0.73,0.02,-4.05,-5.12,-4.26
2024-12-06 12:39:07.619,75.82,590.0,0.63,0.74,-0.03,-5.03,-3.17,-3.65
2024-12-06 12:39:07.647,77.4,608.0,0.67,0.72,-0.04,-5.76,-2.44,-4.02
2024-12-06 12:39:07.675,76.5,597.0,0.67,0.75,-0.02,-4.97,-4.21,-4.2
2024-12-06 12:39:07.702,81.67,564.0,0.65,0.75,-0.04,-5.09,-5.12,-5.18
2024-12-06 12:39:09.14,84.15,625.0,0.72,0.69,-0.04,2.3,-1.22,3.49
2024-12-06 12:39:09.20,85.72,611.0,0.72,0.69,-0.04,2.3,-1.22,3.49
2024-12-06 12:39:09.26,83.92,628.0,0.72,0.69,-0.04,2.54,-1.09,3.55
2024-12-06 12:39:09.34,85.95,611.0,0.72,0.69,-0.05,2.78,-1.03,3.67
2024-12-06 12:39:09.46,86.62,618.0,0.72,0.69,-0.05,3.03,-0.91,3.79
2024-12-06 12:39:09.52,83.25,619.0,0.72,0.69,-0.05,3.33,-1.03,3.98
2024-12-06 12:39:09.62,87.07,623.0,0.73,0.69,-0.05,3.58,-1.09,4.04
2024-12-06 12:39:09.70,86.4,605.0,0.73,0.68,-0.05,3.58,-1.09,4.04
2024-12-06 12:39:09.74,88.2,632.0,0.73,0.69,-0.05,3.7,-1.09,4.1
2024-12-06 12:39:09.83,84.82,616.0,0.73,0.69,-0.04,3.76,-0.97,4.22
2024-12-06 12:39:09.118,83.7,618.0,0.73,0.69,-0.04,3.88,-0.79,4.28
2024-12-06 12:39:09.124,86.17,624.0,0.73,0.67,-0.05,4.49,-1.28,4.71
2024-12-06 12:39:09.129,81.67,625.0,0.73,0.67,-0.05,4.55,-1.28,4.83
2024-12-06 12:39:09.136,83.7,609.0,0.73,0.67,-0.05,4.62,-1.4,4.89
2024-12-06 12:39:09.144,85.72,614.0,0.73,0.67,-0.05,4.49,-1.46,4.89
2024-12-06 12:39:09.154,85.5,598.0,0.74,0.67,-0.04,4.49,-1.46,4.83
2024-12-06 12:39:09.160,84.38,615.0,0.74,0.67,-0.04,4.43,-1.64,4.83
2024-12-06 12:39:09.168,85.05,622.0,0.74,0.66,-0.04,4.43,-1.77,4.71
2024-12-06 12:39:09.178,88.42,645.0,0.74,0.66,-0.05,4.49,-1.83,4.59
2024-12-06 12:39:09.184,86.85,598.0,0.74,0.66,-0.05,4.62,-1.89,4.4
2024-12-06 12:39:09.196,88.65,604.0,0.74,0.66,-0.05,4.55,-2.01,4.16
2024-12-06 12:39:09.199,86.4,622.0,0.74,0.65,-0.05,4.55,-2.01,4.16
2024-12-06 12:39:09.207,83.25,604.0,0.74,0.65,-0.05,4.37,-2.13,4.04
2024-12-06 12:39:09.222,82.8,601.0,0.74,0.65,-0.05,4.19,-1.83,4.1
2024-12-06 12:39:09.225,89.77,617.0,0.74,0.65,-0.05,4.01,-1.58,4.28
2024-12-06 12:39:09.230,84.6,622.0,0.74,0.65,-0.05,3.94,-1.95,4.47
2024-12-06 12:39:09.242,87.3,610.0,0.73,0.65,-0.05,3.94,-2.19,4.59
2024-12-06 12:39:09.250,84.6,600.0,0.73,0.64,-0.06,3.94,-2.19,4.59
2024-12-06 12:39:09.355,86.17,634.0,0.75,0.64,-0.06,2.6,-0.67,5.44
2024-12-06 12:39:09.359,87.97,627.0,0.75,0.64,-0.06,2.6,-0.67,5.44
2024-12-06 12:39:09.368,86.62,626.0,0.75,0.64,-0.06,2.6,-0.54,5.44
2024-12-06 12:39:09.383,85.72,593.0,0.75,0.64,-0.06,2.72,-0.42,5.5
2024-12-06 12:39:09.388,83.25,622.0,0.75,0.64,-0.07,2.78,-0.3,5.56
2024-12-06 12:39:09.391,84.82,629.0,0.75,0.64,-0.07,2.85,-0.06,5.69
2024-12-06 12:39:09.400,86.4,616.0,0.75,0.64,-0.07,2.85,0.37,5.81
2024-12-06 12:39:09.409,85.28,611.0,0.76,0.64,-0.06,2.85,0.55,5.99
2024-12-06 12:39:09.415,83.25,611.0,0.76,0.64,-0.06,2.78,0.55,5.99
2024-12-06 12:39:09.423,88.42,610.0,0.76,0.64,-0.07,2.85,0.55,6.11
2024-12-06 12:39:09.431,84.6,622.0,0.76,0.64,-0.07,3.03,0.62,6.3
2024-12-06 12:39:09.439,85.72,621.0,0.76,0.64,-0.08,3.33,0.55,6.48
2024-12-06 12:39:09.448,82.35,609.0,0.76,0.64,-0.08,3.58,0.49,6.66
2024-12-06 12:39:09.456,86.62,620.0,0.76,0.64,-0.08,3.58,0.68,6.79
2024-12-06 12:39:09.462,87.3,598.0,0.76,0.64,-0.08,3.76,0.68,6.79
2024-12-06 12:39:09.470,87.52,611.0,0.77,0.63,-0.07,3.82,0.8,6.91
2024-12-06 12:39:09.483,83.25,604.0,0.77,0.63,-0.07,3.94,0.86,7.21
2024-12-06 12:39:09.488,87.3,611.0,0.76,0.63,-0.07,4.13,0.98,7.46
2024-12-06 12:39:09.493,84.6,610.0,0.76,0.63,-0.07,4.25,0.98,7.7
2024-12-06 12:39:09.504,87.07,624.0,0.76,0.63,-0.07,4.43,1.04,7.88
2024-12-06 12:39:09.509,85.72,623.0,0.76,0.63,-0.07,4.43,1.04,7.88
2024-12-06 12:39:09.517,84.15,609.0,0.76,0.63,-0.07,4.55,1.29,8.13
2024-12-06 12:39:09.526,84.82,610.0,0.76,0.63,-0.07,4.62,1.71,8.31
2024-12-06 12:39:09.533,87.3,604.0,0.77,0.63,-0.07,4.68,2.02,8.43
2024-12-06 12:39:09.584,88.2,607.0,0.77,0.62,-0.07,4.74,2.02,7.95
2024-12-06 12:39:09.587,84.82,601.0,0.77,0.61,-0.07,4.74,2.02,7.95
2024-12-06 12:39:09.596,86.62,623.0,0.77,0.61,-0.07,4.62,1.71,7.64
2024-12-06 12:39:09.602,85.28,610.0,0.77,0.61,-0.07,4.49,1.47,7.27
2024-12-06 12:39:09.617,85.95,621.0,0.77,0.6,-0.06,4.43,1.16,6.91
2024-12-06 12:39:09.620,84.6,630.0,0.77,0.6,-0.07,4.31,0.86,6.72
2024-12-06 12:39:09.629,88.88,609.0,0.77,0.6,-0.07,4.19,0.74,6.6
2024-12-06 12:39:09.635,86.17,601.0,0.77,0.6,-0.07,4.19,0.68,6.48
2024-12-06 12:39:09.641,86.4,602.0,0.77,0.6,-0.07,4.13,0.68,6.48
2024-12-06 12:39:09.649,83.92,620.0,0.77,0.6,-0.07,4.07,0.74,6.42
2024-12-06 12:39:09.657,88.88,619.0,0.77,0.6,-0.07,3.94,0.8,6.42
2024-12-06 12:39:09.665,89.77,625.0,0.77,0.6,-0.07,3.94,0.92,6.36
2024-12-06 12:39:09.672,88.65,624.0,0.77,0.6,-0.07,3.88,1.1,6.36
2024-12-06 12:39:09.680,87.07,612.0,0.77,0.6,-0.07,3.88,1.16,6.42
2024-12-06 12:39:09.689,86.17,614.0,0.78,0.6,-0.07,3.76,1.16,6.42
2024-12-06 12:39:09.699,83.7,623.0,0.78,0.6,-0.07,3.64,1.1,6.48
2024-12-06 12:39:09.715,87.3,633.0,0.78,0.6,-0.07,3.46,1.04,6.48
2024-12-06 12:39:09.719,87.07,608.0,0.79,0.6,-0.07,3.33,0.86,6.54
2024-12-06 12:39:09.723,87.3,602.0,0.79,0.6,-0.07,3.27,0.49,6.48
2024-12-06 12:39:09.729,85.95,613.0,0.79,0.59,-0.07,3.27,0.49,6.48
2024-12-06 12:39:09.736,87.07,610.0,0.79,0.59,-0.07,3.21,0.25,6.3
2024-12-06 12:39:09.745,83.7,605.0,0.79,0.59,-0.07,3.03,0.13,5.93
2024-12-06 12:39:09.755,84.6,606.0,0.79,0.59,-0.07,2.85,0.13,5.69
2024-12-06 12:39:09.759,86.62,620.0,0.79,0.59,-0.07,2.78,0.13,5.63
2024-12-06 12:39:09.768,83.92,624.0,0.79,0.59,-0.07,2.78,0.13,5.56
2024-12-06 12:39:09.782,83.7,615.0,0.79,0.59,-0.07,2.78,0.13,5.56
2024-12-06 12:39:09.794,87.07,630.0,0.78,0.59,-0.06,2.6,0.62,5.56
2024-12-06 12:39:09.812,86.62,611.0,0.78,0.59,-0.06,2.54,0.98,5.69
2024-12-06 12:39:09.817,86.85,630.0,0.79,0.59,-0.07,2.54,1.23,5.81
2024-12-06 12:39:09.827,84.15,605.0,0.79,0.59,-0.07,2.48,1.23,5.81
2024-12-06 12:39:09.829,85.95,624.0,0.79,0.59,-0.07,2.48,1.04,5.87
2024-12-06 12:39:09.835,88.42,607.0,0.79,0.59,-0.08,2.54,0.86,5.87
2024-12-06 12:39:09.844,86.62,625.0,0.79,0.59,-0.08,2.48,0.8,5.81
2024-12-06 12:39:09.886,84.15,613.0,0.8,0.58,-0.07,2.24,0.37,5.14
2024-12-06 12:39:09.891,86.4,622.0,0.8,0.58,-0.07,2.3,0.25,4.95
2024-12-06 12:39:09.896,82.35,630.0,0.79,0.57,-0.07,2.3,0.25,4.95
2024-12-06 12:39:09.905,88.42,626.0,0.8,0.58,-0.07,2.24,0.25,4.83
2024-12-06 12:39:09.913,88.2,626.0,0.8,0.58,-0.07,2.17,0.25,4.77
2024-12-06 12:39:09.921,89.1,609.0,0.79,0.58,-0.07,2.17,0.31,4.59
2024-12-06 12:39:09.929,90.45,602.0,0.79,0.58,-0.07,2.11,0.25,4.4
2024-12-06 12:39:09.944,87.3,612.0,0.79,0.58,-0.07,2.11,0.19,4.22
2024-12-06 12:39:09.948,88.88,608.0,0.79,0.58,-0.08,2.11,0.19,4.22
2024-12-06 12:39:09.952,87.07,612.0,0.79,0.57,-0.08,2.05,0.19,3.98
2024-12-06 12:39:09.965,86.62,611.0,0.8,0.57,-0.07,1.93,0.25,3.79
2024-12-06 12:39:09.970,85.05,604.0,0.8,0.57,-0.07,1.81,0.13,3.67
2024-12-06 12:39:09.976,86.85,606.0,0.8,0.57,-0.07,1.62,0.07,3.61
2024-12-06 12:39:09.984,82.57,619.0,0.8,0.57,-0.07,1.44,0.07,3.49
2024-12-06 12:39:09.993,86.85,613.0,0.8,0.56,-0.07,1.44,0.07,3.49
2024-12-06 12:39:10.34,87.52,603.0,0.79,0.56,-0.08,1.75,0.13,2.21
2024-12-06 12:39:10.37,86.4,617.0,0.79,0.56,-0.09,1.75,0.0,1.78
2024-12-06 12:39:10.45,83.47,610.0,0.78,0.57,-0.08,1.62,0.13,1.35
2024-12-06 12:39:10.54,84.82,612.0,0.79,0.57,-0.08,1.44,0.25,0.99
2024-12-06 12:39:10.67,86.17,611.0,0.79,0.57,-0.08,1.2,0.43,0.8
2024-12-06 12:39:10.69,84.82,627.0,0.79,0.57,-0.08,0.95,0.43,0.8
2024-12-06 12:39:10.77,90.9,626.0,0.79,0.57,-0.07,0.95,0.43,0.86
2024-12-06 12:39:10.87,79.88,622.0,0.8,0.57,-0.08,0.83,0.49,0.86
2024-12-06 12:39:10.93,85.72,619.0,0.8,0.57,-0.08,0.77,0.55,1.05
2024-12-06 12:39:10.100,82.12,625.0,0.81,0.57,-0.08,0.77,0.62,1.17
2024-12-06 12:39:10.112,85.72,619.0,0.81,0.57,-0.08,0.77,0.68,1.23
2024-12-06 12:39:10.121,86.85,620.0,0.81,0.57,-0.08,0.83,0.62,1.35
2024-12-06 12:39:10.128,84.82,622.0,0.81,0.57,-0.08,0.83,0.62,1.35
2024-12-06 12:39:10.134,85.95,619.0,0.82,0.57,-0.08,0.83,0.49,1.41
2024-12-06 12:39:10.140,88.88,626.0,0.83,0.57,-0.08,0.77,0.37,1.6
2024-12-06 12:39:10.148,82.8,607.0,0.83,0.57,-0.08,0.65,0.25,1.84
2024-12-06 12:39:10.162,87.07,636.0,0.83,0.57,-0.07,0.47,0.13,2.09
2024-12-06 12:39:10.164,85.28,618.0,0.83,0.57,-0.07,0.4,0.13,2.39
2024-12-06 12:39:10.171,84.38,617.0,0.83,0.56,-0.07,0.4,0.13,2.39
2024-12-06 12:39:10.179,86.85,608.0,0.83,0.56,-0.08,0.4,0.07,2.7
2024-12-06 12:39:10.189,87.07,616.0,0.83,0.56,-0.08,0.53,0.0,3.12
2024-12-06 12:39:10.202,83.25,581.0,0.83,0.56,-0.08,0.59,-0.06,3.43
2024-12-06 12:39:10.208,85.95,630.0,0.83,0.56,-0.08,0.53,0.0,3.67
2024-12-06 12:39:10.212,87.07,622.0,0.83,0.56,-0.08,0.28,-0.18,3.67
2024-12-06 12:39:10.218,84.15,615.0,0.82,0.56,-0.08,0.28,-0.18,3.67
2024-12-06 12:39:10.250,83.7,623.0,0.81,0.56,-0.09,1.01,-0.06,4.83
2024-12-06 12:39:10.253,87.75,605.0,0.81,0.56,-0.09,0.83,0.49,4.59
2024-12-06 12:39:10.256,87.07,610.0,0.79,0.54,-0.1,0.83,0.49,3.98
2024-12-06 12:39:10.264,85.72,608.0,0.79,0.55,-0.09,1.5,0.07,3.98
2024-12-06 12:39:10.273,83.03,606.0,0.79,0.55,-0.09,1.26,-0.36,3.12
2024-12-06 12:39:10.280,87.97,616.0,0.79,0.55,-0.09,1.26,-0.12,2.15
2024-12-06 12:39:10.290,82.8,613.0,0.78,0.55,-0.08,1.01,-0.24,1.17
2024-12-06 12:39:10.302,84.15,612.0,0.78,0.55,-0.08,0.77,-0.06,0.44
2024-12-06 12:39:10.408,83.25,614.0,0.8,0.55,-0.07,-0.27,-0.79,-3.53
2024-12-06 12:39:10.423,85.5,604.0,0.8,0.56,-0.08,-0.27,-0.79,-3.53
2024-12-06 12:39:10.429,88.88,650.0,0.8,0.55,-0.08,-0.27,-0.79,-3.71
2024-12-06 12:39:10.432,86.4,625.0,0.8,0.55,-0.08,-0.33,-0.85,-4.02
2024-12-06 12:39:10.440,86.17,625.0,0.79,0.55,-0.08,-0.57,-0.73,-4.51
2024-12-06 12:39:10.474,84.6,612.0,0.79,0.56,-0.07,-1.49,0.07,-5.48
2024-12-06 12:39:10.479,90.45,618.0,0.8,0.56,-0.06,-1.79,0.31,-5.6
2024-12-06 12:39:10.489,87.52,631.0,0.8,0.56,-0.06,-1.98,0.37,-5.54
2024-12-06 12:39:10.496,88.65,630.0,0.8,0.56,-0.06,-2.16,0.31,-5.42
2024-12-06 12:39:10.505,83.47,618.0,0.81,0.56,-0.07,-2.16,-0.06,-5.24
2024-12-06 12:39:10.510,87.07,629.0,0.82,0.55,-0.08,-2.16,-0.06,-5.24
2024-12-06 12:39:10.521,86.4,637.0,0.82,0.55,-0.08,-2.22,-0.54,-5.12
2024-12-06 12:39:10.533,88.42,603.0,0.81,0.55,-0.09,-2.4,-0.97,-5.24
2024-12-06 12:39:10.535,85.72,604.0,0.81,0.55,-0.08,-2.71,-1.15,-5.6
2024-12-06 12:39:10.540,86.62,624.0,0.81,0.55,-0.08,-3.07,-1.52,-5.97
2024-12-06 12:39:10.548,83.25,609.0,0.81,0.55,-0.08,-3.07,-1.52,-5.97
2024-12-06 12:39:10.556,86.4,617.0,0.81,0.55,-0.07,-3.56,-1.64,-6.28
2024-12-06 12:39:10.565,86.17,621.0,0.81,0.56,-0.06,-3.93,-1.52,-6.46
2024-12-06 12:39:10.579,86.17,629.0,0.81,0.56,-0.06,-4.05,-1.34,-6.46
2024-12-06 12:39:10.583,86.85,628.0,0.81,0.56,-0.09,-3.93,-1.15,-6.34
2024-12-06 12:39:10.587,85.95,629.0,0.81,0.56,-0.06,-3.69,-1.15,-6.09
2024-12-06 12:39:10.594,81.45,613.0,0.81,0.56,-0.07,-3.69,-1.15,-6.09
2024-12-06 12:39:10.603,83.92,631.0,0.81,0.56,-0.08,-3.56,-1.22,-5.91
2024-12-06 12:39:10.616,85.72,631.0,0.81,0.55,-0.08,-3.5,-1.4,-5.6
2024-12-06 12:39:10.618,87.3,621.0,0.81,0.56,-0.09,-3.56,-1.64,-5.36
2024-12-06 12:39:10.628,85.95,629.0,0.81,0.56,-0.09,-3.62,-1.95,-5.18
2024-12-06 12:39:10.636,86.85,634.0,0.81,0.56,-0.09,-3.81,-2.38,-5.24
2024-12-06 12:39:10.642,86.85,613.0,0.81,0.56,-0.09,-3.81,-2.38,-5.24
2024-12-06 12:39:10.653,87.75,615.0,0.81,0.57,-0.08,-3.93,-2.68,-5.36
2024-12-06 12:39:10.659,86.62,647.0,0.8,0.57,-0.08,-3.93,-2.92,-5.54
2024-12-06 12:39:10.667,85.95,633.0,0.79,0.58,-0.08,-3.87,-2.74,-5.91
2024-12-06 12:39:10.701,85.95,634.0,0.79,0.58,-0.06,-3.56,-1.89,-7.13
2024-12-06 12:39:10.710,86.62,632.0,0.79,0.58,-0.07,-3.62,-1.4,-7.19
2024-12-06 12:39:10.714,87.75,646.0,0.79,0.58,-0.07,-3.75,-1.03,-7.13
2024-12-06 12:39:10.719,84.82,640.0,0.79,0.58,-0.07,-3.75,-0.73,-7.07
2024-12-06 12:39:10.734,85.5,627.0,0.79,0.58,-0.08,-3.69,-0.73,-7.07
2024-12-06 12:39:10.739,86.62,621.0,0.79,0.58,-0.08,-3.62,-0.61,-6.89
2024-12-06 12:39:10.747,84.6,616.0,0.8,0.58,-0.07,-3.69,-0.61,-6.83
2024-12-06 12:39:10.756,81.67,621.0,0.8,0.59,-0.07,-3.81,-0.42,-6.64
2024-12-06 12:39:10.766,87.75,631.0,0.8,0.59,-0.07,-3.87,-0.24,-6.46
2024-12-06 12:39:10.769,86.4,622.0,0.81,0.59,-0.07,-3.87,-0.24,-6.15
2024-12-06 12:39:10.774,87.3,643.0,0.81,0.59,-0.07,-3.69,-0.24,-6.15
2024-12-06 12:39:10.787,86.17,620.0,0.81,0.59,-0.08,-3.38,-0.24,-5.91
2024-12-06 12:39:10.790,85.72,611.0,0.81,0.6,-0.08,-3.07,-0.3,-5.67
2024-12-06 12:39:10.802,86.62,625.0,0.81,0.6,-0.08,-2.77,-0.3,-5.48
2024-12-06 12:39:10.811,87.75,629.0,0.81,0.6,-0.08,-2.4,-0.3,-5.42
2024-12-06 12:39:10.813,85.5,634.0,0.81,0.6,-0.08,-2.4,-0.3,-5.42
2024-12-06 12:39:10.822,88.2,611.0,0.81,0.59,-0.08,-2.16,-0.18,-5.3
2024-12-06 12:39:10.831,86.85,618.0,0.8,0.59,-0.09,-1.98,-0.12,-5.18
2024-12-06 12:39:10.837,81.45,612.0,0.79,0.59,-0.09,-1.61,-0.18,-5.12
2024-12-06 12:39:10.846,83.47,614.0,0.78,0.6,-0.09,-1.24,-0.3,-5.18
2024-12-06 12:39:10.857,81.0,630.0,0.78,0.6,-0.09,-0.88,-0.54,-5.36
2024-12-06 12:39:10.867,81.9,620.0,0.77,0.6,-0.09,-0.82,-0.54,-5.73
2024-12-06 12:39:10.870,83.47,616.0,0.76,0.6,-0.09,-0.82,-0.54,-5.73
2024-12-06 12:39:10.878,84.15,622.0,0.76,0.6,-0.08,-1.0,-0.24,-6.09
2024-12-06 12:39:10.889,82.57,616.0,0.77,0.61,-0.07,-1.12,0.31,-6.34
2024-12-06 12:39:10.895,84.6,620.0,0.77,0.61,-0.06,-1.12,0.92,-6.4
2024-12-06 12:39:10.926,87.07,601.0,0.78,0.62,-0.07,-0.33,3.0,-6.03
2024-12-06 12:39:10.935,86.85,612.0,0.78,0.62,-0.07,0.04,3.79,-5.97
2024-12-06 12:39:10.945,81.67,609.0,0.78,0.62,-0.08,0.53,4.28,-5.97
2024-12-06 12:39:10.949,85.05,602.0,0.78,0.62,-0.08,0.89,4.46,-6.03
2024-12-06 12:39:10.955,83.47,594.0,0.78,0.61,-0.08,0.89,4.46,-6.28
2024-12-06 12:39:10.965,87.3,583.0,0.78,0.61,-0.08,1.5,4.52,-6.28
2024-12-06 12:39:10.970,86.85,592.0,0.78,0.61,-0.08,2.3,4.52,-6.4
2024-12-06 12:39:10.979,85.72,587.0,0.78,0.6,-0.08,2.91,4.64,-6.52
2024-12-06 12:39:10.994,87.52,588.0,0.78,0.6,-0.08,3.33,4.46,-6.52
2024-12-06 12:39:10.996,83.92,591.0,0.78,0.6,-0.08,3.39,4.4,-6.34
2024-12-06 12:39:11.2,83.47,587.0,0.78,0.6,-0.08,3.39,4.4,-6.34
2024-12-06 12:39:11.9,83.25,579.0,0.78,0.6,-0.08,3.21,4.52,-6.03
2024-12-06 12:39:11.23,88.65,576.0,0.78,0.61,-0.07,3.03,4.52,-5.67
2024-12-06 12:39:11.24,84.6,575.0,0.78,0.61,-0.07,3.15,4.7,-5.18
2024-12-06 12:39:11.33,86.4,576.0,0.78,0.61,-0.07,3.27,4.89,-4.75
2024-12-06 12:39:11.41,83.25,582.0,0.78,0.61,-0.07,3.52,5.07,-4.38
2024-12-06 12:39:11.52,83.7,574.0,0.78,0.61,-0.08,3.52,5.07,-4.38
2024-12-06 12:39:11.58,87.07,567.0,0.77,0.61,-0.08,3.82,5.44,-4.26
2024-12-06 12:39:11.68,85.72,591.0,0.77,0.6,-0.08,4.19,5.68,-4.32
2024-12-06 12:39:11.76,87.07,565.0,0.77,0.6,-0.08,4.37,5.74,-4.51
2024-12-06 12:39:11.85,87.97,585.0,0.77,0.6,-0.08,4.43,5.74,-4.75
2024-12-06 12:39:11.95,84.82,560.0,0.77,0.6,-0.08,4.49,5.93,-5.12
2024-12-06 12:39:11.99,86.62,570.0,0.77,0.6,-0.08,4.49,5.93,-5.12
2024-12-06 12:39:11.110,87.07,560.0,0.77,0.6,-0.07,4.37,5.86,-5.48
2024-12-06 12:39:11.113,85.72,559.0,0.77,0.6,-0.07,4.31,6.17,-5.79
2024-12-06 12:39:11.121,89.32,554.0,0.77,0.59,-0.06,4.31,6.54,-5.91
2024-12-06 12:39:11.155,86.85,553.0,0.77,0.6,-0.06,4.43,7.21,-6.28
2024-12-06 12:39:11.158,85.72,546.0,0.76,0.6,-0.06,4.55,8.43,-5.79
2024-12-06 12:39:11.167,85.05,563.0,0.76,0.6,-0.06,4.62,9.65,-5.85
2024-12-06 12:39:11.173,85.95,542.0,0.76,0.6,-0.05,4.49,9.47,-5.91
2024-12-06 12:39:11.181,86.17,543.0,0.77,0.61,-0.04,4.49,9.47,-5.91
2024-12-06 12:39:11.191,89.32,532.0,0.77,0.62,-0.05,4.07,8.79,-5.79
2024-12-06 12:39:11.198,82.8,556.0,0.77,0.62,-0.06,3.52,9.1,-5.54
2024-12-06 12:39:11.204,82.8,541.0,0.77,0.62,-0.05,3.33,9.04,-5.36
2024-12-06 12:39:11.212,85.05,543.0,0.77,0.62,-0.04,3.27,8.49,-5.3
2024-12-06 12:39:11.222,89.1,556.0,0.78,0.62,-0.04,3.21,8.12,-5.18
2024-12-06 12:39:11.228,84.15,538.0,0.78,0.62,-0.05,3.21,8.12,-5.18
2024-12-06 12:39:11.236,86.85,544.0,0.78,0.63,-0.05,3.09,7.88,-4.93
2024-12-06 12:39:11.246,83.03,546.0,0.77,0.63,-0.05,3.15,7.7,-4.63
2024-12-06 12:39:11.252,82.8,542.0,0.78,0.63,-0.04,3.27,7.82,-4.63
2024-12-06 12:39:11.268,89.1,532.0,0.78,0.63,-0.03,3.27,7.63,-4.63
2024-12-06 12:39:11.270,85.95,546.0,0.78,0.63,-0.03,3.09,7.15,-4.45
2024-12-06 12:39:11.277,86.62,546.0,0.78,0.63,-0.04,3.09,7.15,-4.45
2024-12-06 12:39:11.286,85.5,536.0,0.77,0.63,-0.04,2.97,7.08,-4.2
2024-12-06 12:39:11.290,87.97,539.0,0.77,0.63,-0.04,3.09,7.15,-3.96
2024-12-06 12:39:11.301,85.5,537.0,0.77,0.64,-0.04,3.33,7.39,-3.77
2024-12-06 12:39:11.306,87.07,541.0,0.77,0.64,-0.04,3.52,7.51,-3.77
2024-12-06 12:39:11.317,85.28,544.0,0.77,0.64,-0.04,3.76,6.96,-3.53
2024-12-06 12:39:11.322,85.95,532.0,0.77,0.64,-0.04,3.76,6.96,-3.53
2024-12-06 12:39:11.329,83.03,531.0,0.76,0.64,-0.04,3.7,6.78,-3.22
2024-12-06 12:39:11.337,82.8,524.0,0.77,0.64,-0.03,3.52,6.84,-3.1
2024-12-06 12:39:11.462,88.42,523.0,0.77,0.62,-0.04,1.81,3.61,-3.59
2024-12-06 12:39:11.467,85.5,504.0,0.77,0.62,-0.04,1.69,3.42,-3.71
2024-12-06 12:39:11.474,85.72,558.0,0.77,0.62,-0.04,1.38,3.24,-3.83
2024-12-06 12:39:11.482,86.17,515.0,0.77,0.62,-0.03,1.38,3.24,-3.83
2024-12-06 12:39:11.492,87.07,530.0,0.78,0.62,-0.03,1.08,2.87,-3.9
2024-12-06 12:39:11.499,83.25,542.0,0.78,0.62,-0.04,0.83,2.63,-3.71
2024-12-06 12:39:11.508,86.85,528.0,0.78,0.62,-0.04,0.77,2.45,-3.53
2024-12-06 12:39:11.518,83.25,537.0,0.78,0.62,-0.04,0.77,1.96,-3.22
2024-12-06 12:39:11.532,87.3,521.0,0.78,0.62,-0.04,0.83,1.53,-2.98
2024-12-06 12:39:11.536,87.75,526.0,0.78,0.63,-0.04,0.83,1.53,-2.98
2024-12-06 12:39:11.540,81.45,523.0,0.78,0.63,-0.04,0.89,1.1,-2.68
2024-12-06 12:39:11.544,83.7,531.0,0.78,0.63,-0.04,0.95,0.92,-2.43
2024-12-06 12:39:11.555,88.65,518.0,0.78,0.63,-0.03,0.95,0.86,-2.19
2024-12-06 12:39:11.560,83.25,522.0,0.78,0.63,-0.03,0.83,0.74,-2.0
2024-12-06 12:39:11.570,85.72,536.0,0.78,0.63,-0.03,0.83,0.62,-1.82
2024-12-06 12:39:11.583,86.17,521.0,0.78,0.63,-0.03,0.77,0.62,-1.82
2024-12-06 12:39:11.586,86.62,539.0,0.78,0.63,-0.03,0.77,0.55,-1.45
2024-12-06 12:39:11.597,82.57,516.0,0.78,0.63,-0.04,0.77,0.31,-1.09
2024-12-06 12:39:11.600,86.85,511.0,0.78,0.63,-0.04,0.71,0.07,-0.91
2024-12-06 12:39:11.606,85.28,540.0,0.78,0.63,-0.04,0.65,0.07,-0.72
2024-12-06 12:39:11.614,89.1,524.0,0.77,0.63,-0.04,0.65,0.07,-0.72
2024-12-06 12:39:11.653,86.85,528.0,0.78,0.63,-0.03,0.59,-0.12,-0.42
2024-12-06 12:39:11.655,87.3,524.0,0.78,0.63,-0.03,0.16,-0.24,0.32
2024-12-06 12:39:11.662,84.38,524.0,0.77,0.63,-0.03,0.16,-0.3,0.32
2024-12-06 12:39:11.670,82.12,519.0,0.77,0.63,-0.03,0.22,-0.42,0.44
2024-12-06 12:39:11.688,87.52,570.0,0.77,0.64,-0.04,0.4,0.98,0.99
2024-12-06 12:39:11.703,82.8,524.0,0.76,0.63,-0.03,0.77,0.07,1.17
2024-12-06 12:39:11.713,85.5,547.0,0.76,0.63,-0.04,0.77,0.13,1.35
2024-12-06 12:39:11.717,84.38,530.0,0.77,0.63,-0.04,0.71,0.43,1.48
2024-12-06 12:39:11.722,82.12,523.0,0.77,0.63,-0.03,0.65,0.43,1.6
2024-12-06 12:39:11.736,85.5,514.0,0.77,0.63,-0.03,0.65,0.31,1.6
2024-12-06 12:39:11.738,86.85,522.0,0.77,0.63,-0.04,0.65,0.0,1.41
2024-12-06 12:39:11.746,84.15,518.0,0.77,0.63,-0.04,0.71,0.0,1.41
2024-12-06 12:39:11.755,86.4,524.0,0.77,0.63,-0.04,0.77,-0.48,1.29
2024-12-06 12:39:11.763,89.32,529.0,0.77,0.63,-0.05,0.89,-0.79,1.17
2024-12-06 12:39:11.769,84.82,519.0,0.76,0.63,-0.04,1.01,-0.73,0.99
2024-12-06 12:39:11.778,86.4,526.0,0.76,0.63,-0.04,1.14,-1.09,0.74
2024-12-06 12:39:11.786,86.62,513.0,0.76,0.63,-0.03,1.08,-1.03,0.44
2024-12-06 12:39:11.794,84.82,514.0,0.76,0.63,-0.04,1.08,-1.03,0.44
2024-12-06 12:39:11.830,86.4,528.0,0.75,0.63,-0.03,0.89,-0.18,-0.29
2024-12-06 12:39:11.835,88.42,518.0,0.75,0.63,-0.03,0.89,-0.18,-0.29
2024-12-06 12:39:11.839,82.8,544.0,0.75,0.63,-0.04,1.01,0.07,-0.29
2024-12-06 12:39:11.847,86.85,516.0,0.75,0.63,-0.04,1.14,0.31,-0.42
2024-12-06 12:39:11.855,86.4,531.0,0.75,0.62,-0.04,1.2,0.43,-0.6
2024-12-06 12:39:11.863,83.25,519.0,0.75,0.62,-0.04,1.2,0.49,-0.78
2024-12-06 12:39:11.872,83.25,517.0,0.75,0.62,-0.05,1.14,0.68,-0.97
2024-12-06 12:39:11.880,88.2,524.0,0.76,0.62,-0.05,1.14,0.68,-0.97
2024-12-06 12:39:11.890,85.72,520.0,0.75,0.62,-0.04,1.14,0.55,-1.09
2024-12-06 12:39:11.895,81.67,522.0,0.75,0.62,-0.04,1.14,0.55,-1.27
2024-12-06 12:39:11.902,84.6,527.0,0.75,0.62,-0.04,1.01,0.74,-1.52
2024-12-06 12:39:11.910,83.7,511.0,0.75,0.62,-0.04,0.95,0.62,-1.82
2024-12-06 12:39:11.919,86.4,519.0,0.76,0.62,-0.04,0.95,0.62,-2.06
2024-12-06 12:39:11.926,85.95,513.0,0.75,0.62,-0.04,0.95,0.62,-2.06
2024-12-06 12:39:11.937,82.8,529.0,0.75,0.63,-0.04,0.95,0.55,-2.25
2024-12-06 12:39:11.942,86.85,497.0,0.76,0.63,-0.04,0.89,0.68,-2.43
2024-12-06 12:39:11.970,86.62,517.0,0.76,0.62,-0.04,0.65,0.86,-2.61
2024-12-06 12:39:11.972,85.95,533.0,0.76,0.63,-0.04,0.65,0.86,-2.61
2024-12-06 12:39:11.981,79.65,559.0,0.76,0.63,-0.04,0.53,0.86,-2.61
2024-12-06 12:39:11.990,87.52,536.0,0.76,0.63,-0.04,0.4,0.74,-2.55
2024-12-06 12:39:11.996,88.2,513.0,0.76,0.63,-0.04,0.34,0.74,-2.55
2024-12-06 12:39:12.5,85.72,543.0,0.76,0.63,-0.04,0.28,0.74,-2.49
2024-12-06 12:39:12.11,90.67,513.0,0.76,0.63,-0.04,0.28,0.55,-2.37
2024-12-06 12:39:12.20,83.7,515.0,0.76,0.63,-0.04,0.16,0.55,-2.37
2024-12-06 12:39:12.31,84.82,525.0,0.77,0.63,-0.04,0.22,0.43,-2.25
2024-12-06 12:39:12.63,85.05,521.0,0.77,0.64,-0.04,0.16,-0.24,-1.7
2024-12-06 12:39:12.66,83.92,519.0,0.77,0.64,-0.04,0.22,-0.48,-1.58
2024-12-06 12:39:12.73,88.65,517.0,0.77,0.64,-0.04,0.22,-0.67,-1.45
2024-12-06 12:39:13.85,86.62,577.0,0.76,0.64,-0.05,0.65,-0.36,-1.27
2024-12-06 12:39:13.109,81.0,511.0,0.77,0.71,-0.03,-0.02,-1.89,0.01
2024-12-06 12:39:13.138,83.7,539.0,0.73,0.76,-0.06,-0.76,0.92,6.18
2024-12-06 12:39:13.180,81.67,531.0,0.74,0.74,-0.06,-3.38,-3.23,10.26
2024-12-06 12:39:13.193,76.95,522.0,0.75,0.63,-0.07,-5.21,-3.54,10.57
2024-12-06 12:39:13.221,74.25,509.0,0.76,0.54,-0.04,-3.99,-2.07,7.03
2024-12-06 12:39:13.248,72.0,510.0,0.78,0.54,-0.01,0.59,1.84,2.7
2024-12-06 12:39:13.281,72.45,521.0,0.81,0.56,-0.01,4.55,4.7,0.5
2024-12-06 12:39:13.305,67.72,520.0,0.81,0.6,-0.03,5.71,5.25,-1.03
2024-12-06 12:39:13.331,74.25,506.0,0.78,0.63,-0.06,4.01,2.87,0.56
2024-12-06 12:39:13.363,69.97,502.0,0.77,0.63,-0.04,3.58,4.03,2.33
2024-12-06 12:39:13.406,67.05,490.0,0.78,0.62,-0.04,4.86,5.44,4.95
2024-12-06 12:39:13.414,69.75,497.0,0.79,0.59,-0.05,5.1,6.66,5.32
2024-12-06 12:39:13.443,67.5,490.0,0.81,0.6,-0.04,5.35,5.07,4.04
2024-12-06 12:39:13.550,65.25,487.0,0.77,0.61,-0.03,5.71,5.25,4.28
2024-12-06 12:39:13.553,60.97,513.0,0.77,0.61,-0.03,4.68,5.13,4.77
2024-12-06 12:39:13.580,59.17,488.0,0.75,0.59,-0.02,3.88,4.89,1.96
2024-12-06 12:39:13.610,58.5,486.0,0.78,0.59,-0.02,3.39,5.56,1.35
2024-12-06 12:39:13.635,58.05,488.0,0.79,0.59,-0.02,3.03,4.09,2.09
2024-12-06 12:39:13.663,54.22,497.0,0.77,0.58,-0.04,2.36,4.16,-0.23
2024-12-06 12:39:13.701,53.32,471.0,0.79,0.59,-0.02,1.69,2.93,0.44
2024-12-06 12:39:13.719,59.17,481.0,0.77,0.58,-0.02,1.56,3.67,-0.48
2024-12-06 12:39:13.746,57.38,473.0,0.8,0.6,-0.02,1.44,4.4,-0.54
2024-12-06 12:39:13.774,51.75,477.0,0.8,0.6,-0.02,0.89,3.67,1.05
2024-12-06 12:39:13.802,49.05,476.0,0.8,0.6,-0.02,-0.33,1.16,0.44
2024-12-06 12:39:13.830,48.38,490.0,0.8,0.6,-0.04,-0.45,1.16,1.48
2024-12-06 12:39:13.867,51.07,490.0,0.78,0.59,-0.03,0.65,2.63,2.09
2024-12-06 12:39:13.886,49.05,472.0,0.8,0.59,-0.02,0.59,4.09,2.02
2024-12-06 12:39:13.918,45.9,475.0,0.78,0.59,-0.03,0.65,2.39,1.29
2024-12-06 12:39:13.943,49.27,472.0,0.82,0.61,-0.01,-0.39,2.75,1.78
2024-12-06 12:39:13.968,46.35,493.0,0.79,0.58,-0.02,-0.27,1.9,3.25
2024-12-06 12:39:13.996,39.6,512.0,0.78,0.57,-0.02,-0.39,1.65,0.93
2024-12-06 12:39:14.27,42.08,485.0,0.8,0.58,-0.02,-0.33,1.9,0.86
2024-12-06 12:39:14.52,40.95,475.0,0.81,0.57,-0.02,0.16,1.77,1.72
2024-12-06 12:39:14.79,39.6,480.0,0.81,0.58,-0.01,0.22,1.47,1.66
2024-12-06 12:39:14.111,40.27,473.0,0.82,0.58,-0.01,0.16,1.23,2.82
2024-12-06 12:39:14.134,42.3,472.0,0.82,0.58,-0.01,-0.27,1.1,3.67
2024-12-06 12:39:14.162,42.08,488.0,0.82,0.57,-0.02,-0.39,0.19,3.49
2024-12-06 12:39:14.189,33.52,482.0,0.83,0.58,-0.01,-0.76,-0.12,4.34
2024-12-06 12:39:14.223,39.6,464.0,0.81,0.56,-0.02,-0.69,-0.3,5.32
2024-12-06 12:39:14.247,36.45,491.0,0.82,0.56,-0.01,-0.51,-1.22,3.92
2024-12-06 12:39:14.273,37.8,453.0,0.81,0.55,-0.01,-0.63,0.07,5.44
2024-12-06 12:39:14.316,31.72,466.0,0.82,0.55,0.0,-0.39,-0.97,4.1
2024-12-06 12:39:14.330,32.4,514.0,0.82,0.57,-0.02,-1.12,-0.3,5.81
2024-12-06 12:39:14.356,33.08,476.0,0.81,0.56,-0.01,-0.88,-1.09,5.5
2024-12-06 12:39:14.383,31.95,475.0,0.82,0.56,-0.0,-1.43,-1.4,4.4
2024-12-06 12:39:14.412,31.05,474.0,0.83,0.57,-0.0,-1.55,-1.28,4.95
2024-12-06 12:39:14.439,26.32,473.0,0.8,0.54,-0.01,-1.18,-1.34,3.25
2024-12-06 12:39:14.468,28.57,476.0,0.84,0.56,0.0,-1.73,-0.54,4.53
2024-12-06 12:39:14.582,29.25,476.0,0.82,0.55,-0.03,-1.3,-0.73,4.95
2024-12-06 12:39:14.586,29.02,472.0,0.83,0.54,-0.01,-2.34,-1.52,6.24
2024-12-06 12:39:14.608,20.25,474.0,0.83,0.53,-0.01,-1.98,-2.74,4.28
2024-12-06 12:39:14.632,21.6,486.0,0.83,0.53,-0.02,-1.37,-2.44,3.31
2024-12-06 12:39:14.659,22.27,483.0,0.82,0.54,-0.01,-1.0,-1.7,2.76
2024-12-06 12:39:14.700,16.65,475.0,0.83,0.54,-0.02,-1.06,-1.7,2.09
2024-12-06 12:39:14.717,20.48,477.0,0.82,0.54,-0.02,-1.43,-2.01,2.51
2024-12-06 12:39:14.764,19.12,491.0,0.84,0.54,-0.01,-1.49,-1.83,1.96
2024-12-06 12:39:14.770,14.62,476.0,0.85,0.54,-0.01,-1.24,-0.61,4.04
2024-12-06 12:39:14.815,18.23,468.0,0.84,0.52,-0.01,-1.85,-1.89,3.73
2024-12-06 12:39:14.831,9.9,469.0,0.82,0.51,-0.01,-1.98,-2.8,1.35
2024-12-06 12:39:14.861,13.95,465.0,0.84,0.52,-0.01,-1.43,-1.7,2.33
2024-12-06 12:39:14.882,15.75,487.0,0.83,0.51,-0.01,-1.55,-0.42,1.05
2024-12-06 12:39:14.910,8.77,471.0,0.84,0.52,-0.03,-1.24,-1.34,1.41
2024-12-06 12:39:14.937,11.7,485.0,0.84,0.52,-0.03,-1.3,-2.25,1.84
2024-12-06 12:39:14.996,12.15,476.0,0.84,0.52,-0.02,-1.37,-2.01,0.86
2024-12-06 12:39:14.999,9.45,468.0,0.84,0.53,-0.01,-1.12,-2.13,2.76
2024-12-06 12:39:15.20,5.17,470.0,0.82,0.55,-0.03,-1.3,-1.15,5.5
2024-12-06 12:39:15.48,9.45,486.0,0.84,0.54,-0.02,-0.69,-1.09,10.63
2024-12-06 12:39:15.74,2.47,486.0,0.92,0.44,-0.05,-0.88,2.81,5.81
2024-12-06 12:39:15.104,4.72,473.0,0.86,0.5,-0.06,-1.0,-0.12,4.53
2024-12-06 12:39:15.130,5.85,467.0,0.88,0.51,-0.01,-1.67,-3.41,3.43
2024-12-06 12:39:15.157,0.45,467.0,0.83,0.5,-0.02,-0.76,-2.07,5.5
2024-12-06 12:39:16.469,1.12,483.0,0.85,0.48,-0.03,6.57,2.63,-2.13
2024-12-06 12:39:16.480,1.35,495.0,0.85,0.47,-0.03,6.93,2.93,-2.25
2024-12-06 12:39:16.483,0.9,471.0,0.84,0.47,-0.03,7.3,3.36,-2.43
2024-12-06 12:39:16.490,2.47,476.0,0.84,0.47,-0.03,7.61,3.73,-2.68
2024-12-06 12:39:16.500,-1.12,476.0,0.84,0.47,-0.03,7.85,4.16,-3.1
2024-12-06 12:39:16.505,2.47,482.0,0.84,0.47,-0.03,8.03,4.64,-3.53
2024-12-06 12:39:16.520,1.35,479.0,0.84,0.47,-0.03,8.03,4.64,-3.53
2024-12-06 12:39:16.524,4.28,494.0,0.84,0.48,-0.03,8.4,4.77,-3.83
2024-12-06 12:39:16.528,-0.45,477.0,0.84,0.48,-0.04,8.77,4.89,-4.08
2024-12-06 12:39:16.541,-0.9,495.0,0.84,0.48,-0.04,9.19,5.13,-4.32
2024-12-06 12:39:16.553,4.5,482.0,0.84,0.48,-0.04,9.99,5.25,-5.12
2024-12-06 12:39:16.580,2.02,478.0,0.83,0.49,-0.04,11.02,5.44,-6.34
2024-12-06 12:39:16.584,-1.35,489.0,0.83,0.49,-0.04,11.63,5.56,-7.07
2024-12-06 12:39:16.681,2.02,493.0,0.83,0.49,-0.04,12.06,5.86,-7.68
2024-12-06 12:39:16.690,0.22,476.0,0.86,0.48,-0.0,12.86,6.17,-11.04
2024-12-06 12:39:16.695,1.57,477.0,0.86,0.48,-0.0,12.37,6.05,-11.53
2024-12-06 12:39:16.710,-2.92,484.0,0.87,0.48,0.02,12.37,6.05,-11.59
2024-12-06 12:39:16.713,0.0,489.0,0.87,0.48,0.02,12.06,4.89,-11.59
2024-12-06 12:39:16.717,3.6,481.0,0.85,0.48,0.0,11.82,5.01,-11.77
2024-12-06 12:39:16.726,1.8,485.0,0.84,0.48,0.0,11.45,4.89,-12.26
2024-12-06 12:39:16.733,2.02,479.0,0.84,0.48,0.01,11.02,4.52,-12.68
2024-12-06 12:39:16.744,-1.35,483.0,0.84,0.48,0.01,10.47,4.77,-12.93
2024-12-06 12:39:16.753,3.38,502.0,0.84,0.48,0.0,10.47,4.95,-12.75
2024-12-06 12:39:16.759,-0.22,486.0,0.85,0.48,0.01,9.99,4.95,-12.75
2024-12-06 12:39:16.766,-0.45,483.0,0.85,0.48,-0.0,9.5,5.13,-12.44
2024-12-06 12:39:16.817,3.82,489.0,0.85,0.48,-0.01,9.07,5.44,-12.01
2024-12-06 12:39:16.828,2.7,494.0,0.86,0.49,-0.01,6.93,5.31,-10.43
2024-12-06 12:39:16.831,2.92,475.0,0.87,0.49,-0.01,6.57,5.01,-10.3
2024-12-06 12:39:16.834,2.25,516.0,0.87,0.49,-0.0,6.57,5.01,-10.3
2024-12-06 12:39:16.843,-5.17,487.0,0.87,0.49,-0.0,6.26,4.58,-10.18
2024-12-06 12:39:16.849,0.67,493.0,0.87,0.5,0.0,5.9,4.16,-10.12
2024-12-06 12:39:16.857,3.38,493.0,0.87,0.5,0.0,5.47,3.67,-10.06
2024-12-06 12:39:16.864,2.92,488.0,0.87,0.5,0.0,5.1,3.18,-10.06
2024-12-06 12:39:16.876,2.25,494.0,0.87,0.5,0.0,5.1,2.75,-10.06
2024-12-06 12:39:16.883,2.25,489.0,0.86,0.51,0.0,4.86,2.75,-10.06
2024-12-06 12:39:16.890,2.7,474.0,0.86,0.51,0.0,4.62,2.39,-10.0
2024-12-06 12:39:16.895,0.9,475.0,0.86,0.51,0.0,4.43,2.14,-9.88
2024-12-06 12:39:16.904,2.47,486.0,0.86,0.52,0.0,4.31,2.02,-9.76
2024-12-06 12:39:16.911,2.47,497.0,0.86,0.52,0.0,4.01,2.02,-9.51
2024-12-06 12:39:16.919,-3.38,475.0,0.85,0.52,0.01,3.7,2.02,-9.14
2024-12-06 12:39:16.927,-0.67,483.0,0.85,0.52,0.01,3.7,2.02,-9.14
2024-12-06 12:39:16.936,2.02,495.0,0.85,0.52,0.01,3.33,2.14,-8.9
2024-12-06 12:39:16.942,2.25,496.0,0.84,0.53,0.0,2.97,2.2,-8.66
2024-12-06 12:39:16.950,0.67,491.0,0.84,0.53,0.0,2.66,2.14,-8.53
2024-12-06 12:39:16.960,3.82,500.0,0.84,0.53,0.0,2.36,2.08,-8.29
2024-12-06 12:39:16.976,-0.45,495.0,0.85,0.53,-0.0,2.36,1.96,-7.99
2024-12-06 12:39:16.982,1.57,488.0,0.85,0.53,-0.0,2.17,1.96,-7.99
2024-12-06 12:39:16.987,1.57,499.0,0.85,0.53,-0.01,2.05,1.9,-7.74
2024-12-06 12:39:16.990,2.47,495.0,0.85,0.53,-0.01,1.99,1.9,-7.37
2024-12-06 12:39:16.997,0.9,478.0,0.85,0.53,-0.01,1.87,1.71,-7.01
2024-12-06 12:39:17.25,2.47,478.0,0.86,0.54,-0.01,1.56,1.53,-6.15
2024-12-06 12:39:17.28,0.45,481.0,0.86,0.54,-0.01,1.38,1.41,-5.73
2024-12-06 12:39:17.34,2.02,469.0,0.86,0.54,-0.01,1.32,1.16,-5.18
2024-12-06 12:39:17.42,5.4,475.0,0.86,0.54,-0.01,1.26,1.04,-4.63
2024-12-06 12:39:17.51,4.5,487.0,0.86,0.54,-0.01,1.26,1.04,-4.63
2024-12-06 12:39:17.59,1.8,486.0,0.86,0.54,-0.01,1.26,0.92,-4.08
2024-12-06 12:39:17.66,1.57,476.0,0.85,0.55,-0.01,1.32,0.8,-3.59
2024-12-06 12:39:17.74,1.8,484.0,0.85,0.56,-0.01,1.32,0.86,-3.16
2024-12-06 12:39:17.82,-0.22,509.0,0.85,0.56,-0.01,1.26,0.8,-2.8
2024-12-06 12:39:17.89,1.12,488.0,0.85,0.56,-0.01,1.2,0.68,-2.49
2024-12-06 12:39:17.97,3.6,481.0,0.85,0.56,-0.01,1.2,0.68,-2.49
2024-12-06 12:39:17.105,2.25,473.0,0.85,0.56,-0.01,1.2,0.55,-2.13
2024-12-06 12:39:17.115,2.47,478.0,0.85,0.56,-0.01,1.14,0.37,-1.82
2024-12-06 12:39:17.121,-0.67,478.0,0.85,0.56,-0.01,1.08,0.19,-1.52
2024-12-06 12:39:17.129,2.47,477.0,0.85,0.56,-0.02,1.08,0.0,-1.27
2024-12-06 12:39:17.137,-0.67,482.0,0.85,0.55,-0.02,0.95,-0.12,-0.91
2024-12-06 12:39:17.145,2.25,495.0,0.84,0.55,-0.01,0.95,-0.12,-0.91
2024-12-06 12:39:17.156,-1.12,480.0,0.84,0.55,-0.01,0.95,-0.3,-0.48
2024-12-06 12:39:17.166,4.05,493.0,0.84,0.55,-0.01,0.89,-0.48,-0.11
2024-12-06 12:39:17.172,4.5,481.0,0.84,0.55,-0.02,0.83,-0.61,0.19
2024-12-06 12:39:17.176,0.45,478.0,0.84,0.55,-0.02,0.77,-0.79,0.44
2024-12-06 12:39:17.188,1.35,482.0,0.83,0.55,-0.02,0.77,-0.85,0.62
2024-12-06 12:39:17.191,0.45,497.0,0.83,0.55,-0.02,0.77,-0.85,0.62
2024-12-06 12:39:17.203,2.02,492.0,0.83,0.55,-0.01,0.71,-0.79,0.68
2024-12-06 12:39:17.208,4.5,491.0,0.83,0.55,-0.01,0.59,-0.73,0.68
2024-12-06 12:39:17.259,4.5,492.0,0.83,0.55,-0.01,0.53,-0.67,0.68
2024-12-06 12:39:17.268,1.57,481.0,0.82,0.55,-0.02,0.4,-0.61,0.44
2024-12-06 12:39:17.277,2.47,502.0,0.82,0.55,-0.02,0.4,-0.61,0.44
2024-12-06 12:39:17.279,0.22,477.0,0.82,0.55,-0.02,0.34,-0.61,0.19
2024-12-06 12:39:17.282,1.35,476.0,0.82,0.55,-0.02,0.34,-0.67,0.07
2024-12-06 12:39:17.291,1.35,493.0,0.82,0.55,-0.02,0.28,-0.85,-0.05
2024-12-06 12:39:17.299,-2.7,478.0,0.82,0.55,-0.02,0.28,-1.03,-0.23
2024-12-06 12:39:17.307,-1.57,493.0,0.82,0.55,-0.02,0.28,-1.09,-0.42
2024-12-06 12:39:17.317,0.0,493.0,0.82,0.55,-0.02,0.28,-1.09,-0.42
2024-12-06 12:39:17.321,-0.22,475.0,0.82,0.55,-0.02,0.28,-1.15,-0.6
2024-12-06 12:39:17.334,4.5,483.0,0.81,0.55,-0.02,0.22,-1.03,-0.78
2024-12-06 12:39:17.341,3.38,473.0,0.81,0.55,-0.02,0.28,-0.91,-0.91
2024-12-06 12:39:17.349,1.57,473.0,0.81,0.55,-0.02,0.28,-0.73,-1.03
2024-12-06 12:39:17.353,-1.12,505.0,0.82,0.55,-0.02,0.28,-0.73,-1.03
2024-12-06 12:39:17.366,0.67,485.0,0.82,0.55,-0.02,0.28,-0.48,-1.03
2024-12-06 12:39:17.370,-2.7,498.0,0.82,0.55,-0.02,0.34,-0.3,-0.97
2024-12-06 12:39:17.381,1.35,488.0,0.82,0.55,-0.02,0.34,-0.12,-1.09
2024-12-06 12:39:17.394,-1.12,490.0,0.82,0.54,-0.02,0.34,0.19,-1.21
2024-12-06 12:39:17.413,-2.47,485.0,0.82,0.54,-0.02,0.34,0.19,-1.21
2024-12-06 12:39:17.417,-0.67,494.0,0.83,0.54,-0.02,0.4,0.13,-1.27
2024-12-06 12:39:17.421,-0.67,485.0,0.83,0.54,-0.03,0.47,-0.06,-1.21
2024-12-06 12:39:17.430,0.0,493.0,0.83,0.54,-0.03,0.53,-0.18,-1.33
2024-12-06 12:39:17.437,-1.57,484.0,0.83,0.54,-0.03,0.53,-0.18,-1.33
2024-12-06 12:39:17.477,-0.22,473.0,0.83,0.54,-0.03,0.59,-0.3,-1.45
2024-12-06 12:39:17.480,3.38,491.0,0.83,0.55,-0.02,0.89,0.0,-1.64
2024-12-06 12:39:17.484,-0.22,498.0,0.83,0.55,-0.02,0.89,0.0,-1.64
2024-12-06 12:39:17.494,0.45,474.0,0.83,0.54,-0.03,1.01,0.07,-1.58
2024-12-06 12:39:17.499,2.7,482.0,0.83,0.54,-0.03,1.08,0.13,-1.52
2024-12-06 12:39:17.506,1.57,480.0,0.83,0.54,-0.02,1.14,0.13,-1.39
2024-12-06 12:39:17.517,-2.02,470.0,0.83,0.54,-0.02,1.14,0.13,-1.33
2024-12-06 12:39:17.523,2.02,475.0,0.83,0.54,-0.03,1.14,0.13,-1.33
2024-12-06 12:39:17.533,1.12,479.0,0.83,0.54,-0.02,1.2,0.13,-1.27
2024-12-06 12:39:17.552,2.25,478.0,0.83,0.54,-0.02,1.14,0.0,-1.21
2024-12-06 12:39:17.554,4.5,473.0,0.83,0.54,-0.02,1.14,0.0,-1.21
2024-12-06 12:39:17.561,3.82,494.0,0.83,0.54,-0.02,1.08,0.0,-1.15
2024-12-06 12:39:17.569,4.05,471.0,0.83,0.54,-0.02,1.08,0.0,-1.15
2024-12-06 12:39:17.577,1.8,481.0,0.83,0.54,-0.02,0.95,0.0,-1.15
2024-12-06 12:39:17.584,-1.12,496.0,0.83,0.54,-0.03,0.95,0.07,-1.09
2024-12-06 12:39:17.595,3.15,476.0,0.83,0.54,-0.02,0.95,0.19,-1.09
2024-12-06 12:39:17.607,-2.92,477.0,0.83,0.54,-0.02,0.95,0.19,-0.97
2024-12-06 12:39:17.609,0.22,476.0,0.83,0.54,-0.02,0.95,0.19,-0.97
2024-12-06 12:39:17.617,4.72,470.0,0.82,0.54,-0.02,0.95,0.19,-0.97
2024-12-06 12:39:17.624,3.38,479.0,0.83,0.54,-0.03,0.89,0.25,-1.03
2024-12-06 12:39:17.632,-1.8,476.0,0.83,0.54,-0.02,0.77,0.19,-1.09
2024-12-06 12:39:17.732,0.9,477.0,0.83,0.54,-0.02,0.71,0.13,-1.09
2024-12-06 12:39:17.739,-0.45,483.0,0.83,0.54,-0.02,0.34,0.8,-0.91
2024-12-06 12:39:17.745,-3.15,480.0,0.83,0.55,-0.02,0.28,0.86,-0.78
2024-12-06 12:39:17.756,2.7,494.0,0.84,0.55,-0.02,0.1,0.92,-0.54
2024-12-06 12:39:17.761,-0.45,473.0,0.84,0.55,-0.02,-0.02,0.8,-0.17
2024-12-06 12:39:17.769,3.6,474.0,0.84,0.55,-0.02,-0.02,0.62,0.19
2024-12-06 12:39:17.783,4.28,478.0,0.84,0.54,-0.02,-0.15,0.62,0.19
2024-12-06 12:39:17.786,1.35,476.0,0.85,0.54,-0.02,-0.39,0.43,0.62
2024-12-06 12:39:17.796,-0.45,481.0,0.85,0.54,-0.01,-0.57,0.19,0.8
2024-12-06 12:39:17.802,1.8,470.0,0.85,0.54,-0.01,-0.82,-0.06,1.05
2024-12-06 12:39:17.806,1.12,494.0,0.85,0.54,-0.01,-1.12,-0.3,1.35
2024-12-06 12:39:17.821,0.9,499.0,0.85,0.54,-0.0,-1.12,-0.3,1.35
2024-12-06 12:39:17.823,4.72,474.0,0.85,0.55,-0.0,-1.43,-0.36,1.6
2024-12-06 12:39:17.830,1.12,495.0,0.85,0.55,-0.0,-1.73,-0.48,2.02
2024-12-06 12:39:17.838,3.82,475.0,0.86,0.55,0.0,-2.04,-0.48,2.51
2024-12-06 12:39:17.848,2.02,470.0,0.86,0.55,0.0,-2.28,-0.54,3.06
2024-12-06 12:39:17.854,4.05,484.0,0.86,0.55,0.0,-2.46,-0.61,3.55
2024-12-06 12:39:17.866,2.47,472.0,0.86,0.54,-0.0,-2.46,-0.61,3.55
2024-12-06 12:39:17.870,1.35,471.0,0.86,0.54,-0.0,-2.71,-0.85,4.04
2024-12-06 12:39:17.880,4.95,468.0,0.86,0.54,-0.01,-2.95,-1.15,4.53
2024-12-06 12:39:17.888,-0.22,486.0,0.86,0.53,-0.01,-3.26,-1.58,5.02
2024-12-06 12:39:17.893,2.7,475.0,0.86,0.53,-0.01,-3.5,-2.07,5.5
2024-12-06 12:39:17.932,2.02,491.0,0.86,0.53,-0.01,-3.87,-2.68,5.99
2024-12-06 12:39:17.937,0.0,483.0,0.86,0.53,-0.0,-5.03,-4.15,7.03
2024-12-06 12:39:17.941,-0.67,475.0,0.85,0.53,-0.0,-5.39,-4.33,7.46
2024-12-06 12:39:17.946,3.15,483.0,0.85,0.53,-0.0,-5.39,-4.33,7.46
2024-12-06 12:39:17.954,0.67,470.0,0.85,0.53,-0.0,-5.7,-4.39,7.88
2024-12-06 12:39:17.967,2.92,476.0,0.85,0.53,-0.0,-6.0,-4.45,8.31
2024-12-06 12:39:17.978,-2.47,473.0,0.85,0.53,0.0,-6.25,-4.39,8.68
2024-12-06 12:39:17.981,2.92,472.0,0.85,0.53,0.0,-6.43,-4.33,8.92
2024-12-06 12:39:17.985,1.35,489.0,0.85,0.52,0.0,-6.43,-4.33,8.92
2024-12-06 12:39:17.993,-0.45,476.0,0.85,0.52,-0.0,-6.68,-4.33,9.1
2024-12-06 12:39:18.4,-0.22,494.0,0.85,0.52,-0.01,-6.86,-4.39,9.1
2024-12-06 12:39:18.8,2.92,493.0,0.85,0.52,-0.01,-6.98,-4.51,9.1
2024-12-06 12:39:18.17,1.8,477.0,0.85,0.52,-0.01,-7.1,-4.69,9.04
2024-12-06 12:39:18.29,4.05,482.0,0.85,0.52,-0.01,-7.23,-5.0,8.92
2024-12-06 12:39:18.32,-1.12,473.0,0.85,0.52,-0.01,-7.23,-5.0,8.92
2024-12-06 12:39:18.47,0.9,483.0,0.85,0.52,-0.01,-7.35,-5.31,8.92
2024-12-06 12:39:18.50,4.72,478.0,0.85,0.52,-0.01,-7.53,-5.67,8.86
2024-12-06 12:39:18.56,-1.8,484.0,0.84,0.52,-0.01,-7.71,-5.92,8.74
2024-12-06 12:39:18.70,2.7,492.0,0.84,0.52,-0.01,-7.9,-6.1,8.56
2024-12-06 12:39:18.72,1.12,477.0,0.84,0.52,-0.01,-8.02,-6.16,8.37
2024-12-06 12:39:18.79,2.47,479.0,0.84,0.52,-0.01,-8.02,-6.16,8.37
2024-12-06 12:39:18.86,1.35,487.0,0.84,0.52,-0.01,-8.08,-6.04,8.25
2024-12-06 12:39:18.94,2.02,472.0,0.84,0.52,-0.01,-8.14,-5.79,8.13
2024-12-06 12:39:18.118,-0.22,469.0,0.84,0.51,-0.01,-7.96,-5.31,7.95
2024-12-06 12:39:18.121,1.57,496.0,0.84,0.51,-0.01,-7.96,-5.31,7.64
2024-12-06 12:39:18.128,2.02,470.0,0.84,0.51,-0.02,-7.9,-5.06,7.64
2024-12-06 12:39:18.158,0.9,468.0,0.85,0.5,-0.02,-7.71,-5.18,6.36
2024-12-06 12:39:18.166,-0.22,485.0,0.85,0.5,-0.02,-7.65,-5.18,6.36
2024-12-06 12:39:18.175,-1.35,481.0,0.85,0.49,-0.02,-7.65,-5.55,5.93
2024-12-06 12:39:18.179,1.35,465.0,0.85,0.49,-0.02,-7.59,-5.73,5.56
2024-12-06 12:39:18.189,2.25,488.0,0.85,0.49,-0.02,-7.53,-5.92,5.26
2024-12-06 12:39:18.194,2.7,475.0,0.85,0.49,-0.02,-7.47,-5.92,4.89
2024-12-06 12:39:18.203,-0.45,483.0,0.85,0.49,-0.02,-7.47,-5.92,4.89
2024-12-06 12:39:18.216,-2.02,469.0,0.85,0.5,-0.02,-7.35,-5.79,4.59
2024-12-06 12:39:18.227,2.47,471.0,0.84,0.5,-0.03,-6.98,-5.37,3.92
2024-12-06 12:39:18.233,2.47,479.0,0.84,0.5,-0.03,-6.74,-5.12,3.61
2024-12-06 12:39:18.242,1.57,489.0,0.85,0.49,-0.03,-6.61,-4.88,3.43
2024-12-06 12:39:18.254,1.8,476.0,0.85,0.49,-0.03,-6.61,-4.88,3.43
2024-12-06 12:39:18.257,-0.67,470.0,0.85,0.49,-0.03,-6.55,-4.69,3.31
2024-12-06 12:39:18.264,-3.6,489.0,0.85,0.49,-0.03,-6.37,-4.69,3.12
2024-12-06 12:39:18.294,3.6,498.0,0.85,0.48,-0.03,-6.31,-4.76,2.82
2024-12-06 12:39:18.297,2.02,489.0,0.85,0.48,-0.04,-6.07,-5.06,2.27
2024-12-06 12:39:18.303,2.25,476.0,0.85,0.48,-0.04,-5.88,-5.18,2.02
2024-12-06 12:39:18.312,0.67,489.0,0.85,0.48,-0.03,-5.76,-5.12,1.72
2024-12-06 12:39:18.317,1.8,470.0,0.85,0.48,-0.03,-5.76,-5.12,1.48
2024-12-06 12:39:18.325,2.92,471.0,0.85,0.49,-0.03,-5.76,-5.12,1.48
2024-12-06 12:39:18.389,3.6,477.0,0.85,0.48,-0.03,-5.76,-5.0,1.23
2024-12-06 12:39:18.397,4.5,474.0,0.85,0.49,-0.03,-5.64,-3.35,0.13
2024-12-06 12:39:18.402,-2.92,477.0,0.85,0.49,-0.03,-5.58,-3.29,0.13
2024-12-06 12:39:18.410,-3.6,486.0,0.85,0.49,-0.03,-5.58,-3.29,0.13
2024-12-06 12:39:18.417,1.8,502.0,0.86,0.49,-0.03,-5.58,-3.17,0.19
2024-12-06 12:39:18.434,1.57,476.0,0.86,0.49,-0.03,-5.58,-3.11,0.13
2024-12-06 12:39:18.437,2.02,466.0,0.86,0.48,-0.03,-5.58,-3.17,0.13
2024-12-06 12:39:18.440,0.22,471.0,0.86,0.48,-0.03,-5.64,-3.35,0.01
2024-12-06 12:39:18.449,2.7,470.0,0.86,0.48,-0.03,-5.7,-3.41,0.01
2024-12-06 12:39:18.456,0.0,462.0,0.86,0.48,-0.03,-5.7,-3.41,0.01
2024-12-06 12:39:18.464,3.82,494.0,0.86,0.48,-0.03,-5.76,-3.41,0.01
2024-12-06 12:39:18.472,-0.9,471.0,0.86,0.48,-0.03,-5.76,-3.23,0.01
2024-12-06 12:39:18.480,-1.12,472.0,0.86,0.48,-0.03,-5.7,-3.05,0.01
2024-12-06 12:39:18.490,-2.7,490.0,0.86,0.48,-0.03,-5.64,-2.8,0.07
2024-12-06 12:39:18.498,0.45,479.0,0.86,0.48,-0.03,-5.58,-2.56,0.07
2024-12-06 12:39:18.503,5.4,528.0,0.86,0.48,-0.03,-5.58,-2.56,0.07
2024-12-06 12:39:18.514,2.02,467.0,0.86,0.48,-0.03,-5.52,-2.25,0.13
2024-12-06 12:39:18.520,3.38,492.0,0.86,0.48,-0.03,-5.46,-2.07,0.13
2024-12-06 12:39:18.528,4.28,470.0,0.86,0.48,-0.03,-5.39,-1.89,0.19
2024-12-06 12:39:18.541,2.7,483.0,0.86,0.48,-0.03,-5.33,-1.89,0.25
2024-12-06 12:39:18.546,2.02,474.0,0.86,0.48,-0.03,-5.33,-1.89,0.32
2024-12-06 12:39:18.552,1.57,483.0,0.86,0.48,-0.03,-5.33,-1.89,0.32
2024-12-06 12:39:18.573,3.38,491.0,0.86,0.48,-0.03,-5.39,-2.19,0.32
2024-12-06 12:39:18.576,-10.8,498.0,0.86,0.48,-0.03,-5.46,-2.19,0.19
2024-12-06 12:39:18.585,-0.67,476.0,0.86,0.48,-0.03,-5.52,-2.13,0.07
2024-12-06 12:39:18.613,0.67,479.0,0.86,0.47,-0.02,-5.58,-1.89,-0.05
2024-12-06 12:39:18.619,2.02,488.0,0.86,0.47,-0.02,-5.58,-1.7,-0.05
2024-12-06 12:39:18.628,1.35,479.0,0.86,0.47,-0.02,-5.52,-1.46,0.01
2024-12-06 12:39:18.639,4.28,488.0,0.86,0.47,-0.03,-5.52,-1.46,0.01
2024-12-06 12:39:18.646,0.0,476.0,0.86,0.47,-0.03,-5.46,-1.28,0.13
2024-12-06 12:39:18.664,1.35,466.0,0.86,0.47,-0.03,-5.39,-0.91,0.19
2024-12-06 12:39:18.673,2.25,481.0,0.86,0.47,-0.03,-5.39,-0.79,0.25
2024-12-06 12:39:18.676,3.6,472.0,0.86,0.48,-0.03,-5.33,-0.79,0.19
2024-12-06 12:39:18.684,1.8,486.0,0.86,0.48,-0.03,-5.33,-0.79,0.19
2024-12-06 12:39:18.838,2.25,479.0,0.85,0.5,-0.02,-3.62,-0.36,-1.7
2024-12-06 12:39:18.840,3.82,477.0,0.86,0.51,-0.03,-2.71,0.68,-1.76
2024-12-06 12:39:18.843,-1.57,473.0,0.87,0.51,-0.03,-2.1,1.04,-1.21
2024-12-06 12:39:18.850,-2.7,492.0,0.88,0.52,-0.03,-1.49,1.35,-0.36
2024-12-06 12:39:18.875,-0.67,484.0,0.88,0.52,-0.03,-1.0,1.47,0.5
2024-12-06 12:39:18.878,3.6,497.0,0.88,0.52,-0.03,-0.63,1.41,1.11
2024-12-06 12:39:18.882,1.8,473.0,0.87,0.51,-0.03,-0.51,1.35,1.29
2024-12-06 12:39:18.887,2.7,488.0,0.87,0.5,-0.02,-0.39,1.04,1.05
2024-12-06 12:39:18.895,-1.12,471.0,0.87,0.49,-0.02,-0.27,0.62,0.74
2024-12-06 12:39:18.903,0.9,499.0,0.87,0.49,-0.02,-0.15,0.0,0.38
2024-12-06 12:39:18.911,1.57,484.0,0.87,0.49,-0.02,-0.08,-0.42,-0.05
2024-12-06 12:39:18.928,4.72,505.0,0.86,0.48,-0.01,-0.08,-0.42,-0.05
2024-12-06 12:39:18.931,2.47,491.0,0.86,0.48,-0.0,0.1,-0.61,-0.48
2024-12-06 12:39:18.935,2.92,479.0,0.85,0.49,-0.0,0.16,-0.54,-0.91
2024-12-06 12:39:18.942,2.7,504.0,0.85,0.49,-0.0,0.28,-0.24,-1.15
2024-12-06 12:39:18.961,-2.92,467.0,0.85,0.49,-0.0,0.4,0.19,-1.21
2024-12-06 12:39:18.967,0.0,480.0,0.85,0.49,-0.0,0.47,0.68,-1.09
2024-12-06 12:39:18.970,1.35,479.0,0.85,0.49,-0.01,0.47,0.68,-1.09
2024-12-06 12:39:18.973,5.17,486.0,0.85,0.49,-0.01,0.53,0.92,-1.03
2024-12-06 12:39:18.983,1.57,493.0,0.85,0.49,-0.01,0.47,1.35,-0.91
2024-12-06 12:39:19.11,2.47,477.0,0.85,0.49,-0.02,0.16,1.59,-0.72
2024-12-06 12:39:19.16,-1.12,480.0,0.86,0.49,-0.01,-0.15,1.41,-0.6
2024-12-06 12:39:19.30,4.05,482.0,0.86,0.49,-0.01,-0.27,1.16,-0.54
2024-12-06 12:39:19.64,3.6,490.0,0.87,0.49,-0.0,-0.15,0.55,-0.84
2024-12-06 12:39:19.68,0.45,479.0,0.87,0.49,-0.0,-0.08,0.49,-0.72
2024-12-06 12:39:19.73,4.72,490.0,0.87,0.49,-0.0,-0.02,0.55,-0.66
2024-12-06 12:39:19.80,-1.8,480.0,0.87,0.49,-0.01,-0.02,0.55,-0.66
2024-12-06 12:39:19.88,0.0,481.0,0.87,0.49,-0.01,0.1,0.68,-0.66
2024-12-06 12:39:19.95,4.5,472.0,0.87,0.5,-0.02,0.22,0.68,-0.6
2024-12-06 12:39:19.103,2.25,489.0,0.87,0.5,-0.02,0.4,0.74,-0.42
2024-12-06 12:39:20.111,3.38,493.0,0.87,0.48,-0.02,0.59,0.13,-1.27
2024-12-06 12:39:20.139,1.35,477.0,0.87,0.49,-0.02,0.47,-0.79,-1.58
2024-12-06 12:39:20.186,2.47,479.0,0.77,0.46,-0.02,0.65,-1.77,-8.96
2024-12-06 12:39:20.194,3.82,471.0,0.83,0.48,-0.01,2.17,-0.42,-10.85
2024-12-06 12:39:20.222,6.75,477.0,0.81,0.49,-0.03,3.33,1.65,-11.89
2024-12-06 12:39:20.253,7.88,487.0,0.83,0.5,-0.0,1.62,2.02,-12.56
2024-12-06 12:39:20.277,9.0,483.0,0.86,0.51,-0.01,0.34,0.62,-13.23
2024-12-06 12:39:20.309,8.77,478.0,0.85,0.51,-0.03,0.22,-0.06,-13.05
2024-12-06 12:39:20.334,10.8,468.0,0.89,0.53,-0.01,0.53,0.92,-10.3
2024-12-06 12:39:20.361,10.35,483.0,0.86,0.53,-0.02,0.1,0.19,-8.17
2024-12-06 12:39:20.387,14.17,481.0,0.87,0.54,-0.04,0.65,-0.06,-6.7
2024-12-06 12:39:20.415,15.07,474.0,0.84,0.54,-0.03,1.2,-1.09,-5.36
2024-12-06 12:39:20.459,13.27,479.0,0.82,0.53,-0.01,0.83,-1.09,-6.83
2024-12-06 12:39:20.470,16.88,478.0,0.83,0.53,-0.01,0.77,0.25,-6.28
2024-12-06 12:39:20.500,16.2,478.0,0.82,0.53,-0.01,0.34,1.23,-6.28
2024-12-06 12:39:20.534,14.62,495.0,0.83,0.53,-0.02,-0.27,0.62,-6.52
2024-12-06 12:39:20.555,20.25,480.0,0.85,0.54,-0.02,-0.15,0.49,-5.24
2024-12-06 12:39:20.581,19.57,500.0,0.84,0.54,-0.03,0.1,0.07,-4.63
2024-12-06 12:39:20.609,20.25,473.0,0.84,0.55,-0.02,0.1,0.19,-4.2
2024-12-06 12:39:20.637,23.85,475.0,0.83,0.56,-0.02,0.16,0.07,-3.47
2024-12-06 12:39:20.685,17.77,495.0,0.81,0.55,-0.02,-0.02,-0.12,-4.63
2024-12-06 12:39:20.692,26.55,480.0,0.83,0.56,-0.02,0.34,0.19,-4.45
2024-12-06 12:39:20.721,23.62,481.0,0.8,0.55,-0.02,0.65,0.31,-4.87
2024-12-06 12:39:20.747,26.32,505.0,0.81,0.56,-0.01,-0.15,0.62,-5.79
2024-12-06 12:39:20.777,27.67,476.0,0.8,0.56,-0.01,0.28,0.37,-6.4
2024-12-06 12:39:20.874,29.7,485.0,0.82,0.57,-0.01,-0.15,1.59,-6.76
2024-12-06 12:39:20.877,24.07,477.0,0.82,0.57,-0.02,0.16,0.43,-8.05
2024-12-06 12:39:20.885,26.1,491.0,0.79,0.56,-0.02,0.34,-0.73,-9.21
2024-12-06 12:39:20.916,34.42,491.0,0.79,0.56,-0.01,-0.27,-0.48,-10.85
2024-12-06 12:39:20.941,34.42,476.0,0.79,0.57,-0.01,-0.21,-0.36,-10.98
2024-12-06 12:39:20.977,32.4,494.0,0.8,0.57,-0.0,-1.55,-0.06,-11.16
2024-12-06 12:39:20.996,33.97,485.0,0.79,0.58,-0.02,-2.59,-1.15,-11.59
2024-12-06 12:39:21.25,31.5,498.0,0.78,0.58,-0.02,-2.77,-1.58,-12.56
2024-12-06 12:39:21.54,38.25,485.0,0.8,0.6,-0.02,-2.83,-1.15,-12.01
2024-12-06 12:39:21.89,39.6,491.0,0.79,0.59,-0.02,-2.04,-0.85,-11.83
2024-12-06 12:39:21.109,40.5,502.0,0.79,0.6,-0.01,-2.34,-1.64,-12.56
2024-12-06 12:39:21.135,35.33,502.0,0.8,0.62,-0.01,-2.4,-2.25,-12.14
2024-12-06 12:39:21.164,38.47,505.0,0.8,0.63,-0.0,-1.92,-1.83,-11.65
2024-12-06 12:39:21.200,41.85,500.0,0.79,0.63,-0.02,-2.4,-1.34,-9.57
2024-12-06 12:39:21.221,40.95,500.0,0.78,0.62,-0.02,-2.59,-2.31,-9.33
2024-12-06 12:39:21.246,43.88,486.0,0.78,0.63,-0.02,-2.65,-3.05,-7.99
2024-12-06 12:39:21.274,43.88,486.0,0.76,0.62,-0.02,-2.46,-2.31,-7.68
2024-12-06 12:39:21.325,46.57,491.0,0.78,0.63,-0.01,-1.85,-1.34,-8.23
2024-12-06 12:39:21.359,46.12,494.0,0.77,0.65,-0.01,-1.79,-1.34,-6.34
2024-12-06 12:39:21.384,51.3,501.0,0.77,0.64,-0.02,-2.04,-1.77,-5.73
2024-12-06 12:39:21.428,51.07,494.0,0.76,0.65,-0.02,-2.04,-2.19,-5.12
2024-12-06 12:39:21.445,46.12,527.0,0.75,0.64,-0.0,-2.77,-1.28,-5.06
2024-12-06 12:39:21.482,55.8,494.0,0.74,0.63,-0.0,-3.07,-1.09,-5.48
2024-12-06 12:39:21.497,48.38,479.0,0.74,0.64,0.0,-3.87,-1.28,-6.15
2024-12-06 12:39:21.542,51.3,507.0,0.75,0.65,-0.01,-3.93,-1.7,-6.64
2024-12-06 12:39:21.551,55.12,498.0,0.74,0.65,-0.01,-3.99,-1.83,-6.4
2024-12-06 12:39:21.579,58.05,501.0,0.75,0.66,-0.02,-4.05,-2.44,-5.73
2024-12-06 12:39:21.607,52.88,522.0,0.74,0.66,-0.02,-4.3,-3.23,-4.75
2024-12-06 12:39:21.672,54.0,521.0,0.75,0.67,-0.0,-5.27,-3.78,-5.18
2024-12-06 12:39:21.674,59.85,517.0,0.74,0.67,-0.01,-5.21,-4.57,-4.69
2024-12-06 12:39:21.689,60.52,521.0,0.75,0.67,-0.01,-4.3,-6.59,-4.57
2024-12-06 12:39:21.717,63.45,505.0,0.75,0.67,0.01,-4.78,-7.32,-3.71
2024-12-06 12:39:21.764,61.65,505.0,0.73,0.67,0.01,-5.33,-6.83,-3.9
2024-12-06 12:39:21.773,57.6,521.0,0.73,0.66,-0.01,-5.82,-6.59,-3.47
2024-12-06 12:39:21.800,62.1,514.0,0.73,0.64,-0.02,-6.31,-7.01,-3.77
2024-12-06 12:39:21.829,66.15,528.0,0.74,0.64,-0.02,-6.49,-6.22,-4.32
2024-12-06 12:39:21.945,60.97,519.0,0.73,0.68,-0.01,-5.46,-3.41,-4.87
2024-12-06 12:39:21.949,65.92,527.0,0.72,0.68,-0.01,-5.21,-3.29,-5.48
2024-12-06 12:39:21.990,68.62,507.0,0.72,0.67,-0.0,-4.3,-2.25,-6.09
2024-12-06 12:39:21.998,70.42,526.0,0.72,0.69,-0.02,-3.32,-1.52,-5.79
2024-12-06 12:39:22.19,69.3,525.0,0.72,0.68,-0.02,-2.89,-0.97,-5.36
2024-12-06 12:39:22.46,68.62,530.0,0.73,0.69,-0.01,-2.71,0.07,-5.18
2024-12-06 12:39:22.75,73.35,532.0,0.72,0.71,0.0,-2.53,-0.06,-4.14
2024-12-06 12:39:22.103,74.25,523.0,0.71,0.7,-0.01,-2.71,-0.42,-4.14
2024-12-06 12:39:22.130,74.7,540.0,0.72,0.7,-0.01,-2.89,-1.46,-2.98
2024-12-06 12:39:22.157,72.9,533.0,0.71,0.69,-0.01,-2.28,-1.58,-3.35
2024-12-06 12:39:22.187,78.53,523.0,0.73,0.68,-0.0,-1.98,-2.25,-2.74
2024-12-06 12:39:22.219,77.17,538.0,0.73,0.7,-0.01,-1.92,-3.23,-2.0
2024-12-06 12:39:22.244,80.32,526.0,0.72,0.68,-0.01,-1.85,-3.35,-1.39
2024-12-06 12:39:22.270,76.72,539.0,0.72,0.7,0.0,-1.85,-3.23,-0.66
2024-12-06 12:39:22.296,73.35,531.0,0.71,0.69,-0.02,-1.98,-3.11,0.01
2024-12-06 12:39:22.323,79.65,549.0,0.73,0.68,-0.01,-1.79,-3.41,-0.29
2024-12-06 12:39:22.351,83.25,558.0,0.72,0.69,-0.02,-1.67,-4.08,0.19
2024-12-06 12:39:22.378,80.32,550.0,0.72,0.67,-0.02,-1.43,-4.08,-0.05
2024-12-06 12:39:22.411,79.65,555.0,0.74,0.69,-0.01,-0.94,-3.29,1.23
2024-12-06 12:39:23.715,86.85,589.0,0.76,0.63,-0.06,1.44,0.37,1.54
2024-12-06 12:39:23.724,85.05,610.0,0.76,0.63,-0.06,1.44,0.37,1.54
2024-12-06 12:39:23.731,88.2,588.0,0.76,0.62,-0.06,1.5,0.55,1.35
2024-12-06 12:39:23.742,86.4,589.0,0.77,0.62,-0.06,1.56,0.55,1.23
2024-12-06 12:39:23.748,85.95,592.0,0.77,0.62,-0.06,1.69,0.43,1.23
2024-12-06 12:39:23.754,88.2,588.0,0.77,0.62,-0.06,1.75,0.19,1.23
2024-12-06 12:39:23.766,84.6,595.0,0.77,0.62,-0.06,1.81,-0.06,1.17
2024-12-06 12:39:23.806,85.95,588.0,0.77,0.62,-0.06,1.56,-0.24,0.44
2024-12-06 12:39:23.808,88.2,586.0,0.77,0.62,-0.05,1.56,-0.24,0.44
2024-12-06 12:39:23.816,85.72,586.0,0.77,0.61,-0.05,1.44,-0.06,0.32
2024-12-06 12:39:23.824,82.12,610.0,0.77,0.61,-0.05,1.38,-0.06,0.32
2024-12-06 12:39:23.832,85.72,599.0,0.77,0.61,-0.05,1.32,-0.06,0.44
2024-12-06 12:39:23.842,87.3,606.0,0.77,0.61,-0.05,1.14,-0.12,0.44
2024-12-06 12:39:23.847,85.28,590.0,0.77,0.61,-0.05,0.95,-0.06,0.5
2024-12-06 12:39:23.856,84.6,597.0,0.77,0.61,-0.05,0.65,0.07,0.5
2024-12-06 12:39:23.864,88.2,600.0,0.77,0.61,-0.05,0.65,0.07,0.5
2024-12-06 12:39:23.872,85.72,594.0,0.77,0.61,-0.04,0.4,0.19,0.56
2024-12-06 12:39:23.879,86.4,591.0,0.78,0.62,-0.04,0.16,0.31,0.8
2024-12-06 12:39:23.887,86.17,588.0,0.78,0.62,-0.04,-0.02,0.25,1.17
2024-12-06 12:39:23.895,87.07,601.0,0.78,0.62,-0.04,-0.08,0.13,1.54
2024-12-06 12:39:23.903,87.52,594.0,0.79,0.61,-0.05,-0.08,0.0,1.96
2024-12-06 12:39:24.44,90.0,589.0,0.78,0.61,-0.05,1.38,0.37,4.4
2024-12-06 12:39:24.48,83.47,608.0,0.77,0.61,-0.05,1.5,0.62,4.59
2024-12-06 12:39:24.50,86.85,598.0,0.77,0.61,-0.05,1.69,0.86,4.71
2024-12-06 12:39:24.55,86.4,602.0,0.77,0.61,-0.05,1.93,0.92,4.71
2024-12-06 12:39:24.63,84.38,603.0,0.77,0.61,-0.05,1.93,0.92,4.59
2024-12-06 12:39:24.71,84.15,591.0,0.78,0.61,-0.06,1.87,0.8,4.59
2024-12-06 12:39:24.85,88.42,583.0,0.78,0.61,-0.06,1.81,0.68,4.47
2024-12-06 12:39:24.87,87.07,605.0,0.78,0.61,-0.06,1.75,0.68,4.28
2024-12-06 12:39:24.94,85.05,598.0,0.78,0.6,-0.06,1.75,0.55,4.04
2024-12-06 12:39:24.102,86.85,636.0,0.78,0.6,-0.06,1.75,0.25,3.67
2024-12-06 12:39:24.110,84.6,579.0,0.78,0.6,-0.06,1.69,0.07,3.31
2024-12-06 12:39:24.149,88.88,577.0,0.78,0.6,-0.05,1.87,0.0,2.51
2024-12-06 12:39:24.153,86.62,583.0,0.78,0.6,-0.05,1.87,0.0,2.33
2024-12-06 12:39:24.156,87.3,589.0,0.78,0.6,-0.05,1.87,0.0,2.33
2024-12-06 12:39:24.168,81.9,578.0,0.78,0.6,-0.05,1.75,0.25,1.96
2024-12-06 12:39:24.173,86.4,581.0,0.77,0.6,-0.05,1.62,0.49,1.78
2024-12-06 12:39:24.179,83.47,595.0,0.78,0.59,-0.05,1.62,0.49,1.6
2024-12-06 12:39:24.187,86.4,597.0,0.78,0.59,-0.05,1.62,0.25,1.48
2024-12-06 12:39:24.210,86.62,597.0,0.78,0.59,-0.06,1.62,0.25,1.41
2024-12-06 12:39:24.213,84.15,582.0,0.77,0.59,-0.06,1.32,-0.12,1.29
2024-12-06 12:39:24.222,85.95,583.0,0.77,0.59,-0.06,1.08,0.07,0.99
2024-12-06 12:39:24.251,83.92,595.0,0.77,0.59,-0.06,0.89,-0.06,0.07
2024-12-06 12:39:24.257,82.8,560.0,0.77,0.59,-0.05,0.83,-0.18,-0.23
2024-12-06 12:39:24.264,87.07,573.0,0.77,0.59,-0.05,0.65,-0.06,-0.6
2024-12-06 12:39:24.273,87.3,580.0,0.77,0.59,-0.05,0.53,0.0,-0.91
2024-12-06 12:39:24.282,87.07,585.0,0.78,0.59,-0.05,0.53,0.0,-1.15
2024-12-06 12:39:24.287,86.85,588.0,0.78,0.59,-0.05,0.47,-0.12,-1.15
2024-12-06 12:39:24.295,87.52,589.0,0.78,0.59,-0.06,0.47,-0.36,-1.33
2024-12-06 12:39:24.303,86.85,584.0,0.78,0.59,-0.06,0.4,-0.48,-1.45
2024-12-06 12:39:24.315,78.53,583.0,0.78,0.59,-0.06,0.34,-0.48,-1.58
2024-12-06 12:39:24.382,88.65,579.0,0.78,0.59,-0.06,0.34,-0.42,-1.82
2024-12-06 12:39:24.386,87.75,582.0,0.78,0.59,-0.06,-0.08,0.49,-2.37
2024-12-06 12:39:24.395,87.52,576.0,0.78,0.59,-0.06,-0.02,0.68,-2.25
2024-12-06 12:39:24.397,87.52,581.0,0.78,0.59,-0.06,0.04,0.68,-2.31
2024-12-06 12:39:24.406,85.95,580.0,0.78,0.59,-0.06,0.04,0.68,-2.31
2024-12-06 12:39:24.412,85.28,579.0,0.78,0.59,-0.07,-0.02,0.68,-2.49
2024-12-06 12:39:24.422,82.8,582.0,0.78,0.59,-0.07,-0.15,0.8,-2.86
2024-12-06 12:39:24.425,86.85,591.0,0.78,0.59,-0.06,-0.15,0.68,-3.22
2024-12-06 12:39:24.434,85.5,601.0,0.78,0.59,-0.06,-0.02,0.37,-3.65
2024-12-06 12:39:24.443,87.07,591.0,0.78,0.6,-0.06,0.1,0.07,-4.02
2024-12-06 12:39:24.474,86.62,579.0,0.78,0.6,-0.07,0.1,0.07,-4.02
2024-12-06 12:39:24.476,83.92,593.0,0.78,0.59,-0.06,-0.02,0.13,-4.93
2024-12-06 12:39:24.480,84.82,583.0,0.78,0.59,-0.06,0.16,0.31,-4.99
2024-12-06 12:39:24.487,86.85,580.0,0.78,0.59,-0.06,0.16,0.31,-4.99
2024-12-06 12:39:24.495,87.52,588.0,0.78,0.59,-0.06,0.16,0.31,-4.99
2024-12-06 12:39:24.504,83.47,580.0,0.78,0.6,-0.06,-0.02,0.49,-4.87
2024-12-06 12:39:24.515,83.03,592.0,0.78,0.6,-0.06,-0.21,0.8,-4.75
2024-12-06 12:39:24.519,83.03,579.0,0.78,0.6,-0.05,-0.39,0.8,-4.57
2024-12-06 12:39:24.526,87.3,586.0,0.78,0.6,-0.05,-0.39,0.49,-4.38
2024-12-06 12:39:24.567,82.12,588.0,0.79,0.6,-0.05,-0.39,0.49,-4.38
2024-12-06 12:39:24.621,83.25,575.0,0.78,0.61,-0.06,-0.63,-0.73,-4.02
2024-12-06 12:39:24.625,86.17,582.0,0.77,0.61,-0.06,-0.39,-0.61,-3.96
2024-12-06 12:39:24.634,85.95,578.0,0.76,0.61,-0.06,-0.21,-0.48,-4.26
2024-12-06 12:39:24.651,85.95,601.0,0.77,0.61,-0.06,-0.21,-0.36,-4.45
2024-12-06 12:39:24.660,85.5,584.0,0.77,0.61,-0.06,-0.27,-0.48,-4.57
2024-12-06 12:39:24.662,86.85,580.0,0.77,0.61,-0.06,-0.27,-0.48,-4.57
2024-12-06 12:39:24.664,83.7,585.0,0.77,0.61,-0.06,-0.39,-0.48,-4.69
2024-12-06 12:39:24.672,87.75,597.0,0.77,0.61,-0.05,-0.45,-0.42,-4.93
2024-12-06 12:39:24.685,90.0,606.0,0.77,0.61,-0.05,-0.57,-0.42,-5.06
2024-12-06 12:39:24.700,87.07,590.0,0.77,0.61,-0.05,-0.69,-0.54,-4.99
2024-12-06 12:39:24.704,85.72,594.0,0.77,0.61,-0.05,-0.69,-0.54,-4.99
2024-12-06 12:39:24.713,82.35,592.0,0.78,0.61,-0.04,-0.69,-0.48,-4.99
2024-12-06 12:39:24.720,84.15,576.0,0.78,0.61,-0.04,-0.76,-0.3,-4.93
2024-12-06 12:39:24.728,85.28,582.0,0.78,0.61,-0.05,-0.69,-0.36,-4.81
2024-12-06 12:39:24.742,87.52,602.0,0.77,0.61,-0.05,-0.63,-0.48,-4.81
2024-12-06 12:39:24.744,83.92,602.0,0.77,0.61,-0.05,-0.69,-0.54,-4.87
2024-12-06 12:39:24.752,83.7,591.0,0.77,0.62,-0.05,-0.69,-0.61,-5.06
2024-12-06 12:39:24.760,85.95,599.0,0.77,0.62,-0.05,-0.88,-0.61,-5.06
2024-12-06 12:39:24.768,85.72,591.0,0.77,0.62,-0.05,-1.0,-0.48,-5.36
2024-12-06 12:39:24.778,84.38,594.0,0.77,0.62,-0.05,-1.06,-0.18,-5.6
2024-12-06 12:39:24.785,86.62,584.0,0.77,0.62,-0.06,-1.06,0.07,-5.79
2024-12-06 12:39:24.824,85.5,594.0,0.77,0.62,-0.07,-0.63,1.16,-5.18
2024-12-06 12:39:24.827,83.25,609.0,0.77,0.63,-0.07,-0.33,1.59,-4.75
2024-12-06 12:39:24.831,85.28,595.0,0.77,0.63,-0.07,-0.08,1.9,-4.38
2024-12-06 12:39:24.839,87.07,583.0,0.78,0.63,-0.07,0.22,2.14,-4.08
2024-12-06 12:39:24.850,88.2,596.0,0.78,0.63,-0.07,0.22,2.14,-4.08
2024-12-06 12:39:24.853,86.62,575.0,0.78,0.63,-0.07,0.53,2.32,-3.77
2024-12-06 12:39:24.864,85.72,573.0,0.78,0.63,-0.07,0.71,2.51,-3.59
2024-12-06 12:39:24.877,86.17,580.0,0.78,0.63,-0.06,0.83,2.75,-3.47
2024-12-06 12:39:24.881,87.75,580.0,0.78,0.63,-0.06,0.95,2.87,-3.41
2024-12-06 12:39:24.884,83.7,593.0,0.78,0.63,-0.05,1.26,2.75,-3.41
2024-12-06 12:39:24.902,85.05,603.0,0.78,0.63,-0.05,1.56,2.69,-3.35
2024-12-06 12:39:24.921,88.42,579.0,0.78,0.62,-0.05,1.75,2.69,-3.29
2024-12-06 12:39:24.931,87.75,590.0,0.78,0.63,-0.05,1.69,2.57,-2.98
2024-12-06 12:39:24.937,81.67,583.0,0.77,0.63,-0.05,1.69,2.57,-2.98
2024-12-06 12:39:24.947,86.17,582.0,0.77,0.63,-0.05,1.56,2.51,-2.8
2024-12-06 12:39:24.950,85.5,606.0,0.77,0.63,-0.04,1.56,2.93,-2.68
2024-12-06 12:39:24.953,86.85,564.0,0.77,0.63,-0.04,1.56,3.3,-2.49
2024-12-06 12:39:24.965,88.65,550.0,0.77,0.63,-0.04,1.69,3.54,-2.25
2024-12-06 12:39:24.971,86.62,566.0,0.77,0.63,-0.05,1.99,3.79,-1.94
2024-12-06 12:39:24.977,86.17,550.0,0.77,0.62,-0.05,1.99,3.79,-1.94
2024-12-06 12:39:25.78,85.72,533.0,0.75,0.63,-0.04,5.1,9.04,-4.38
2024-12-06 12:39:25.92,87.3,543.0,0.75,0.63,-0.04,4.98,9.83,-4.32
2024-12-06 12:39:25.102,80.55,543.0,0.74,0.63,-0.04,4.86,10.56,-4.14
2024-12-06 12:39:25.106,85.72,522.0,0.75,0.63,-0.04,4.86,11.05,-3.96
2024-12-06 12:39:25.116,82.8,526.0,0.75,0.62,-0.04,5.16,11.6,-3.77
2024-12-06 12:39:25.124,86.17,520.0,0.75,0.62,-0.04,5.53,12.21,-3.83
2024-12-06 12:39:25.130,87.3,514.0,0.76,0.62,-0.03,5.78,12.39,-4.08
2024-12-06 12:39:25.138,86.4,510.0,0.76,0.62,-0.03,5.78,12.39,-4.08
2024-12-06 12:39:25.148,84.82,508.0,0.76,0.63,-0.04,5.71,12.27,-4.26
2024-12-06 12:39:25.155,87.3,514.0,0.77,0.62,-0.05,5.41,11.97,-4.75
2024-12-06 12:39:25.170,86.85,524.0,0.77,0.62,-0.04,5.41,11.48,-5.3
2024-12-06 12:39:25.173,83.25,530.0,0.77,0.62,-0.04,5.47,10.93,-5.73
2024-12-06 12:39:25.177,86.17,542.0,0.77,0.62,-0.03,5.47,10.2,-6.09
2024-12-06 12:39:25.185,86.17,525.0,0.77,0.63,-0.03,5.47,10.2,-6.09
2024-12-06 12:39:25.199,84.38,510.0,0.77,0.63,-0.04,5.35,9.53,-6.34
2024-12-06 12:39:25.204,85.72,513.0,0.77,0.63,-0.03,5.23,9.04,-6.4
2024-12-06 12:39:25.213,84.82,527.0,0.76,0.63,-0.03,5.29,8.49,-6.46
2024-12-06 12:39:25.221,88.88,526.0,0.76,0.63,-0.02,5.23,8.24,-6.52
2024-12-06 12:39:25.231,85.5,515.0,0.76,0.63,-0.02,5.04,8.37,-6.46
2024-12-06 12:39:25.241,84.6,513.0,0.76,0.64,-0.03,5.04,8.37,-6.46
2024-12-06 12:39:25.265,85.72,514.0,0.75,0.65,-0.03,4.25,7.7,-5.3
2024-12-06 12:39:25.273,85.95,513.0,0.75,0.65,-0.03,4.25,7.7,-5.3
2024-12-06 12:39:25.281,86.17,511.0,0.76,0.65,-0.03,4.01,7.15,-4.93
2024-12-06 12:39:25.286,86.85,504.0,0.76,0.65,-0.03,3.76,6.66,-4.57
2024-12-06 12:39:25.294,87.07,516.0,0.76,0.65,-0.03,3.39,5.99,-4.26
2024-12-06 12:39:25.303,88.2,526.0,0.76,0.65,-0.03,2.97,5.31,-4.14
2024-12-06 12:39:25.309,84.38,520.0,0.76,0.65,-0.03,2.54,4.64,-4.02
2024-12-06 12:39:25.318,83.7,526.0,0.76,0.65,-0.03,2.54,4.64,-4.02
2024-12-06 12:39:25.330,88.2,549.0,0.76,0.65,-0.03,2.3,4.03,-3.96
2024-12-06 12:39:25.334,85.72,519.0,0.76,0.65,-0.03,2.17,3.42,-3.96
2024-12-06 12:39:25.340,85.95,500.0,0.76,0.65,-0.03,2.11,3.0,-4.02
2024-12-06 12:39:25.352,85.5,524.0,0.76,0.65,-0.03,2.05,2.81,-4.08
2024-12-06 12:39:25.371,82.57,515.0,0.77,0.65,-0.02,2.05,2.57,-4.32
2024-12-06 12:39:25.380,85.72,507.0,0.77,0.64,-0.02,2.05,2.45,-4.81
2024-12-06 12:39:25.391,83.25,517.0,0.76,0.64,-0.02,1.93,2.45,-5.18
2024-12-06 12:39:25.394,83.92,507.0,0.76,0.65,-0.02,1.75,2.32,-5.48
2024-12-06 12:39:25.396,87.97,504.0,0.76,0.65,-0.02,1.62,1.96,-5.67
2024-12-06 12:39:25.402,87.07,514.0,0.75,0.65,-0.02,1.62,1.96,-5.67
2024-12-06 12:39:25.415,82.8,518.0,0.75,0.65,-0.02,1.5,1.71,-5.67
2024-12-06 12:39:25.422,83.92,506.0,0.74,0.65,-0.02,1.56,1.59,-5.48
2024-12-06 12:39:25.427,81.9,511.0,0.74,0.65,-0.02,1.75,1.77,-5.06
2024-12-06 12:39:25.436,84.15,506.0,0.74,0.65,-0.02,1.93,1.77,-4.51
2024-12-06 12:39:25.463,88.2,515.0,0.73,0.65,-0.02,2.11,1.84,-3.96
2024-12-06 12:39:25.498,83.03,511.0,0.74,0.64,-0.02,1.56,3.36,-3.59
2024-12-06 12:39:25.501,86.85,519.0,0.75,0.65,-0.02,1.14,2.93,-3.71
2024-12-06 12:39:25.511,87.52,502.0,0.75,0.65,-0.03,0.95,2.51,-3.9
2024-12-06 12:39:25.521,83.7,508.0,0.75,0.65,-0.03,0.83,2.14,-3.96
2024-12-06 12:39:25.525,85.95,512.0,0.75,0.65,-0.03,0.83,2.14,-3.96
2024-12-06 12:39:25.539,82.35,496.0,0.75,0.65,-0.04,0.77,1.71,-4.02
2024-12-06 12:39:25.543,86.4,500.0,0.74,0.65,-0.03,0.71,1.29,-3.96
2024-12-06 12:39:25.548,87.75,504.0,0.74,0.65,-0.03,0.89,0.8,-3.9
2024-12-06 12:39:25.556,87.75,500.0,0.74,0.65,-0.03,0.53,1.1,-3.96
2024-12-06 12:39:25.624,83.03,499.0,0.75,0.66,-0.02,-0.51,-0.79,-2.43
2024-12-06 12:39:25.633,86.85,517.0,0.75,0.66,-0.02,-0.69,-0.79,-2.19
2024-12-06 12:39:25.646,83.7,505.0,0.75,0.66,-0.02,-0.82,-0.85,-1.82
2024-12-06 12:39:25.649,83.7,521.0,0.75,0.66,-0.02,-0.82,-0.85,-1.82
2024-12-06 12:39:25.655,87.3,501.0,0.75,0.66,-0.02,-0.88,-0.97,-1.39
2024-12-06 12:39:25.668,83.7,518.0,0.75,0.67,-0.02,-0.69,-1.09,-0.97
2024-12-06 12:39:25.739,84.6,498.0,0.75,0.67,-0.03,-0.63,-1.09,-0.66
2024-12-06 12:39:25.743,89.32,508.0,0.74,0.67,-0.03,0.22,-1.64,0.74
2024-12-06 12:39:25.750,88.2,499.0,0.74,0.67,-0.03,0.4,-1.4,0.74
2024-12-06 12:39:25.753,81.45,515.0,0.74,0.67,-0.03,0.65,-1.22,0.86
2024-12-06 12:39:25.767,78.3,505.0,0.74,0.66,-0.02,0.65,-1.22,0.86
2024-12-06 12:39:25.772,85.5,502.0,0.74,0.66,-0.02,0.83,-0.79,0.93
2024-12-06 12:39:25.780,86.62,498.0,0.73,0.66,-0.02,1.08,-0.42,0.99
2024-12-06 12:39:25.787,85.95,519.0,0.73,0.66,-0.03,1.2,-0.18,0.93
2024-12-06 12:39:25.794,88.2,502.0,0.73,0.66,-0.03,1.26,0.0,0.86
2024-12-06 12:39:25.800,84.15,504.0,0.73,0.66,-0.03,1.32,0.19,0.62
2024-12-06 12:39:25.811,87.3,501.0,0.73,0.66,-0.03,1.32,0.19,0.62
2024-12-06 12:39:25.821,85.72,508.0,0.73,0.66,-0.03,1.38,0.25,0.44
2024-12-06 12:39:25.826,87.07,498.0,0.73,0.66,-0.03,1.38,0.37,0.19
2024-12-06 12:39:25.859,87.07,498.0,0.73,0.65,-0.03,1.38,0.43,-0.17
2024-12-06 12:39:25.875,76.5,500.0,0.72,0.65,-0.02,1.44,0.68,-0.78
2024-12-06 12:39:26.899,86.4,500.0,0.73,0.66,-0.03,0.65,-0.24,-0.78
2024-12-06 12:39:26.912,79.2,503.0,0.74,0.71,-0.01,0.28,-1.4,-0.78
2024-12-06 12:39:26.918,79.88,505.0,0.7,0.77,-0.05,-2.22,-0.91,5.32
2024-12-06 12:39:26.946,75.6,517.0,0.73,0.72,-0.02,-4.23,-2.5,8.86
2024-12-06 12:39:26.973,75.82,511.0,0.75,0.65,-0.03,-6.0,-3.66,11.18
2024-12-06 12:39:27.4,70.42,503.0,0.73,0.58,-0.03,-4.97,-1.28,8.56
2024-12-06 12:39:27.28,72.45,500.0,0.76,0.56,-0.01,-1.18,1.16,4.34
2024-12-06 12:39:27.163,74.03,510.0,0.79,0.57,0.0,3.58,3.79,0.68
2024-12-06 12:39:27.166,70.2,482.0,0.77,0.65,-0.04,6.02,4.89,5.75
2024-12-06 12:39:27.198,65.47,487.0,0.78,0.63,-0.04,6.08,6.84,8.19
2024-12-06 12:39:27.225,62.77,485.0,0.8,0.62,-0.03,6.08,5.56,7.76
2024-12-06 12:39:27.254,64.35,488.0,0.8,0.63,-0.03,7.48,4.64,7.95
2024-12-06 12:39:27.301,58.95,488.0,0.77,0.62,-0.02,8.52,5.56,8.43
2024-12-06 12:39:27.324,64.8,478.0,0.76,0.62,-0.02,8.52,5.19,7.58
2024-12-06 12:39:27.340,61.2,501.0,0.76,0.61,-0.03,7.97,5.07,7.33
2024-12-06 12:39:27.361,59.17,494.0,0.75,0.61,-0.0,7.0,5.01,4.77
2024-12-06 12:39:27.388,60.07,474.0,0.77,0.62,-0.01,6.08,5.86,3.61
2024-12-06 12:39:27.419,55.12,472.0,0.78,0.61,-0.01,5.47,5.5,4.53
2024-12-06 12:39:27.447,60.75,477.0,0.76,0.58,-0.02,4.19,4.16,1.6
2024-12-06 12:39:27.471,54.22,481.0,0.79,0.6,-0.01,3.21,3.18,1.72
2024-12-06 12:39:27.504,53.77,488.0,0.78,0.59,-0.01,2.72,2.14,1.17
2024-12-06 12:39:27.546,54.22,474.0,0.78,0.6,-0.01,2.05,1.1,0.01
2024-12-06 12:39:27.554,50.4,470.0,0.77,0.59,-0.05,2.3,2.57,-0.54
2024-12-06 12:39:27.584,52.88,476.0,0.77,0.61,-0.01,2.6,2.63,-2.0
2024-12-06 12:39:27.610,49.95,488.0,0.79,0.61,-0.02,1.69,3.79,-0.72
2024-12-06 12:39:27.637,52.88,495.0,0.79,0.6,-0.03,1.08,2.87,0.01
2024-12-06 12:39:27.665,49.05,487.0,0.8,0.6,-0.02,0.59,1.65,0.86
2024-12-06 12:39:27.693,44.1,486.0,0.8,0.6,-0.02,1.2,1.84,1.96
2024-12-06 12:39:27.721,46.35,477.0,0.82,0.62,-0.02,1.32,2.81,2.88
2024-12-06 12:39:27.753,47.7,487.0,0.82,0.6,-0.04,1.62,3.54,5.93
2024-12-06 12:39:27.775,45.45,472.0,0.8,0.57,-0.03,1.93,1.1,5.81
2024-12-06 12:39:27.804,43.2,495.0,0.81,0.57,-0.0,1.44,0.07,4.71
2024-12-06 12:39:27.839,43.42,480.0,0.81,0.58,-0.01,1.26,1.96,6.11
2024-12-06 12:39:27.858,42.52,470.0,0.81,0.58,-0.02,1.62,3.12,7.64
2024-12-06 12:39:27.892,41.62,474.0,0.79,0.56,-0.03,1.5,1.9,5.93
2024-12-06 12:39:27.916,35.77,475.0,0.81,0.57,-0.02,1.5,1.16,5.69
2024-12-06 12:39:27.942,37.12,485.0,0.78,0.57,-0.03,1.56,0.43,3.79
2024-12-06 12:39:27.982,38.25,474.0,0.8,0.58,-0.01,1.32,1.47,3.67
2024-12-06 12:39:27.997,36.9,485.0,0.8,0.58,-0.02,1.14,1.59,4.59
2024-12-06 12:39:28.25,37.12,475.0,0.81,0.57,-0.01,0.53,0.49,3.79
2024-12-06 12:39:28.54,34.2,483.0,0.8,0.54,-0.03,0.16,1.16,6.11
2024-12-06 12:39:28.81,33.75,492.0,0.79,0.55,0.01,-0.27,0.98,3.37
2024-12-06 12:39:28.109,33.52,473.0,0.83,0.57,-0.0,-0.88,1.47,4.28
2024-12-06 12:39:28.221,31.5,486.0,0.81,0.55,-0.02,-0.15,0.74,5.02
2024-12-06 12:39:28.227,30.6,488.0,0.82,0.56,-0.02,0.28,0.07,3.98
2024-12-06 12:39:28.248,30.15,488.0,0.83,0.55,-0.01,0.22,-0.3,3.49
2024-12-06 12:39:28.275,30.38,491.0,0.82,0.56,-0.02,0.16,-0.54,3.73
2024-12-06 12:39:28.303,22.72,477.0,0.81,0.55,-0.01,-0.27,0.07,3.37
2024-12-06 12:39:28.330,27.67,473.0,0.83,0.56,-0.01,-0.33,0.98,4.89
2024-12-06 12:39:28.356,21.82,482.0,0.83,0.55,-0.0,-1.06,1.16,6.05
2024-12-06 12:39:28.385,24.52,472.0,0.83,0.53,0.0,-1.06,0.31,5.5
2024-12-06 12:39:28.436,24.07,484.0,0.86,0.54,0.0,-1.43,-0.61,4.89
2024-12-06 12:39:28.454,21.15,487.0,0.83,0.52,-0.01,-0.63,-0.24,5.63
2024-12-06 12:39:28.467,21.82,469.0,0.83,0.51,0.0,-0.51,-0.85,3.61
2024-12-06 12:39:28.494,18.0,479.0,0.83,0.52,-0.02,-0.02,-0.61,3.43
2024-12-06 12:39:28.527,15.97,488.0,0.85,0.53,-0.01,-0.02,0.31,3.31
2024-12-06 12:39:28.551,17.77,470.0,0.87,0.53,-0.01,-0.45,0.55,4.89
2024-12-06 12:39:28.581,12.38,485.0,0.84,0.51,-0.01,-1.3,-1.64,5.56
2024-12-06 12:39:28.606,17.32,475.0,0.85,0.51,0.01,-1.79,-2.62,3.67
2024-12-06 12:39:28.637,15.3,479.0,0.84,0.51,0.0,-1.43,-1.89,3.49
2024-12-06 12:39:28.675,13.27,471.0,0.83,0.49,-0.0,-1.79,-0.54,2.15
2024-12-06 12:39:28.689,14.85,482.0,0.88,0.53,-0.02,-1.24,-0.12,5.56
2024-12-06 12:39:28.716,8.77,476.0,0.86,0.53,-0.03,-1.06,-15.5,6.72
2024-12-06 12:39:28.743,7.65,472.0,0.86,0.52,-0.02,-1.24,-0.97,5.56
2024-12-06 12:39:28.894,12.38,487.0,0.88,0.52,-0.01,-0.21,-1.7,7.09
2024-12-06 12:39:28.931,7.65,467.0,0.88,0.49,-0.01,0.1,-0.24,4.53
2024-12-06 12:39:28.935,0.45,472.0,0.83,0.5,-0.02,0.4,-2.44,10.63
2024-12-06 12:39:30.371,1.8,486.0,0.87,0.47,-0.02,0.22,0.19,-0.84
2024-12-06 12:39:30.381,0.45,499.0,0.87,0.47,-0.02,0.28,0.19,-0.84
2024-12-06 12:39:30.386,1.57,474.0,0.87,0.47,-0.03,0.34,0.0,-0.84
2024-12-06 12:39:30.393,-0.67,486.0,0.87,0.47,-0.03,0.34,0.0,-0.84
2024-12-06 12:39:30.408,2.47,484.0,0.87,0.47,-0.03,0.47,0.19,-0.78
2024-12-06 12:39:30.411,0.22,496.0,0.87,0.47,-0.03,0.53,0.13,-0.84
2024-12-06 12:39:30.417,-0.9,481.0,0.87,0.47,-0.03,0.59,0.07,-0.84
2024-12-06 12:39:30.426,4.05,483.0,0.87,0.47,-0.03,0.53,0.0,-0.91
2024-12-06 12:39:30.432,4.28,503.0,0.87,0.47,-0.03,0.53,0.0,-0.91
2024-12-06 12:39:30.446,3.82,482.0,0.87,0.47,-0.02,0.59,-0.12,-0.91
2024-12-06 12:39:30.455,2.25,474.0,0.87,0.47,-0.02,0.65,-0.3,-0.97
2024-12-06 12:39:30.465,2.25,475.0,0.85,0.46,-0.03,0.77,-1.09,-1.58
2024-12-06 12:39:30.498,3.82,494.0,0.88,0.48,-0.03,0.59,0.13,-0.66
2024-12-06 12:39:30.501,4.05,493.0,0.88,0.48,-0.03,0.59,0.62,-0.29
2024-12-06 12:39:30.508,2.92,494.0,0.87,0.47,-0.04,0.59,0.62,-0.29
2024-12-06 12:39:30.519,0.22,487.0,0.86,0.46,-0.02,0.34,0.62,-0.66
2024-12-06 12:39:30.525,-0.67,484.0,0.87,0.46,-0.02,0.16,0.62,-1.03
2024-12-06 12:39:30.532,0.9,499.0,0.88,0.46,-0.02,0.1,0.49,-1.03
2024-12-06 12:39:30.540,1.35,480.0,0.88,0.47,-0.02,0.04,0.07,-0.91
2024-12-06 12:39:30.549,1.8,487.0,0.88,0.47,-0.02,0.04,-0.24,-0.84
2024-12-06 12:39:30.580,3.15,503.0,0.87,0.47,-0.02,0.16,-0.06,-1.09
2024-12-06 12:39:30.586,-1.35,496.0,0.87,0.47,-0.02,0.16,0.13,-1.09
2024-12-06 12:39:30.598,-1.8,493.0,0.87,0.47,-0.02,0.16,0.13,-1.09
2024-12-06 12:39:30.603,-3.6,481.0,0.87,0.47,-0.02,0.16,0.25,-0.97
2024-12-06 12:39:30.609,-0.9,480.0,0.87,0.47,-0.02,0.28,0.31,-0.84
2024-12-06 12:39:30.624,-2.25,479.0,0.87,0.47,-0.02,0.34,0.37,-0.72
2024-12-06 12:39:30.628,4.95,473.0,0.87,0.47,-0.02,0.4,0.49,-0.78
2024-12-06 12:39:30.631,-7.65,486.0,0.87,0.47,-0.03,0.28,0.49,-0.78
2024-12-06 12:39:30.740,1.57,490.0,0.87,0.47,-0.02,0.28,0.49,-0.78
2024-12-06 12:39:30.756,4.28,484.0,0.87,0.47,-0.02,0.22,0.31,-1.15
2024-12-06 12:39:30.759,-3.38,481.0,0.87,0.47,-0.02,0.16,0.25,-1.15
2024-12-06 12:39:30.767,-2.02,471.0,0.87,0.47,-0.02,0.1,0.19,-1.15
2024-12-06 12:39:30.775,-0.45,494.0,0.87,0.47,-0.02,0.04,0.25,-1.21
2024-12-06 12:39:30.788,2.7,491.0,0.87,0.47,-0.02,0.04,0.25,-1.21
2024-12-06 12:39:30.795,1.8,482.0,0.87,0.47,-0.02,-0.02,0.25,-1.21
2024-12-06 12:39:30.802,1.8,479.0,0.87,0.47,-0.02,-0.02,0.31,-1.15
2024-12-06 12:39:30.807,4.5,498.0,0.87,0.47,-0.02,0.04,0.25,-1.09
2024-12-06 12:39:30.814,-3.82,481.0,0.87,0.47,-0.02,0.1,0.49,-1.03
2024-12-06 12:39:30.848,4.28,479.0,0.87,0.47,-0.02,0.16,0.43,-0.97
2024-12-06 12:39:30.858,0.22,487.0,0.88,0.48,-0.02,0.28,0.19,-1.15
2024-12-06 12:39:30.877,1.35,480.0,0.88,0.48,-0.02,0.28,0.19,-1.21
2024-12-06 12:39:30.882,4.05,519.0,0.88,0.48,-0.02,0.34,0.07,-0.97
2024-12-06 12:39:30.896,0.9,506.0,0.87,0.47,-0.02,0.34,0.07,-0.97
2024-12-06 12:39:30.904,0.67,483.0,0.87,0.47,-0.03,0.34,0.07,-0.91
2024-12-06 12:39:30.906,-1.57,491.0,0.87,0.47,-0.02,0.28,0.0,-0.84
2024-12-06 12:39:30.912,2.47,475.0,0.87,0.47,-0.02,0.28,0.07,-0.78
2024-12-06 12:39:30.916,-3.38,485.0,0.87,0.47,-0.02,0.28,0.13,-0.78
2024-12-06 12:39:30.928,-0.9,482.0,0.87,0.47,-0.02,0.28,0.25,-0.78
2024-12-06 12:39:30.933,2.7,493.0,0.87,0.47,-0.02,0.34,0.25,-0.78
2024-12-06 12:39:30.944,-1.57,520.0,0.87,0.48,-0.02,0.34,0.37,-0.78
2024-12-06 12:39:30.947,-0.67,478.0,0.87,0.47,-0.02,0.34,0.37,-0.84
2024-12-06 12:39:30.955,-3.82,481.0,0.87,0.47,-0.02,0.34,0.43,-0.91
2024-12-06 12:39:30.969,-2.02,483.0,0.87,0.47,-0.02,0.34,0.49,-0.91
2024-12-06 12:39:30.975,1.12,484.0,0.87,0.47,-0.02,0.34,0.49,-0.91
2024-12-06 12:39:30.978,1.57,479.0,0.87,0.47,-0.02,0.4,0.55,-0.97
2024-12-06 12:39:30.987,2.02,486.0,0.87,0.47,-0.02,0.34,0.49,-0.91
2024-12-06 12:39:30.994,1.35,483.0,0.88,0.47,-0.02,0.34,0.31,-0.84
2024-12-06 12:39:31.1,2.02,471.0,0.88,0.47,-0.02,0.34,0.19,-0.84
2024-12-06 12:39:31.35,-1.57,490.0,0.87,0.47,-0.02,0.16,0.07,-0.6
2024-12-06 12:39:31.42,3.82,500.0,0.87,0.47,-0.02,0.1,0.19,-0.6
2024-12-06 12:39:31.48,-2.02,491.0,0.87,0.47,-0.02,0.16,0.19,-0.54
2024-12-06 12:39:31.58,2.25,482.0,0.87,0.47,-0.02,0.16,0.19,-0.6
2024-12-06 12:39:31.70,-3.6,492.0,0.87,0.47,-0.02,0.22,0.25,-0.6
2024-12-06 12:39:31.73,2.47,478.0,0.87,0.47,-0.02,0.28,0.25,-0.66
2024-12-06 12:39:31.79,3.6,481.0,0.87,0.47,-0.02,0.4,0.13,-0.78
2024-12-06 12:39:31.86,2.92,483.0,0.87,0.47,-0.02,0.47,0.13,-0.91
2024-12-06 12:39:31.95,0.45,487.0,0.87,0.47,-0.02,0.4,0.0,-1.03
2024-12-06 12:39:31.113,1.57,483.0,0.87,0.47,-0.02,0.4,0.0,-1.03
2024-12-06 12:39:31.115,-2.25,498.0,0.87,0.48,-0.02,0.28,-0.12,-1.09
2024-12-06 12:39:31.118,0.67,495.0,0.87,0.48,-0.02,0.22,-0.06,-1.09
2024-12-06 12:39:31.137,4.95,496.0,0.87,0.47,-0.02,0.16,0.0,-1.15
2024-12-06 12:39:31.140,1.57,500.0,0.87,0.47,-0.02,0.1,0.07,-1.09
2024-12-06 12:39:31.144,0.9,501.0,0.87,0.47,-0.02,0.1,0.07,-0.97
2024-12-06 12:39:31.148,1.35,479.0,0.87,0.47,-0.02,0.1,0.07,-0.97
2024-12-06 12:39:31.158,1.12,477.0,0.87,0.47,-0.02,0.1,0.13,-0.91
2024-12-06 12:39:31.164,2.47,480.0,0.87,0.47,-0.02,0.1,0.19,-0.84
2024-12-06 12:39:31.172,1.57,476.0,0.88,0.47,-0.02,0.1,0.25,-0.78
2024-12-06 12:39:31.188,1.12,498.0,0.88,0.47,-0.02,0.1,0.25,-0.72
2024-12-06 12:39:31.191,-0.9,478.0,0.88,0.47,-0.02,0.1,0.25,-0.72
2024-12-06 12:39:31.195,4.28,481.0,0.87,0.47,-0.02,0.16,0.25,-0.72
2024-12-06 12:39:32.214,3.38,471.0,0.87,0.47,-0.02,-0.02,0.19,-0.84
2024-12-06 12:39:32.235,-0.67,483.0,0.84,0.46,-0.02,-0.02,-0.61,-0.84
2024-12-06 12:39:32.258,5.4,473.0,0.77,0.44,-0.01,0.22,-1.09,-9.94
2024-12-06 12:39:32.287,4.28,480.0,0.82,0.48,-0.04,2.11,0.8,-11.46
2024-12-06 12:39:32.313,2.7,490.0,0.83,0.48,0.0,1.87,3.97,-12.07
2024-12-06 12:39:32.410,6.07,498.0,0.87,0.51,-0.02,0.4,0.49,-12.44
2024-12-06 12:39:32.424,11.25,472.0,0.89,0.52,-0.02,0.59,1.16,-10.0
2024-12-06 12:39:32.451,15.07,476.0,0.86,0.51,-0.02,0.83,1.41,-8.72
2024-12-06 12:39:32.479,14.4,472.0,0.88,0.52,-0.03,0.65,1.1,-7.37
2024-12-06 12:39:32.509,16.42,471.0,0.85,0.52,-0.04,1.62,0.98,-5.91
2024-12-06 12:39:32.545,12.38,499.0,0.83,0.5,-0.01,0.89,0.98,-6.7
2024-12-06 12:39:32.568,14.85,473.0,0.82,0.5,-0.01,-0.02,0.68,-7.56
2024-12-06 12:39:32.618,16.88,478.0,0.8,0.51,-0.01,-0.27,0.74,-10.12
2024-12-06 12:39:32.627,17.55,483.0,0.8,0.52,-0.02,-0.02,0.43,-12.87
2024-12-06 12:39:32.656,15.07,482.0,0.82,0.53,-0.02,-0.51,0.92,-14.27
2024-12-06 12:39:32.674,15.07,480.0,0.83,0.53,-0.02,-0.88,0.43,-14.03
2024-12-06 12:39:32.700,14.62,480.0,0.82,0.54,-0.02,-1.49,1.04,-13.91
2024-12-06 12:39:32.728,21.6,502.0,0.83,0.55,-0.02,-1.37,1.65,-13.05
2024-12-06 12:39:32.755,20.7,493.0,0.83,0.55,-0.02,-1.37,1.29,-13.17
2024-12-06 12:39:32.784,25.88,470.0,0.85,0.57,-0.01,-1.67,0.92,-11.34
2024-12-06 12:39:32.811,24.75,491.0,0.84,0.59,-0.04,-0.51,0.0,-9.63
2024-12-06 12:39:32.862,26.32,486.0,0.85,0.61,-0.02,-0.08,-0.06,-7.74
2024-12-06 12:39:32.866,27.67,478.0,0.82,0.61,-0.03,0.04,-0.24,-5.42
2024-12-06 12:39:32.894,31.5,474.0,0.83,0.62,-0.02,0.71,0.25,-3.16
2024-12-06 12:39:32.923,30.15,491.0,0.81,0.6,-0.02,1.44,0.25,-1.52
2024-12-06 12:39:32.951,27.45,487.0,0.8,0.59,-0.01,1.81,0.55,-0.91
2024-12-06 12:39:32.978,34.2,475.0,0.78,0.58,-0.0,1.99,0.74,-2.74
2024-12-06 12:39:33.6,35.55,493.0,0.79,0.59,-0.01,2.3,1.41,-2.61
2024-12-06 12:39:33.37,33.3,485.0,0.78,0.57,-0.0,1.81,1.1,-4.2
2024-12-06 12:39:33.70,36.0,476.0,0.81,0.59,-0.01,1.14,0.92,-4.87
2024-12-06 12:39:33.87,38.7,479.0,0.8,0.59,-0.02,1.01,0.25,-3.9
2024-12-06 12:39:33.115,39.6,480.0,0.78,0.57,-0.0,-0.21,0.92,-5.3
2024-12-06 12:39:33.152,36.67,482.0,0.8,0.58,-0.01,-0.39,0.37,-5.3
2024-12-06 12:39:33.173,41.4,487.0,0.77,0.56,-0.0,-0.82,-0.06,-8.17
2024-12-06 12:39:33.198,35.1,477.0,0.79,0.57,-0.01,-0.76,-0.18,-9.88
2024-12-06 12:39:33.227,40.5,482.0,0.79,0.59,-0.02,-0.33,-0.67,-9.88
2024-12-06 12:39:33.253,42.97,486.0,0.8,0.6,-0.02,-0.88,-0.91,-10.18
2024-12-06 12:39:33.306,41.85,483.0,0.8,0.6,-0.02,-1.37,-2.07,-8.53
2024-12-06 12:39:33.317,46.35,479.0,0.78,0.59,-0.01,-2.4,-2.01,-8.9
2024-12-06 12:39:33.340,44.1,486.0,0.78,0.6,-0.01,-2.4,-1.34,-9.63
2024-12-06 12:39:33.364,47.02,489.0,0.78,0.59,-0.0,-1.85,-1.64,-10.06
2024-12-06 12:39:33.459,49.05,487.0,0.78,0.64,-0.01,-3.75,-3.11,-9.82
2024-12-06 12:39:33.473,51.75,481.0,0.77,0.64,-0.01,-4.23,-2.92,-9.39
2024-12-06 12:39:33.501,49.95,463.0,0.77,0.64,-0.02,-4.48,-3.66,-8.23
2024-12-06 12:39:33.529,53.77,488.0,0.76,0.63,-0.01,-5.15,-3.6,-8.6
2024-12-06 12:39:33.567,50.62,491.0,0.75,0.63,-0.0,-4.97,-4.08,-9.51
2024-12-06 12:39:33.584,50.85,501.0,0.76,0.65,-0.0,-4.48,-4.33,-8.96
2024-12-06 12:39:33.620,52.2,556.0,0.74,0.64,-0.01,-4.42,-4.15,-9.69
2024-12-06 12:39:33.640,51.3,515.0,0.77,0.67,-0.01,-4.66,-5.61,-10.0
2024-12-06 12:39:33.669,57.38,499.0,0.75,0.67,-0.02,-5.03,-6.65,-7.5
2024-12-06 12:39:33.695,54.0,510.0,0.75,0.67,-0.02,-5.64,-6.46,-6.58
2024-12-06 12:39:33.744,57.82,499.0,0.74,0.67,-0.02,-5.88,-5.67,-4.08
2024-12-06 12:39:33.752,60.97,499.0,0.74,0.65,-0.02,-5.27,-5.24,-3.65
2024-12-06 12:39:33.785,60.3,525.0,0.76,0.65,-0.01,-4.72,-5.31,-4.14
2024-12-06 12:39:33.806,61.88,525.0,0.75,0.66,-0.01,-3.69,-4.57,-3.96
2024-12-06 12:39:33.838,60.97,514.0,0.75,0.66,-0.01,-3.2,-4.57,-4.32
2024-12-06 12:39:33.861,62.55,515.0,0.74,0.68,-0.01,-4.36,-4.45,-3.1
2024-12-06 12:39:33.893,65.25,506.0,0.72,0.68,-0.02,-5.21,-3.96,-2.13
2024-12-06 12:39:33.917,65.7,524.0,0.73,0.68,-0.02,-5.15,-3.66,-0.91
2024-12-06 12:39:33.945,67.5,517.0,0.74,0.68,-0.03,-4.05,-3.96,-0.42
2024-12-06 12:39:33.996,65.03,554.0,0.75,0.67,-0.04,-3.01,-4.15,-0.78
2024-12-06 12:39:33.999,70.65,552.0,0.74,0.66,-0.02,-1.85,-5.12,-0.6
2024-12-06 12:39:34.27,66.82,538.0,0.73,0.67,-0.02,-2.1,-3.96,-0.91
2024-12-06 12:39:34.55,71.1,532.0,0.72,0.67,-0.02,-2.28,-4.02,-0.29
2024-12-06 12:39:34.83,70.88,532.0,0.73,0.66,-0.02,-2.83,-4.08,-0.29
2024-12-06 12:39:34.111,69.53,534.0,0.71,0.65,-0.03,-3.01,-3.23,-0.91
2024-12-06 12:39:34.138,72.45,532.0,0.73,0.65,-0.01,-2.59,-2.44,-2.37
2024-12-06 12:39:34.168,74.7,547.0,0.72,0.66,-0.02,-2.04,-1.09,-2.19
2024-12-06 12:39:34.199,75.15,541.0,0.73,0.65,-0.03,-1.67,-1.64,-2.92
2024-12-06 12:39:34.220,74.7,538.0,0.74,0.67,-0.01,-1.43,-0.91,-2.61
2024-12-06 12:39:34.248,78.75,530.0,0.73,0.68,-0.02,-1.24,-0.67,-1.58
2024-12-06 12:39:34.277,73.35,537.0,0.73,0.67,-0.02,-1.3,-0.54,-1.15
2024-12-06 12:39:34.303,75.38,552.0,0.73,0.68,-0.02,-1.73,-1.03,-0.66
2024-12-06 12:39:34.331,80.55,539.0,0.73,0.65,-0.03,-1.55,-0.85,-1.33
2024-12-06 12:39:34.362,80.32,542.0,0.74,0.67,-0.02,-1.18,-1.52,-0.97
2024-12-06 12:39:34.389,77.85,549.0,0.72,0.66,-0.03,-0.88,-0.85,-1.45
2024-12-06 12:39:34.512,83.92,543.0,0.73,0.67,-0.01,-1.61,-1.83,-2.68
2024-12-06 12:39:35.807,80.55,571.0,0.75,0.65,-0.04,0.28,-0.3,-0.66
2024-12-06 12:39:35.816,85.72,590.0,0.75,0.65,-0.04,0.28,-0.3,-0.66
2024-12-06 12:39:35.821,83.25,568.0,0.75,0.65,-0.04,0.34,-0.3,-0.66
2024-12-06 12:39:35.829,86.62,577.0,0.75,0.65,-0.04,0.4,-0.3,-0.72
2024-12-06 12:39:35.837,85.05,578.0,0.75,0.64,-0.04,0.4,-0.3,-0.78
2024-12-06 12:39:35.852,83.47,567.0,0.75,0.64,-0.04,0.47,-0.36,-0.84
2024-12-06 12:39:35.862,85.5,574.0,0.75,0.64,-0.04,0.59,-0.36,-0.97
2024-12-06 12:39:35.866,81.45,591.0,0.75,0.65,-0.04,0.59,-0.36,-1.09
2024-12-06 12:39:35.870,87.07,598.0,0.76,0.65,-0.04,0.65,-0.36,-1.09
2024-12-06 12:39:35.902,82.8,595.0,0.75,0.65,-0.04,0.77,-0.24,-1.15
2024-12-06 12:39:35.904,84.82,588.0,0.76,0.64,-0.04,0.95,0.07,-0.91
2024-12-06 12:39:35.911,84.82,576.0,0.76,0.64,-0.04,0.95,0.07,-0.91
2024-12-06 12:39:35.915,83.7,571.0,0.76,0.64,-0.04,0.89,0.07,-0.72
2024-12-06 12:39:35.920,80.55,571.0,0.76,0.64,-0.04,0.83,0.0,-0.6
2024-12-06 12:39:35.931,87.07,595.0,0.76,0.64,-0.04,0.77,-0.06,-0.48
2024-12-06 12:39:35.936,85.05,591.0,0.76,0.64,-0.04,0.71,-0.06,-0.42
2024-12-06 12:39:35.947,88.2,577.0,0.76,0.64,-0.04,0.71,-0.06,-0.42
2024-12-06 12:39:35.963,82.57,570.0,0.76,0.64,-0.04,0.71,-0.12,-0.42
2024-12-06 12:39:35.966,86.4,563.0,0.76,0.64,-0.04,0.71,-0.18,-0.36
2024-12-06 12:39:35.969,84.6,574.0,0.76,0.64,-0.04,0.71,-0.3,-0.36
2024-12-06 12:39:35.975,83.03,588.0,0.76,0.64,-0.04,0.77,-0.42,-0.23
2024-12-06 12:39:35.987,88.42,564.0,0.76,0.64,-0.04,0.83,-0.61,-0.23
2024-12-06 12:39:35.990,86.85,580.0,0.76,0.64,-0.04,0.83,-0.61,-0.23
2024-12-06 12:39:36.2,87.97,574.0,0.76,0.64,-0.04,0.83,-0.61,-0.23
2024-12-06 12:39:36.7,85.05,564.0,0.75,0.64,-0.04,0.77,-0.67,-0.11
2024-12-06 12:39:36.15,87.52,578.0,0.75,0.64,-0.04,0.71,-0.67,0.01
2024-12-06 12:39:36.24,86.17,583.0,0.75,0.64,-0.04,0.65,-0.54,0.01
2024-12-06 12:39:36.33,83.03,588.0,0.75,0.64,-0.04,0.65,-0.48,0.07
2024-12-06 12:39:36.38,83.7,570.0,0.75,0.64,-0.04,0.65,-0.48,0.07
2024-12-06 12:39:36.48,88.65,634.0,0.75,0.64,-0.04,0.71,-0.61,0.13
2024-12-06 12:39:36.54,86.62,575.0,0.75,0.64,-0.04,0.71,-0.54,0.19
2024-12-06 12:39:36.93,81.9,583.0,0.74,0.64,-0.04,0.65,-0.48,-0.42
2024-12-06 12:39:36.98,85.28,564.0,0.74,0.64,-0.04,0.53,-0.48,-0.66
2024-12-06 12:39:36.101,86.62,562.0,0.74,0.64,-0.03,0.4,-0.42,-0.91
2024-12-06 12:39:36.108,87.97,584.0,0.74,0.64,-0.03,0.22,-0.3,-1.15
2024-12-06 12:39:36.116,85.72,585.0,0.74,0.64,-0.03,0.16,-0.12,-1.33
2024-12-06 12:39:36.127,82.35,561.0,0.74,0.64,-0.03,0.16,-0.12,-1.58
2024-12-06 12:39:36.132,86.85,560.0,0.74,0.64,-0.03,0.22,0.07,-1.58
2024-12-06 12:39:36.140,88.65,571.0,0.74,0.64,-0.04,0.34,0.25,-1.7
2024-12-06 12:39:36.151,86.4,567.0,0.75,0.64,-0.04,0.34,0.43,-1.76
2024-12-06 12:39:36.163,87.07,564.0,0.75,0.64,-0.04,0.34,0.49,-1.76
2024-12-06 12:39:36.168,86.62,567.0,0.75,0.64,-0.04,0.28,0.49,-1.76
2024-12-06 12:39:36.171,85.95,554.0,0.75,0.64,-0.04,0.22,0.43,-1.7
2024-12-06 12:39:36.179,87.97,583.0,0.75,0.64,-0.04,0.22,0.43,-1.7
2024-12-06 12:39:36.187,84.38,559.0,0.76,0.64,-0.04,0.22,0.37,-1.58
2024-12-06 12:39:36.198,85.05,557.0,0.76,0.64,-0.04,0.28,0.25,-1.52
2024-12-06 12:39:36.234,85.95,573.0,0.76,0.64,-0.05,0.59,-0.12,-1.39
2024-12-06 12:39:36.236,85.72,555.0,0.76,0.64,-0.05,0.71,-0.3,-1.27
2024-12-06 12:39:36.242,86.4,589.0,0.76,0.65,-0.05,0.77,-0.36,-1.21
2024-12-06 12:39:36.248,86.4,564.0,0.76,0.65,-0.05,0.89,-0.42,-1.21
2024-12-06 12:39:36.256,86.4,552.0,0.76,0.65,-0.05,1.01,-0.42,-1.27
2024-12-06 12:39:36.266,85.95,583.0,0.75,0.64,-0.05,1.01,-0.42,-1.27
2024-12-06 12:39:36.273,84.15,568.0,0.75,0.64,-0.05,1.08,-0.36,-1.21
2024-12-06 12:39:36.281,83.47,574.0,0.75,0.64,-0.04,0.95,-0.3,-1.21
2024-12-06 12:39:36.288,82.8,569.0,0.75,0.64,-0.04,0.83,-0.18,-1.15
2024-12-06 12:39:36.296,86.62,566.0,0.75,0.64,-0.04,0.71,0.0,-1.09
2024-12-06 12:39:36.303,86.4,579.0,0.75,0.64,-0.04,0.65,0.0,-0.97
2024-12-06 12:39:36.312,85.5,602.0,0.75,0.65,-0.04,0.65,0.0,-0.97
2024-12-06 12:39:36.323,85.95,577.0,0.75,0.64,-0.04,0.71,0.07,-0.97
2024-12-06 12:39:36.327,87.3,538.0,0.75,0.64,-0.04,0.83,0.07,-0.84
2024-12-06 12:39:36.342,86.62,562.0,0.76,0.64,-0.04,0.89,0.0,-0.78
2024-12-06 12:39:36.352,88.88,601.0,0.76,0.64,-0.04,0.89,-0.06,-0.72
2024-12-06 12:39:36.355,86.17,563.0,0.75,0.64,-0.04,0.89,-0.18,-0.72
2024-12-06 12:39:36.360,85.95,585.0,0.75,0.64,-0.04,0.77,-0.18,-0.72
2024-12-06 12:39:36.366,86.62,563.0,0.75,0.64,-0.04,0.71,-0.24,-0.66
2024-12-06 12:39:36.374,85.95,583.0,0.75,0.64,-0.04,0.71,-0.24,-0.66
2024-12-06 12:39:36.382,81.67,580.0,0.75,0.64,-0.04,0.71,-0.18,-0.72
2024-12-06 12:39:36.390,88.42,568.0,0.75,0.64,-0.04,0.71,-0.18,-0.72
2024-12-06 12:39:36.397,87.97,580.0,0.75,0.64,-0.04,0.77,-0.24,-0.78
2024-12-06 12:39:36.412,87.07,568.0,0.75,0.64,-0.04,0.77,-0.24,-0.78
2024-12-06 12:39:36.415,77.85,579.0,0.75,0.64,-0.04,0.71,-0.3,-0.84
2024-12-06 12:39:36.421,85.72,566.0,0.75,0.64,-0.04,0.59,-0.3,-0.97
2024-12-06 12:39:36.430,89.32,574.0,0.75,0.64,-0.04,0.47,-0.24,-1.09
2024-12-06 12:39:36.475,82.8,580.0,0.75,0.63,-0.04,0.1,0.0,-1.09
2024-12-06 12:39:36.479,81.67,560.0,0.75,0.63,-0.04,-0.02,0.07,-1.15
2024-12-06 12:39:36.486,87.52,565.0,0.75,0.64,-0.04,-0.02,0.07,-1.15
2024-12-06 12:39:36.492,82.8,576.0,0.75,0.64,-0.04,-0.15,0.13,-1.15
2024-12-06 12:39:36.497,82.57,577.0,0.75,0.64,-0.04,-0.27,0.13,-1.21
2024-12-06 12:39:36.506,85.95,578.0,0.75,0.64,-0.04,-0.39,0.25,-1.27
2024-12-06 12:39:36.513,82.12,565.0,0.75,0.64,-0.04,-0.39,0.25,-1.33
2024-12-06 12:39:36.609,86.4,568.0,0.76,0.65,-0.04,0.28,-0.3,-0.97
2024-12-06 12:39:36.612,83.47,570.0,0.75,0.65,-0.04,0.34,-0.36,-0.91
2024-12-06 12:39:36.619,88.2,568.0,0.75,0.64,-0.04,0.4,-0.36,-0.97
2024-12-06 12:39:36.631,87.3,542.0,0.75,0.64,-0.04,0.34,-0.36,-0.97
2024-12-06 12:39:36.635,84.82,591.0,0.75,0.64,-0.04,0.34,-0.3,-0.97
2024-12-06 12:39:36.647,85.05,561.0,0.75,0.64,-0.04,0.34,-0.3,-0.97
2024-12-06 12:39:36.658,86.4,538.0,0.75,0.64,-0.04,0.34,-0.42,-0.91
2024-12-06 12:39:36.686,87.52,566.0,0.75,0.64,-0.04,0.1,-0.36,-0.84
2024-12-06 12:39:36.691,87.52,583.0,0.75,0.64,-0.04,0.1,-0.36,-0.84
2024-12-06 12:39:36.697,86.17,570.0,0.75,0.64,-0.04,0.22,-0.36,-0.91
2024-12-06 12:39:36.710,87.97,565.0,0.75,0.64,-0.04,0.22,-0.36,-0.97
2024-12-06 12:39:36.718,86.62,567.0,0.75,0.64,-0.05,0.22,-0.42,-1.09
2024-12-06 12:39:36.720,85.28,569.0,0.75,0.64,-0.05,0.22,-0.48,-1.15
2024-12-06 12:39:36.727,81.9,567.0,0.75,0.64,-0.04,0.22,-0.48,-1.15
2024-12-06 12:39:36.747,87.97,577.0,0.75,0.64,-0.04,0.1,-0.42,-1.27
2024-12-06 12:39:36.753,83.03,570.0,0.74,0.64,-0.04,0.16,-0.36,-1.33
2024-12-06 12:39:36.756,85.5,576.0,0.74,0.64,-0.04,0.16,-0.24,-1.39
2024-12-06 12:39:36.758,89.77,615.0,0.74,0.64,-0.04,0.16,0.0,-1.39
2024-12-06 12:39:36.770,86.62,571.0,0.74,0.64,-0.04,0.04,0.25,-1.39
2024-12-06 12:39:36.775,86.62,567.0,0.74,0.64,-0.04,0.04,0.25,-1.39
2024-12-06 12:39:36.782,87.3,573.0,0.75,0.64,-0.03,-0.08,0.55,-1.33
2024-12-06 12:39:36.791,81.45,561.0,0.75,0.64,-0.03,-0.15,0.68,-1.27
2024-12-06 12:39:36.799,83.7,582.0,0.75,0.64,-0.04,-0.08,0.8,-1.21
2024-12-06 12:39:36.807,88.2,562.0,0.75,0.64,-0.04,-0.08,0.86,-1.15
2024-12-06 12:39:36.820,82.57,563.0,0.75,0.64,-0.04,-0.08,0.74,-1.15
2024-12-06 12:39:36.824,85.5,577.0,0.75,0.64,-0.04,-0.08,0.74,-1.15
2024-12-06 12:39:36.829,85.05,565.0,0.75,0.64,-0.04,-0.15,0.62,-1.15
2024-12-06 12:39:36.837,87.97,574.0,0.75,0.64,-0.05,-0.27,0.49,-1.15
2024-12-06 12:39:36.847,82.57,571.0,0.75,0.64,-0.04,-0.27,0.31,-1.21
2024-12-06 12:39:36.857,84.6,579.0,0.75,0.64,-0.04,-0.21,0.13,-1.21
2024-12-06 12:39:36.864,85.72,574.0,0.75,0.64,-0.04,-0.08,0.19,-1.33
2024-12-06 12:39:36.869,86.4,571.0,0.75,0.65,-0.04,-0.08,0.19,-1.33
2024-12-06 12:39:36.877,83.25,629.0,0.75,0.65,-0.04,-0.02,0.25,-1.45
2024-12-06 12:39:36.919,86.85,570.0,0.75,0.65,-0.04,0.04,0.43,-1.58
2024-12-06 12:39:36.934,86.17,576.0,0.75,0.65,-0.05,0.04,0.31,-1.52
2024-12-06 12:39:36.936,81.9,580.0,0.75,0.65,-0.05,0.1,0.13,-1.27
2024-12-06 12:39:36.948,87.97,558.0,0.75,0.64,-0.05,0.22,0.0,-1.15
2024-12-06 12:39:36.954,85.5,579.0,0.76,0.64,-0.05,0.34,-0.06,-0.97
2024-12-06 12:39:36.957,82.12,569.0,0.76,0.64,-0.05,0.34,-0.06,-0.97
2024-12-06 12:39:36.961,88.2,580.0,0.76,0.64,-0.05,0.34,-0.12,-0.84
2024-12-06 12:39:36.969,85.28,569.0,0.76,0.64,-0.05,0.4,-0.12,-0.84
2024-12-06 12:39:36.978,86.85,574.0,0.75,0.65,-0.04,0.28,-0.18,-0.84
2024-12-06 12:39:36.985,82.8,585.0,0.75,0.65,-0.04,0.28,-0.18,-0.84
2024-12-06 12:39:36.995,86.17,567.0,0.75,0.65,-0.04,0.28,-0.06,-0.91
2024-12-06 12:39:37.9,82.12,585.0,0.75,0.65,-0.04,0.28,-0.06,-0.84
2024-12-06 12:39:37.12,85.95,573.0,0.75,0.65,-0.04,0.28,0.07,-0.84
2024-12-06 12:39:37.17,81.0,565.0,0.75,0.64,-0.04,0.34,0.07,-0.84
2024-12-06 12:39:37.25,88.2,569.0,0.75,0.64,-0.04,0.34,-0.06,-0.72
2024-12-06 12:39:37.34,85.95,560.0,0.72,0.64,-0.04,0.28,-0.06,-0.66
2024-12-06 12:39:37.43,86.4,577.0,0.75,0.64,-0.04,0.16,-0.18,-0.66
2024-12-06 12:39:37.50,85.5,568.0,0.75,0.64,-0.04,0.16,-0.18,-0.66
2024-12-06 12:39:37.56,85.05,563.0,0.75,0.65,-0.04,0.16,-0.18,-0.6
2024-12-06 12:39:37.64,84.82,565.0,0.75,0.65,-0.04,0.16,-0.18,-0.54
2024-12-06 12:39:37.72,75.38,577.0,0.75,0.65,-0.04,0.16,-0.18,-0.6
2024-12-06 12:39:37.83,84.15,560.0,0.75,0.65,-0.04,0.16,-0.18,-0.54
2024-12-06 12:39:37.88,87.52,577.0,0.75,0.64,-0.04,0.22,-0.24,-0.6
2024-12-06 12:39:37.96,86.4,574.0,0.75,0.64,-0.04,0.22,-0.24,-0.6
2024-12-06 12:39:37.107,83.7,588.0,0.75,0.64,-0.04,0.22,-0.3,-0.72
2024-12-06 12:39:37.141,87.07,567.0,0.75,0.65,-0.03,-0.15,15.32,-0.97
2024-12-06 12:39:37.145,86.17,570.0,0.75,0.64,-0.03,-0.15,-0.24,-0.97
2024-12-06 12:39:37.152,83.47,580.0,0.75,0.64,-0.04,-0.08,-0.18,-0.91
2024-12-06 12:39:37.157,82.35,568.0,0.75,0.64,-0.04,0.04,-0.18,-0.78
2024-12-06 12:39:37.168,85.72,574.0,0.75,0.64,-0.04,0.16,-0.12,-0.66
2024-12-06 12:39:37.174,86.4,571.0,0.75,0.64,-0.04,0.16,0.0,-0.6
2024-12-06 12:39:37.179,81.22,572.0,0.75,0.64,-0.04,0.16,0.0,-0.6
2024-12-06 12:39:37.188,84.6,562.0,0.75,0.64,-0.04,0.1,0.07,-0.6
2024-12-06 12:39:37.195,86.85,548.0,0.75,0.64,-0.04,0.1,0.07,-0.54
2024-12-06 12:39:37.209,82.12,571.0,0.75,0.64,-0.04,0.04,0.07,-0.48
2024-12-06 12:39:37.211,82.8,580.0,0.75,0.64,-0.04,0.1,0.13,-0.48
2024-12-06 12:39:37.219,86.17,583.0,0.75,0.64,-0.04,0.1,0.13,-0.48
2024-12-06 12:39:37.231,85.72,572.0,0.75,0.65,-0.04,0.1,0.13,-0.48
2024-12-06 12:39:37.235,83.47,588.0,0.75,0.65,-0.04,0.16,0.25,-0.6
2024-12-06 12:39:37.243,87.07,570.0,0.75,0.65,-0.04,0.16,0.37,-0.66
2024-12-06 12:39:37.259,81.9,594.0,0.75,0.65,-0.04,0.22,0.49,-0.78
2024-12-06 12:39:37.261,86.85,572.0,0.75,0.65,-0.04,0.28,0.55,-0.91
2024-12-06 12:39:37.272,87.07,574.0,0.75,0.65,-0.04,0.34,0.49,-0.91
2024-12-06 12:39:37.276,83.7,585.0,0.75,0.65,-0.04,0.34,0.49,-0.91
2024-12-06 12:39:37.281,83.25,582.0,0.75,0.65,-0.05,0.4,0.31,-0.84
2024-12-06 12:39:37.301,86.4,593.0,0.75,0.64,-0.05,0.47,0.13,-0.78
2024-12-06 12:39:37.305,87.07,565.0,0.75,0.64,-0.05,0.65,-0.3,-0.78
2024-12-06 12:39:37.315,85.95,585.0,0.75,0.64,-0.05,0.65,-0.42,-0.91
2024-12-06 12:39:37.321,85.72,573.0,0.75,0.64,-0.05,0.65,-0.42,-0.91
2024-12-06 12:39:37.336,88.2,574.0,0.75,0.64,-0.05,0.65,-0.48,-1.03
2024-12-06 12:39:37.362,84.82,570.0,0.75,0.64,-0.04,0.47,-0.54,-1.15
2024-12-06 12:39:37.366,87.3,571.0,0.75,0.64,-0.04,0.47,-0.54,-1.15
2024-12-06 12:39:37.368,85.28,588.0,0.75,0.64,-0.04,0.53,-0.54,-1.21
2024-12-06 12:39:37.376,83.7,582.0,0.75,0.64,-0.04,0.65,-0.54,-1.21
2024-12-06 12:39:37.383,85.28,584.0,0.75,0.64,-0.04,0.53,-0.54,-1.21
2024-12-06 12:39:37.393,86.17,581.0,0.75,0.64,-0.04,0.28,-0.61,-1.15
2024-12-06 12:39:37.399,86.17,583.0,0.75,0.64,-0.04,-0.02,-0.54,-1.09
2024-12-06 12:39:37.406,88.2,575.0,0.75,0.64,-0.04,-0.02,-0.54,-1.09
2024-12-06 12:39:37.418,83.92,590.0,0.75,0.64,-0.04,-0.21,-0.54,-0.97
2024-12-06 12:39:37.422,85.72,587.0,0.75,0.64,-0.04,-0.15,-0.48,-0.84
2024-12-06 12:39:37.431,87.52,582.0,0.75,0.64,-0.04,-0.08,-0.36,-0.78
2024-12-06 12:39:37.439,81.0,600.0,0.75,0.64,-0.04,0.04,-0.3,-0.78
2024-12-06 12:39:37.447,85.05,560.0,0.75,0.64,-0.04,0.1,-0.24,-0.84
2024-12-06 12:39:37.461,87.97,568.0,0.75,0.64,-0.05,0.1,-0.24,-0.84
2024-12-06 12:39:37.464,83.92,583.0,0.75,0.64,-0.04,-0.02,-0.24,-0.84
2024-12-06 12:39:37.469,83.7,571.0,0.75,0.64,-0.04,-0.21,-0.24,-0.84
2024-12-06 12:39:37.481,86.17,588.0,0.75,0.64,-0.04,-0.27,-0.24,-0.84
2024-12-06 12:39:37.490,85.28,578.0,0.75,0.64,-0.04,-0.21,-0.18,-0.78
2024-12-06 12:39:37.493,86.85,588.0,0.75,0.65,-0.04,-0.15,-0.18,-0.66
2024-12-06 12:39:37.507,86.62,569.0,0.75,0.64,-0.04,-0.15,-0.18,-0.66
2024-12-06 12:39:37.512,85.72,570.0,0.75,0.64,-0.04,-0.02,-0.12,-0.6
2024-12-06 12:39:37.516,86.17,575.0,0.75,0.64,-0.04,0.1,0.0,-0.48
2024-12-06 12:39:37.527,88.42,582.0,0.75,0.64,-0.05,0.16,0.07,-0.48
2024-12-06 12:39:37.532,85.5,573.0,0.75,0.64,-0.05,0.16,0.19,-0.42
2024-12-06 12:39:37.543,86.17,583.0,0.75,0.65,-0.05,0.16,0.19,-0.48
2024-12-06 12:39:37.549,86.62,573.0,0.75,0.65,-0.05,0.16,0.19,-0.48
2024-12-06 12:39:37.561,86.62,557.0,0.75,0.65,-0.05,0.16,0.25,-0.48
2024-12-06 12:39:37.667,85.72,569.0,0.75,0.64,-0.05,0.59,0.37,-1.09
2024-12-06 12:39:37.670,86.62,566.0,0.75,0.64,-0.05,0.71,0.13,-1.09
2024-12-06 12:39:37.677,83.92,570.0,0.75,0.64,-0.05,0.65,0.0,-1.09
2024-12-06 12:39:37.705,80.78,569.0,0.75,0.64,-0.05,0.59,-0.06,-1.15
2024-12-06 12:39:37.708,86.4,564.0,0.75,0.64,-0.04,0.4,-0.12,-1.09
2024-12-06 12:39:37.710,86.17,594.0,0.75,0.64,-0.04,0.4,-0.12,-1.09
2024-12-06 12:39:37.715,85.95,580.0,0.75,0.64,-0.04,0.4,0.0,-1.15
2024-12-06 12:39:37.724,86.17,560.0,0.75,0.64,-0.04,0.4,0.0,-1.15
2024-12-06 12:39:37.735,85.95,586.0,0.75,0.64,-0.04,0.53,0.0,-1.15
2024-12-06 12:39:37.746,85.95,568.0,0.75,0.64,-0.04,0.59,0.0,-1.15
2024-12-06 12:39:37.756,87.3,578.0,0.75,0.64,-0.04,0.59,0.0,-1.21
2024-12-06 12:39:37.760,86.85,557.0,0.75,0.64,-0.04,0.4,0.0,-1.21
2024-12-06 12:39:37.765,87.07,566.0,0.75,0.64,-0.04,0.22,0.0,-1.09
2024-12-06 12:39:37.771,84.38,566.0,0.75,0.64,-0.04,0.1,-0.06,-1.09
2024-12-06 12:39:37.778,86.4,558.0,0.75,0.64,-0.04,0.04,-0.06,-1.03
2024-12-06 12:39:37.786,86.17,565.0,0.75,0.64,-0.04,0.04,0.0,-0.97
2024-12-06 12:39:37.796,84.38,571.0,0.75,0.65,-0.04,0.04,0.0,-0.97
2024-12-06 12:39:37.801,86.85,558.0,0.75,0.64,-0.04,0.04,0.13,-0.91
2024-12-06 12:39:37.809,85.72,572.0,0.75,0.64,-0.04,0.04,0.25,-0.91
2024-12-06 12:39:37.817,81.67,571.0,0.75,0.64,-0.04,-0.15,0.31,-0.91
2024-12-06 12:39:37.825,87.3,569.0,0.75,0.64,-0.04,-0.27,0.31,-0.91
2024-12-06 12:39:37.833,86.85,578.0,0.75,0.64,-0.04,-0.15,0.25,-0.91
2024-12-06 12:39:37.875,86.62,574.0,0.75,0.65,-0.05,0.16,0.0,-1.09
2024-12-06 12:39:37.879,86.17,573.0,0.75,0.65,-0.05,0.16,0.0,-1.09
2024-12-06 12:39:37.893,88.2,568.0,0.75,0.65,-0.04,0.1,0.13,-1.09
2024-12-06 12:39:37.895,83.47,558.0,0.75,0.65,-0.04,0.16,0.19,-0.97
2024-12-06 12:39:37.910,83.25,570.0,0.75,0.65,-0.04,0.34,0.25,-0.84
2024-12-06 12:39:37.917,84.6,579.0,0.75,0.65,-0.04,0.53,0.37,-0.66
2024-12-06 12:39:37.922,88.88,588.0,0.75,0.65,-0.04,0.65,0.37,-0.54
2024-12-06 12:39:37.925,86.4,571.0,0.75,0.65,-0.05,0.65,0.37,-0.54
2024-12-06 12:39:37.933,84.15,566.0,0.75,0.64,-0.05,0.65,0.37,-0.48
2024-12-06 12:39:37.941,85.72,577.0,0.75,0.64,-0.05,0.59,0.31,-0.42
2024-12-06 12:39:37.949,81.45,592.0,0.75,0.64,-0.04,0.4,0.31,-0.48
2024-12-06 12:39:37.957,85.05,572.0,0.75,0.64,-0.04,0.34,0.37,-0.48
2024-12-06 12:39:37.973,84.6,570.0,0.75,0.64,-0.04,0.47,0.43,-0.48
2024-12-06 12:39:37.976,86.17,566.0,0.75,0.65,-0.04,0.47,0.43,-0.48
2024-12-06 12:39:37.980,85.05,583.0,0.75,0.65,-0.04,0.59,0.55,-0.54
2024-12-06 12:39:37.989,88.2,582.0,0.75,0.65,-0.04,0.65,0.62,-0.66
2024-12-06 12:39:38.0,86.17,570.0,0.75,0.64,-0.04,0.71,0.68,-0.66
2024-12-06 12:39:38.45,85.72,569.0,0.75,0.64,-0.05,0.59,0.62,-0.66
2024-12-06 12:39:38.54,86.62,580.0,0.76,0.64,-0.05,0.65,-0.06,-0.29
2024-12-06 12:39:38.57,87.97,566.0,0.76,0.64,-0.05,0.65,-0.06,-0.29
2024-12-06 12:39:38.64,85.5,575.0,0.75,0.64,-0.04,0.65,-0.12,-0.23
2024-12-06 12:39:38.74,84.15,569.0,0.75,0.64,-0.04,0.59,-0.18,-0.29
2024-12-06 12:39:38.81,85.95,570.0,0.75,0.64,-0.04,0.59,-0.3,-0.36
2024-12-06 12:39:38.90,83.7,581.0,0.75,0.64,-0.04,0.53,-0.36,-0.48
2024-12-06 12:39:38.97,83.7,581.0,0.75,0.64,-0.04,0.59,-0.42,-0.6
2024-12-06 12:39:38.104,86.17,575.0,0.75,0.64,-0.04,0.59,-0.42,-0.6
2024-12-06 12:39:38.113,87.52,576.0,0.75,0.64,-0.04,0.59,-0.36,-0.78
2024-12-06 12:39:38.122,86.62,571.0,0.75,0.64,-0.04,0.59,-0.36,-0.84
2024-12-06 12:39:38.129,81.0,558.0,0.75,0.64,-0.04,0.53,-0.36,-0.91
2024-12-06 12:39:38.137,87.07,563.0,0.75,0.64,-0.04,0.4,-0.36,-1.09
2024-12-06 12:39:38.145,87.07,571.0,0.74,0.64,-0.04,0.34,-0.36,-1.15
2024-12-06 12:39:38.153,84.15,575.0,0.74,0.64,-0.04,0.34,-0.36,-1.15
2024-12-06 12:39:38.164,86.85,588.0,0.74,0.64,-0.04,0.28,-0.36,-1.27
2024-12-06 12:39:38.169,86.17,565.0,0.75,0.64,-0.04,0.34,-0.36,-1.33
2024-12-06 12:39:38.177,85.72,580.0,0.75,0.64,-0.04,0.34,-0.36,-1.45
2024-12-06 12:39:38.189,84.82,569.0,0.75,0.64,-0.04,0.28,-0.36,-1.58
2024-12-06 12:39:38.195,86.4,580.0,0.75,0.64,-0.04,0.28,-0.36,-1.7
2024-12-06 12:39:38.207,86.85,584.0,0.75,0.64,-0.04,0.22,-0.42,-1.76
2024-12-06 12:39:38.210,87.97,573.0,0.75,0.64,-0.04,0.22,-0.42,-1.76
2024-12-06 12:39:38.217,84.15,578.0,0.75,0.64,-0.04,0.22,-0.36,-1.82
2024-12-06 12:39:38.227,86.17,570.0,0.75,0.64,-0.04,0.22,-0.3,-1.88
2024-12-06 12:39:38.231,86.17,565.0,0.75,0.64,-0.04,0.22,-0.24,-1.94
2024-12-06 12:39:38.242,86.4,567.0,0.75,0.64,-0.04,0.16,-0.06,-1.88
2024-12-06 12:39:38.279,81.45,571.0,0.75,0.64,-0.04,0.16,-0.06,-1.88
2024-12-06 12:39:38.286,82.12,573.0,0.75,0.64,-0.04,0.04,0.25,-1.58
2024-12-06 12:39:38.294,89.1,587.0,0.75,0.64,-0.04,0.04,0.37,-1.45
2024-12-06 12:39:38.302,85.05,572.0,0.75,0.64,-0.04,0.04,0.43,-1.27
2024-12-06 12:39:38.310,87.97,577.0,0.76,0.64,-0.04,0.04,0.43,-1.03
2024-12-06 12:39:38.317,88.2,590.0,0.76,0.64,-0.04,-0.02,0.37,-0.78
2024-12-06 12:39:38.329,81.45,564.0,0.76,0.64,-0.04,-0.02,0.37,-0.66
2024-12-06 12:39:38.333,78.75,598.0,0.76,0.64,-0.04,0.04,0.25,-0.6
2024-12-06 12:39:38.344,85.28,578.0,0.76,0.65,-0.05,0.04,0.25,-0.6
2024-12-06 12:39:38.349,83.7,573.0,0.76,0.65,-0.05,0.1,0.13,-0.6
2024-12-06 12:39:38.356,86.85,567.0,0.76,0.65,-0.05,0.16,0.13,-0.72
2024-12-06 12:39:38.363,83.47,567.0,0.76,0.65,-0.05,0.22,0.0,-0.78
2024-12-06 12:39:38.376,84.15,578.0,0.76,0.65,-0.05,0.4,-0.12,-0.78
2024-12-06 12:39:38.381,83.47,565.0,0.76,0.65,-0.05,0.4,-0.3,-0.78
2024-12-06 12:39:38.390,85.72,570.0,0.76,0.65,-0.05,0.47,-0.3,-0.78
2024-12-06 12:39:38.395,85.72,577.0,0.76,0.64,-0.05,0.59,-0.54,-0.72
2024-12-06 12:39:38.403,88.42,570.0,0.75,0.64,-0.05,0.71,-0.67,-0.72
2024-12-06 12:39:38.412,84.38,569.0,0.75,0.64,-0.05,0.83,-0.91,-0.6
2024-12-06 12:39:38.420,85.72,573.0,0.75,0.64,-0.05,0.77,-0.97,-0.54
2024-12-06 12:39:38.430,83.25,580.0,0.75,0.64,-0.05,0.77,-1.03,-0.48
2024-12-06 12:39:38.435,80.78,569.0,0.75,0.64,-0.05,0.77,-1.03,-0.48
2024-12-06 12:39:38.442,82.35,563.0,0.75,0.64,-0.05,0.71,-0.97,-0.42
2024-12-06 12:39:38.459,90.45,565.0,0.75,0.64,-0.04,0.77,-0.79,-0.42
2024-12-06 12:39:38.467,85.5,571.0,0.75,0.64,-0.04,0.83,-0.67,-0.48
2024-12-06 12:39:38.493,86.4,576.0,0.74,0.64,-0.04,0.65,-0.48,-0.78
2024-12-06 12:39:38.497,85.5,571.0,0.74,0.64,-0.04,0.4,-0.42,-0.84
2024-12-06 12:39:38.507,83.47,581.0,0.74,0.64,-0.04,0.22,-0.3,-0.91
2024-12-06 12:39:38.522,86.17,569.0,0.74,0.64,-0.04,0.04,-0.24,-0.91
2024-12-06 12:39:38.527,89.32,571.0,0.74,0.65,-0.04,0.04,-0.12,-0.97
2024-12-06 12:39:38.535,83.25,561.0,0.74,0.64,-0.04,0.1,-0.06,-0.97
2024-12-06 12:39:38.547,85.95,580.0,0.74,0.64,-0.04,0.22,0.0,-1.09
2024-12-06 12:39:38.558,85.72,555.0,0.74,0.64,-0.04,0.28,-0.06,-1.21
2024-12-06 12:39:38.561,88.2,559.0,0.75,0.64,-0.05,0.22,-0.06,-1.27
2024-12-06 12:39:38.567,83.92,582.0,0.75,0.64,-0.05,0.22,-0.06,-1.27
2024-12-06 12:39:38.587,88.42,571.0,0.75,0.64,-0.05,0.1,-0.12,-1.33
2024-12-06 12:39:38.589,84.15,581.0,0.75,0.64,-0.05,0.04,-0.18,-1.33
2024-12-06 12:39:38.592,87.75,590.0,0.75,0.65,-0.04,0.1,-0.24,-1.33
2024-12-06 12:39:38.598,83.47,591.0,0.75,0.65,-0.04,0.16,-0.18,-1.27
2024-12-06 12:39:38.717,81.67,585.0,0.75,0.65,-0.05,0.04,-0.06,-1.03
2024-12-06 12:39:38.720,86.17,592.0,0.75,0.65,-0.04,0.04,-0.06,-1.03
2024-12-06 12:39:38.727,84.82,571.0,0.75,0.65,-0.04,0.04,-0.24,-0.91
2024-12-06 12:39:38.734,83.03,585.0,0.75,0.65,-0.04,0.16,-0.42,-0.78
2024-12-06 12:39:38.741,84.6,588.0,0.75,0.65,-0.05,0.4,-0.67,-0.6
2024-12-06 12:39:38.754,80.78,568.0,0.75,0.65,-0.05,0.53,-0.79,-0.48
2024-12-06 12:39:38.759,83.7,586.0,0.75,0.65,-0.05,0.47,-0.91,-0.36
2024-12-06 12:39:38.779,88.2,595.0,0.75,0.65,-0.05,0.47,-0.91,-0.29
2024-12-06 12:39:38.781,86.17,580.0,0.75,0.64,-0.05,0.4,-0.97,-0.29
2024-12-06 12:39:38.784,85.28,576.0,0.76,0.64,-0.05,0.34,-0.97,-0.17
2024-12-06 12:39:38.789,85.28,571.0,0.76,0.63,-0.05,0.4,-1.03,-0.11
2024-12-06 12:39:38.797,84.15,574.0,0.75,0.63,-0.05,0.53,-0.97,-0.23
2024-12-06 12:39:38.806,88.65,574.0,0.75,0.63,-0.05,0.59,-0.85,-0.36
2024-12-06 12:39:38.814,85.95,588.0,0.75,0.64,-0.05,0.59,-0.85,-0.6
2024-12-06 12:39:38.824,83.92,571.0,0.75,0.63,-0.05,0.65,-0.61,-0.6
2024-12-06 12:39:38.836,85.28,586.0,0.75,0.63,-0.05,0.65,-0.3,-0.91
2024-12-06 12:39:38.841,86.85,651.0,0.74,0.63,-0.05,0.53,0.07,-1.21
2024-12-06 12:39:38.844,83.47,567.0,0.74,0.63,-0.05,0.4,0.25,-1.39
2024-12-06 12:39:38.853,86.62,573.0,0.74,0.63,-0.05,0.22,0.25,-1.45
2024-12-06 12:39:38.865,82.57,566.0,0.74,0.63,-0.05,0.22,0.25,-1.45
2024-12-06 12:39:38.869,83.03,569.0,0.74,0.64,-0.05,0.04,0.19,-1.33
2024-12-06 12:39:38.876,85.72,570.0,0.74,0.65,-0.04,-0.15,0.19,-1.21
2024-12-06 12:39:38.883,82.57,571.0,0.74,0.65,-0.04,-0.33,0.25,-0.97
2024-12-06 12:39:38.893,86.85,580.0,0.74,0.65,-0.04,-0.45,0.25,-0.78
2024-12-06 12:39:38.900,81.67,583.0,0.74,0.65,-0.04,-0.57,0.25,-0.66
2024-12-06 12:39:38.910,87.75,590.0,0.74,0.65,-0.04,-0.57,0.25,-0.66
2024-12-06 12:39:38.970,88.2,565.0,0.75,0.64,-0.05,-0.69,-0.36,-0.91
2024-12-06 12:39:38.974,86.62,580.0,0.75,0.65,-0.04,-0.45,-0.48,-1.88
2024-12-06 12:39:38.976,85.95,578.0,0.75,0.65,-0.04,-0.27,-0.48,-2.19
2024-12-06 12:39:38.987,88.42,572.0,0.75,0.65,-0.05,-0.08,-0.3,-2.37
2024-12-06 12:39:38.991,83.7,592.0,0.74,0.65,-0.05,-0.08,-0.3,-2.37
2024-12-06 12:39:39.1,82.8,576.0,0.75,0.65,-0.05,-0.08,0.0,-2.49
2024-12-06 12:39:39.8,86.17,579.0,0.75,0.65,-0.05,-0.08,0.19,-2.49
2024-12-06 12:39:39.15,87.3,563.0,0.75,0.64,-0.05,-0.21,0.49,-2.31
2024-12-06 12:39:39.25,87.52,566.0,0.75,0.64,-0.05,-0.27,0.62,-2.13
2024-12-06 12:39:39.57,82.8,581.0,0.76,0.64,-0.05,-0.33,0.86,-1.21
2024-12-06 12:39:39.62,86.85,574.0,0.76,0.64,-0.05,-0.27,0.86,-1.03
2024-12-06 12:39:39.70,86.17,585.0,0.76,0.64,-0.05,-0.27,0.8,-0.78
2024-12-06 12:39:39.77,88.42,580.0,0.76,0.64,-0.05,-0.27,0.8,-0.6
2024-12-06 12:39:39.89,89.55,593.0,0.76,0.65,-0.05,-0.27,0.8,-0.6
2024-12-06 12:39:39.103,85.5,568.0,0.76,0.65,-0.05,-0.15,0.86,-0.42
2024-12-06 12:39:39.108,86.4,571.0,0.76,0.65,-0.06,0.1,0.92,-0.29
2024-12-06 12:39:39.119,87.3,568.0,0.76,0.65,-0.06,0.28,0.74,-0.17
2024-12-06 12:39:39.124,85.95,581.0,0.77,0.65,-0.06,0.28,0.74,-0.17
2024-12-06 12:39:39.132,88.2,573.0,0.77,0.65,-0.06,0.47,0.55,0.07
2024-12-06 12:39:39.140,82.57,573.0,0.76,0.65,-0.06,0.59,0.31,0.19
2024-12-06 12:39:39.151,85.72,580.0,0.76,0.65,-0.06,0.71,0.13,0.44
2024-12-06 12:39:39.155,88.65,577.0,0.76,0.65,-0.06,0.77,-0.06,0.56
2024-12-06 12:39:39.163,83.25,586.0,0.76,0.65,-0.05,0.83,-0.18,0.62
2024-12-06 12:39:39.171,86.4,591.0,0.75,0.64,-0.05,0.83,-0.18,0.62
2024-12-06 12:39:39.179,88.88,580.0,0.75,0.64,-0.05,0.89,-0.3,0.62
2024-12-06 12:39:40.206,83.47,579.0,0.75,0.64,-0.04,0.65,0.86,-1.39
2024-12-06 12:39:40.218,79.65,566.0,0.75,0.66,-0.11,0.47,2.14,-1.45
2024-12-06 12:39:40.248,79.42,579.0,0.71,0.86,-0.02,0.1,7.7,5.08
2024-12-06 12:39:40.270,77.62,536.0,0.6,0.83,-0.06,-2.59,6.78,18.26
2024-12-06 12:39:40.331,70.88,522.0,0.85,0.61,-0.04,-7.53,9.65,17.04
2024-12-06 12:39:40.334,74.47,513.0,0.76,0.54,-0.06,-5.94,5.86,15.51
2024-12-06 12:39:40.354,72.45,504.0,0.83,0.52,-0.06,-4.91,-1.64,8.13
2024-12-06 12:39:40.384,68.17,501.0,0.83,0.58,0.01,1.5,-1.22,1.6
2024-12-06 12:39:40.409,69.3,501.0,0.82,0.58,-0.01,2.24,-1.03,-0.48
2024-12-06 12:39:40.439,66.6,502.0,0.77,0.6,-0.04,2.3,-1.09,1.72
2024-12-06 12:39:40.465,65.7,486.0,0.75,0.59,-0.02,0.77,1.96,4.71
2024-12-06 12:39:40.493,67.5,487.0,0.79,0.59,-0.03,1.01,4.52,7.33
2024-12-06 12:39:40.533,58.95,479.0,0.81,0.55,-0.04,0.95,4.58,8.25
2024-12-06 12:39:40.548,60.75,482.0,0.85,0.55,-0.02,2.78,2.87,5.75
2024-12-06 12:39:40.575,64.57,475.0,0.83,0.59,-0.04,3.94,2.14,4.47
2024-12-06 12:39:40.605,61.42,470.0,0.79,0.56,-0.04,4.8,4.95,5.14
2024-12-06 12:39:40.633,61.42,473.0,0.81,0.57,-0.02,6.51,8.18,7.64
2024-12-06 12:39:40.657,60.07,473.0,0.79,0.56,-0.03,7.0,9.95,7.76
2024-12-06 12:39:40.685,55.57,469.0,0.82,0.58,-0.02,6.51,7.51,7.03
2024-12-06 12:39:40.802,58.05,477.0,0.82,0.59,-0.03,7.91,6.84,8.43
2024-12-06 12:39:40.809,57.15,474.0,0.81,0.58,-0.01,8.16,5.56,7.76
2024-12-06 12:39:40.822,55.8,473.0,0.79,0.56,-0.02,7.91,5.86,5.69
2024-12-06 12:39:40.849,54.67,476.0,0.8,0.57,-0.01,7.3,5.56,5.87
2024-12-06 12:39:40.881,51.07,471.0,0.77,0.54,-0.02,7.12,6.9,4.95
2024-12-06 12:39:40.905,47.7,478.0,0.81,0.53,0.01,7.24,7.08,1.29
2024-12-06 12:39:40.932,46.8,468.0,0.82,0.54,0.0,6.75,7.39,0.68
2024-12-06 12:39:40.980,48.38,484.0,0.81,0.55,-0.01,5.65,5.8,-0.78
2024-12-06 12:39:40.988,46.12,481.0,0.81,0.54,-0.0,4.43,5.38,-1.52
2024-12-06 12:39:41.25,46.12,484.0,0.81,0.55,0.0,2.78,6.23,-1.45
2024-12-06 12:39:41.43,46.57,491.0,0.78,0.54,-0.03,2.6,7.51,-1.21
2024-12-06 12:39:41.77,44.77,482.0,0.8,0.56,-0.02,2.97,6.17,-2.43
2024-12-06 12:39:41.100,41.62,491.0,0.84,0.58,0.0,1.99,4.95,-0.72
2024-12-06 12:39:41.126,41.62,472.0,0.8,0.56,0.0,1.2,3.79,-3.22
2024-12-06 12:39:41.154,40.27,475.0,0.84,0.58,0.0,1.75,5.01,-1.58
2024-12-06 12:39:41.203,41.17,475.0,0.82,0.57,0.0,2.54,4.77,-1.27
2024-12-06 12:39:41.210,34.88,491.0,0.83,0.58,0.02,2.11,4.64,-2.19
2024-12-06 12:39:41.237,42.08,496.0,0.83,0.57,0.01,1.81,2.32,-0.54
2024-12-06 12:39:41.267,35.77,498.0,0.82,0.57,0.0,1.75,1.77,-1.09
2024-12-06 12:39:41.296,30.15,485.0,0.85,0.58,0.01,2.17,2.57,0.38
2024-12-06 12:39:41.321,36.22,481.0,0.83,0.56,0.01,2.3,2.45,1.78
2024-12-06 12:39:41.351,33.75,471.0,0.83,0.55,0.01,1.38,1.41,0.32
2024-12-06 12:39:41.376,32.4,480.0,0.84,0.55,0.02,1.2,-0.18,1.54
2024-12-06 12:39:41.429,30.6,471.0,0.84,0.55,0.01,0.89,-0.12,1.41
2024-12-06 12:39:41.438,32.4,486.0,0.85,0.55,0.0,0.95,0.0,2.45
2024-12-06 12:39:41.459,30.82,489.0,0.83,0.54,0.02,0.04,-0.97,2.82
2024-12-06 12:39:41.488,24.07,491.0,0.83,0.54,0.02,-0.94,-1.77,2.21
2024-12-06 12:39:41.517,27.9,480.0,0.83,0.54,0.01,-0.57,0.31,3.12
2024-12-06 12:39:41.541,28.8,482.0,0.83,0.53,0.0,0.4,0.07,3.37
2024-12-06 12:39:41.572,20.25,498.0,0.82,0.54,0.02,-0.39,-0.06,2.09
2024-12-06 12:39:41.597,26.77,478.0,0.84,0.54,-0.0,-0.63,0.0,2.82
2024-12-06 12:39:41.650,21.15,485.0,0.82,0.52,0.0,-0.08,-1.52,1.96
2024-12-06 12:39:41.655,18.9,473.0,0.84,0.54,0.02,-0.82,-0.85,0.86
2024-12-06 12:39:41.680,22.72,490.0,0.82,0.55,-0.02,0.53,0.13,3.18
2024-12-06 12:39:41.707,19.8,492.0,0.83,0.54,0.0,1.08,-0.12,1.72
2024-12-06 12:39:41.740,18.9,469.0,0.83,0.55,-0.02,1.62,-0.42,1.41
2024-12-06 12:39:41.764,15.97,475.0,0.83,0.56,-0.01,2.48,-0.3,2.09
2024-12-06 12:39:41.871,18.45,475.0,0.84,0.56,-0.01,2.66,-0.12,2.21
2024-12-06 12:39:41.876,16.2,476.0,0.87,0.54,-0.0,1.87,0.43,5.99
2024-12-06 12:39:41.900,11.92,478.0,0.84,0.52,0.01,1.26,-1.52,5.75
2024-12-06 12:39:41.927,12.15,495.0,0.85,0.51,0.02,0.77,-0.97,5.14
2024-12-06 12:39:41.956,11.25,482.0,0.86,0.51,0.0,0.83,0.68,6.48
2024-12-06 12:39:41.984,5.62,479.0,0.85,0.51,-0.01,0.89,0.43,6.97
2024-12-06 12:39:42.10,7.65,478.0,0.86,0.51,0.0,0.47,0.13,6.91
2024-12-06 12:39:42.38,10.12,485.0,0.84,0.5,0.0,-0.02,-0.54,6.97
2024-12-06 12:39:42.67,8.1,485.0,0.87,0.52,0.01,0.65,0.19,7.03
2024-12-06 12:39:42.99,9.0,477.0,0.87,0.51,0.01,0.83,0.0,8.92
2024-12-06 12:39:42.123,4.05,498.0,0.83,0.49,0.0,0.53,-1.09,7.64
2024-12-06 12:39:42.151,4.05,495.0,0.89,0.5,0.01,0.65,-1.4,6.18
2024-12-06 12:39:42.182,4.05,469.0,0.89,0.5,-0.01,0.77,-0.06,10.45
2024-12-06 12:39:43.583,0.67,490.0,0.88,0.45,-0.01,0.65,0.07,-0.91
2024-12-06 12:39:43.590,1.12,494.0,0.88,0.45,-0.02,0.34,0.07,-0.84
2024-12-06 12:39:43.599,4.28,490.0,0.88,0.45,-0.02,0.22,0.07,-0.84
2024-12-06 12:39:43.606,4.5,483.0,0.88,0.45,-0.01,0.22,0.13,-0.84
2024-12-06 12:39:43.612,-0.67,482.0,0.88,0.45,-0.02,0.16,0.25,-0.84
2024-12-06 12:39:43.626,1.12,487.0,0.88,0.45,-0.02,0.16,0.43,-0.97
2024-12-06 12:39:43.628,0.22,494.0,0.88,0.45,-0.02,0.16,0.37,-0.97
2024-12-06 12:39:43.635,0.9,492.0,0.88,0.45,-0.02,0.16,0.37,-0.97
2024-12-06 12:39:43.648,4.05,495.0,0.88,0.45,-0.02,0.16,0.13,-0.84
2024-12-06 12:39:43.655,1.8,473.0,0.88,0.45,-0.02,0.22,-0.06,-0.78
2024-12-06 12:39:43.682,2.7,476.0,0.88,0.46,-0.02,0.4,0.13,-0.84
2024-12-06 12:39:43.694,0.67,504.0,0.87,0.46,-0.02,0.4,0.0,-0.72
2024-12-06 12:39:43.699,2.7,488.0,0.86,0.45,-0.01,0.4,-0.18,-0.72
2024-12-06 12:39:43.713,3.82,494.0,0.86,0.45,-0.01,0.47,-0.12,-1.09
2024-12-06 12:39:43.717,3.15,518.0,0.86,0.45,-0.02,0.47,-0.12,-1.09
2024-12-06 12:39:43.719,1.8,499.0,0.87,0.45,-0.02,0.34,1.35,-1.33
2024-12-06 12:39:43.726,2.02,490.0,0.88,0.46,-0.01,0.4,1.47,-0.84
2024-12-06 12:39:43.734,1.12,489.0,0.89,0.45,-0.02,0.59,1.29,-0.23
2024-12-06 12:39:43.742,-4.28,495.0,0.89,0.45,-0.02,0.59,1.53,0.07
2024-12-06 12:39:43.749,1.57,496.0,0.88,0.45,-0.02,0.47,1.59,-0.05
2024-12-06 12:39:43.757,2.7,502.0,0.87,0.44,-0.02,0.47,1.59,-0.05
2024-12-06 12:39:43.767,1.57,498.0,0.87,0.44,-0.01,0.1,1.71,-0.42
2024-12-06 12:39:43.774,-0.9,486.0,0.88,0.44,-0.01,-0.27,1.65,-0.66
2024-12-06 12:39:43.784,0.22,485.0,0.89,0.44,-0.01,-0.57,1.35,-0.66
2024-12-06 12:39:43.789,2.02,486.0,0.89,0.44,-0.01,-0.88,1.16,-0.54
2024-12-06 12:39:43.796,0.45,477.0,0.89,0.44,-0.01,-1.06,0.92,-0.48
2024-12-06 12:39:43.807,0.22,477.0,0.88,0.44,-0.01,-1.06,0.92,-0.48
2024-12-06 12:39:43.813,-0.67,486.0,0.88,0.43,-0.01,-1.18,0.98,-0.42
2024-12-06 12:39:43.823,-2.47,478.0,0.88,0.43,-0.01,-1.3,1.23,-0.42
2024-12-06 12:39:43.834,2.47,496.0,0.88,0.44,-0.01,-1.37,1.59,-0.42
2024-12-06 12:39:43.837,-0.67,479.0,0.88,0.44,-0.01,-1.3,1.71,-0.29
2024-12-06 12:39:43.845,-0.67,499.0,0.88,0.44,-0.01,-1.24,2.02,-0.36
2024-12-06 12:39:43.855,-0.22,494.0,0.88,0.44,-0.01,-1.24,2.02,-0.36
2024-12-06 12:39:43.861,2.25,485.0,0.88,0.44,-0.02,-1.18,2.2,-0.48
2024-12-06 12:39:43.869,2.47,484.0,0.88,0.44,-0.02,-1.06,2.32,-0.54
2024-12-06 12:39:43.965,-0.22,495.0,0.88,0.44,-0.03,-0.94,2.57,-0.66
2024-12-06 12:39:43.977,1.35,483.0,0.89,0.46,0.0,0.16,1.29,-0.29
2024-12-06 12:39:43.980,-0.9,489.0,0.89,0.46,0.0,0.22,1.35,-0.17
2024-12-06 12:39:43.988,-2.02,500.0,0.89,0.46,0.0,0.22,1.1,-0.11
2024-12-06 12:39:43.995,2.02,473.0,0.89,0.45,0.0,0.22,1.1,-0.11
2024-12-06 12:39:44.4,1.35,487.0,0.89,0.45,-0.0,0.22,0.86,-0.11
2024-12-06 12:39:44.17,-0.22,486.0,0.88,0.46,0.0,0.1,0.68,-0.11
2024-12-06 12:39:44.21,-1.12,487.0,0.88,0.46,0.01,0.04,-0.12,-0.05
2024-12-06 12:39:44.25,0.22,488.0,0.88,0.46,0.01,-0.02,-0.42,-0.05
2024-12-06 12:39:44.33,3.82,485.0,0.88,0.46,0.01,0.04,-0.36,-0.17
2024-12-06 12:39:44.42,-1.57,486.0,0.88,0.47,0.01,0.04,-0.36,-0.17
2024-12-06 12:39:44.49,4.28,478.0,0.88,0.47,0.02,0.1,-0.24,-0.42
2024-12-06 12:39:44.57,2.7,480.0,0.88,0.47,0.01,0.16,0.13,-0.54
2024-12-06 12:39:44.64,1.57,483.0,0.88,0.47,0.01,0.28,0.55,-0.6
2024-12-06 12:39:44.74,2.47,484.0,0.88,0.47,0.01,0.47,1.1,-0.6
2024-12-06 12:39:44.80,0.0,499.0,0.88,0.46,0.0,0.47,1.41,-0.54
2024-12-06 12:39:44.91,-3.82,476.0,0.88,0.45,-0.0,0.53,1.41,-0.54
2024-12-06 12:39:44.96,2.25,503.0,0.88,0.45,-0.01,0.53,1.29,-0.48
2024-12-06 12:39:44.102,-0.67,497.0,0.88,0.44,-0.01,0.34,1.16,-0.42
2024-12-06 12:39:44.115,1.8,481.0,0.88,0.44,-0.0,0.1,0.8,-0.36
2024-12-06 12:39:44.121,0.9,477.0,0.88,0.44,-0.0,-0.21,0.13,-0.23
2024-12-06 12:39:44.135,-0.9,493.0,0.89,0.45,0.01,-0.45,0.0,-0.23
2024-12-06 12:39:44.142,-3.6,481.0,0.88,0.45,0.01,-0.57,-0.18,-0.42
2024-12-06 12:39:44.153,-1.35,482.0,0.89,0.44,0.01,-0.51,-0.12,-0.6
2024-12-06 12:39:44.156,2.25,484.0,0.89,0.44,0.01,-0.27,-0.06,-0.78
2024-12-06 12:39:44.164,-0.9,486.0,0.89,0.44,0.01,-0.27,-0.06,-0.78
2024-12-06 12:39:44.173,1.12,476.0,0.89,0.44,0.01,-0.02,0.13,-0.78
2024-12-06 12:39:44.180,1.8,493.0,0.89,0.44,0.01,0.16,0.25,-0.78
2024-12-06 12:39:44.218,-3.38,474.0,0.89,0.45,0.0,0.22,0.25,-0.78
2024-12-06 12:39:44.224,1.57,490.0,0.89,0.45,-0.01,-0.08,0.31,-0.78
2024-12-06 12:39:44.230,2.02,482.0,0.9,0.45,-0.01,-0.15,0.07,-0.6
2024-12-06 12:39:44.234,3.15,495.0,0.9,0.45,-0.01,-0.02,-0.06,-0.54
2024-12-06 12:39:44.243,3.82,500.0,0.9,0.45,-0.01,0.04,-0.24,-0.54
2024-12-06 12:39:44.248,-0.45,473.0,0.9,0.45,-0.01,0.04,-0.24,-0.54
2024-12-06 12:39:44.260,0.9,492.0,0.9,0.45,-0.01,0.16,-0.24,-0.54
2024-12-06 12:39:44.272,1.57,488.0,0.9,0.45,-0.01,0.22,-0.3,-0.54
2024-12-06 12:39:44.274,2.92,482.0,0.9,0.45,-0.01,0.34,-0.3,-0.48
2024-12-06 12:39:44.280,-1.57,494.0,0.9,0.45,-0.01,0.4,-0.36,-0.48
2024-12-06 12:39:44.288,4.05,483.0,0.9,0.44,-0.01,0.4,-0.36,-0.48
2024-12-06 12:39:44.298,2.02,482.0,0.9,0.44,-0.01,0.34,-0.48,-0.48
2024-12-06 12:39:44.303,-2.25,484.0,0.89,0.44,-0.01,0.4,-0.73,-0.48
2024-12-06 12:39:44.309,2.02,485.0,0.89,0.44,-0.01,0.34,-1.09,-0.48
2024-12-06 12:39:44.318,-1.12,487.0,0.89,0.44,-0.01,0.34,-1.22,-0.54
2024-12-06 12:39:44.325,1.57,496.0,0.89,0.44,-0.01,0.28,-1.4,-0.54
2024-12-06 12:39:44.333,3.6,487.0,0.88,0.44,-0.0,0.28,-1.4,-0.54
2024-12-06 12:39:44.359,2.7,480.0,0.88,0.45,-0.0,0.4,-1.22,-0.72
2024-12-06 12:39:44.364,0.9,489.0,0.88,0.45,-0.0,0.47,-0.91,-0.91
2024-12-06 12:39:44.374,-1.12,480.0,0.87,0.45,-0.01,0.47,-0.91,-0.91
2024-12-06 12:39:44.379,-2.7,504.0,0.87,0.45,-0.01,0.59,-0.79,-0.97
2024-12-06 12:39:44.386,0.67,492.0,0.87,0.45,-0.01,0.59,-0.61,-1.03
2024-12-06 12:39:44.400,0.67,497.0,0.87,0.45,-0.01,0.59,-0.24,-1.09
2024-12-06 12:39:44.402,3.38,497.0,0.87,0.45,-0.01,0.53,0.07,-1.15
2024-12-06 12:39:44.410,2.47,493.0,0.88,0.45,-0.01,0.47,-0.12,-1.03
2024-12-06 12:39:44.418,-0.22,484.0,0.88,0.45,-0.01,0.47,-0.12,-1.03
2024-12-06 12:39:44.427,0.67,483.0,0.88,0.45,-0.01,0.4,-0.12,-0.97
2024-12-06 12:39:44.433,2.92,486.0,0.88,0.45,-0.01,0.34,-0.24,-0.91
2024-12-06 12:39:44.442,1.57,483.0,0.88,0.45,-0.01,0.4,-0.3,-0.78
2024-12-06 12:39:44.449,-1.35,482.0,0.88,0.45,-0.01,0.47,-0.24,-0.78
2024-12-06 12:39:44.457,3.38,479.0,0.88,0.45,-0.01,0.65,-0.06,-0.78
2024-12-06 12:39:44.464,4.05,482.0,0.89,0.45,-0.01,0.65,-0.06,-0.78
2024-12-06 12:39:44.475,1.12,494.0,0.89,0.45,-0.01,0.89,0.13,-0.54
2024-12-06 12:39:44.487,-1.35,482.0,0.89,0.46,-0.01,1.14,0.25,-0.17
2024-12-06 12:39:44.491,-1.57,485.0,0.89,0.46,-0.01,1.32,0.49,0.13
2024-12-06 12:39:44.502,2.92,488.0,0.89,0.46,-0.01,1.44,0.55,0.44
2024-12-06 12:39:44.506,-2.02,486.0,0.89,0.46,-0.01,1.44,0.55,0.44
2024-12-06 12:39:44.512,1.57,477.0,0.89,0.46,-0.01,1.56,0.55,0.62
2024-12-06 12:39:44.519,-3.6,500.0,0.89,0.46,-0.01,1.69,0.68,0.74
2024-12-06 12:39:44.526,4.28,491.0,0.89,0.45,-0.01,1.81,0.62,0.93
2024-12-06 12:39:44.538,2.25,495.0,0.89,0.45,-0.01,1.87,0.62,1.05
2024-12-06 12:39:44.545,-2.02,475.0,0.89,0.45,-0.01,1.93,0.62,1.05
2024-12-06 12:39:44.551,2.25,488.0,0.89,0.45,-0.01,1.93,0.62,1.05
2024-12-06 12:39:44.561,-2.25,500.0,0.89,0.45,-0.0,1.81,0.49,0.99
2024-12-06 12:39:44.595,4.05,485.0,0.89,0.44,-0.01,0.95,0.13,0.25
2024-12-06 12:39:44.598,2.02,486.0,0.89,0.42,-0.01,0.59,-0.24,0.07
2024-12-06 12:39:44.604,2.25,484.0,0.88,0.42,-0.01,0.34,-0.54,-0.05
2024-12-06 12:39:44.610,1.35,472.0,0.88,0.42,-0.0,0.16,-0.61,-0.17
2024-12-06 12:39:44.618,2.02,482.0,0.88,0.42,-0.0,0.1,-0.54,-0.17
2024-12-06 12:39:44.629,-0.45,485.0,0.87,0.42,-0.0,0.1,-0.54,-0.17
2024-12-06 12:39:44.636,2.02,482.0,0.87,0.43,-0.0,-0.02,-0.18,-0.17
2024-12-06 12:39:44.647,0.45,497.0,0.87,0.44,0.0,-0.21,0.19,-0.23
2024-12-06 12:39:44.659,3.82,492.0,0.87,0.44,0.0,-0.33,0.55,-0.23
2024-12-06 12:39:44.661,2.92,489.0,0.87,0.44,-0.0,-0.39,0.98,-0.36
2024-12-06 12:39:44.666,-7.2,508.0,0.87,0.44,-0.0,-0.39,1.04,-0.48
2024-12-06 12:39:44.681,0.9,490.0,0.88,0.45,-0.0,-0.39,1.04,-0.48
2024-12-06 12:39:44.689,-3.15,483.0,0.88,0.45,-0.01,-0.33,0.92,-0.66
2024-12-06 12:39:44.693,3.6,501.0,0.88,0.45,-0.02,-0.15,0.68,-1.03
2024-12-06 12:39:44.696,1.57,478.0,0.89,0.45,-0.01,-0.08,0.62,-1.52
2024-12-06 12:39:44.714,4.72,494.0,0.89,0.45,-0.01,0.04,-0.06,-1.76
2024-12-06 12:39:44.716,2.02,491.0,0.9,0.45,-0.01,0.04,-0.06,-1.76
2024-12-06 12:39:44.719,-1.35,479.0,0.9,0.45,-0.01,0.16,-0.42,-1.88
2024-12-06 12:39:44.747,1.8,500.0,0.9,0.45,0.0,0.4,-1.77,-2.25
2024-12-06 12:39:44.754,3.6,472.0,0.9,0.46,0.01,0.4,-1.77,-2.25
2024-12-06 12:39:44.758,-3.6,489.0,0.9,0.46,0.0,0.53,-1.89,-2.25
2024-12-06 12:39:44.767,1.57,483.0,0.9,0.47,0.01,0.71,-1.77,-2.06
2024-12-06 12:39:44.775,3.82,486.0,0.89,0.47,0.01,0.89,-1.77,-1.76
2024-12-06 12:39:44.783,-4.28,495.0,0.88,0.46,0.0,0.95,-1.46,-1.45
2024-12-06 12:39:44.790,2.47,487.0,0.88,0.46,0.0,0.95,-0.91,-1.15
2024-12-06 12:39:44.796,2.92,483.0,0.87,0.46,-0.0,0.95,-0.91,-1.15
2024-12-06 12:39:44.833,3.82,488.0,0.87,0.45,-0.01,0.83,-0.48,-0.97
2024-12-06 12:39:44.836,1.35,479.0,0.88,0.44,-0.02,0.22,-0.36,-0.48
