Timestamp,PosIsDeg,ForceIs,AccX,AccY,AccZ,GyroX,GyroY,GyroZ
2024-12-06 12:40:14.13,-3.38,443.0,0.88,0.46,-0.03,0.16,0.31,-0.91
2024-12-06 12:40:14.64,-1.35,444.0,0.89,0.46,-0.03,0.16,0.62,-0.78
2024-12-06 12:40:14.72,1.8,445.0,0.93,0.47,-0.01,-0.21,1.04,2.39
2024-12-06 12:40:14.94,-0.45,443.0,0.83,0.45,-0.03,0.1,-0.85,0.44
2024-12-06 12:40:14.121,-1.12,444.0,0.88,0.47,-0.01,0.28,-0.36,-2.8
2024-12-06 12:40:14.200,-0.22,452.0,0.87,0.46,-0.03,0.59,0.43,-0.66
2024-12-06 12:40:14.206,3.82,449.0,0.89,0.46,-0.01,1.26,0.37,-1.64
2024-12-06 12:40:14.231,0.9,439.0,0.86,0.45,-0.02,1.44,-1.09,-3.22
2024-12-06 12:40:14.260,4.5,460.0,0.78,0.45,-0.04,2.17,-2.5,-13.48
2024-12-06 12:40:14.293,2.7,461.0,0.84,0.48,0.0,1.2,-2.74,-15.07
2024-12-06 12:40:14.383,3.82,454.0,0.91,0.51,-0.04,-0.15,1.71,-10.06
2024-12-06 12:40:14.416,8.77,469.0,0.89,0.51,-0.04,-0.02,-0.24,-9.08
2024-12-06 12:40:14.426,14.17,456.0,0.9,0.52,-0.04,0.4,-1.22,-8.29
2024-12-06 12:40:14.452,11.92,471.0,0.88,0.51,-0.04,1.44,-0.36,-5.6
2024-12-06 12:40:14.482,7.88,444.0,0.83,0.49,-0.03,1.99,0.8,-6.09
2024-12-06 12:40:14.525,14.4,488.0,0.83,0.5,-0.02,1.2,0.37,-7.56
2024-12-06 12:40:14.537,12.6,478.0,0.79,0.48,-0.01,-0.45,-0.73,-12.01
2024-12-06 12:40:14.565,15.97,474.0,0.78,0.5,-0.02,-0.63,-0.61,-15.37
2024-12-06 12:40:14.593,13.72,476.0,0.79,0.52,-0.02,-0.51,1.59,-17.51
2024-12-06 12:40:14.646,16.88,493.0,0.79,0.53,-0.04,-0.39,2.51,-19.15
2024-12-06 12:40:14.649,16.42,501.0,0.84,0.56,-0.04,0.28,3.48,-19.09
2024-12-06 12:40:14.671,22.05,482.0,0.86,0.57,-0.03,0.16,3.06,-16.96
2024-12-06 12:40:14.701,19.12,496.0,0.85,0.56,-0.03,0.04,1.29,-16.84
2024-12-06 12:40:14.746,17.1,475.0,0.85,0.57,-0.03,0.83,-0.12,-15.8
2024-12-06 12:40:14.759,23.85,480.0,0.83,0.59,-0.03,1.87,0.8,-13.97
2024-12-06 12:40:14.783,22.05,499.0,0.83,0.6,-0.03,2.66,2.32,-10.67
2024-12-06 12:40:14.811,26.32,485.0,0.82,0.59,-0.03,2.85,3.48,-8.53
2024-12-06 12:40:14.860,27.0,491.0,0.83,0.59,-0.03,2.6,2.2,-7.25
2024-12-06 12:40:14.870,24.3,500.0,0.83,0.6,-0.03,2.72,1.04,-6.34
2024-12-06 12:40:14.893,24.97,498.0,0.81,0.59,-0.02,3.09,1.29,-5.6
2024-12-06 12:40:14.924,25.42,503.0,0.79,0.59,-0.03,3.52,1.65,-5.67
2024-12-06 12:40:14.970,27.22,505.0,0.8,0.59,-0.02,3.03,1.65,-5.3
2024-12-06 12:40:14.983,32.4,495.0,0.78,0.58,-0.02,2.3,1.23,-5.06
2024-12-06 12:40:15.3,32.4,493.0,0.77,0.58,-0.0,1.44,1.65,-6.46
2024-12-06 12:40:15.48,29.7,495.0,0.78,0.59,-0.01,1.08,1.77,-7.01
2024-12-06 12:40:15.77,33.97,506.0,0.79,0.59,-0.02,0.89,1.53,-7.8
2024-12-06 12:40:15.87,36.45,507.0,0.8,0.59,-0.01,-0.39,0.13,-7.8
2024-12-06 12:40:15.114,32.4,494.0,0.77,0.59,-0.02,-1.98,-1.28,-8.84
2024-12-06 12:40:15.143,34.65,488.0,0.79,0.6,-0.02,-2.28,-2.31,-9.27
2024-12-06 12:40:15.192,39.38,495.0,0.77,0.59,-0.03,-1.98,-1.95,-8.78
2024-12-06 12:40:15.207,37.58,496.0,0.77,0.6,-0.02,-2.34,-1.52,-9.63
2024-12-06 12:40:15.227,40.27,531.0,0.79,0.61,-0.01,-2.65,-2.92,-9.02
2024-12-06 12:40:15.253,39.6,505.0,0.79,0.62,-0.03,-2.77,-2.01,-8.72
2024-12-06 12:40:15.301,40.72,488.0,0.8,0.64,-0.01,-2.4,-2.13,-6.95
2024-12-06 12:40:15.312,46.12,504.0,0.78,0.62,-0.02,-3.01,-1.89,-6.46
2024-12-06 12:40:15.428,43.2,515.0,0.78,0.62,-0.02,-3.26,-2.38,-6.09
2024-12-06 12:40:15.431,45.45,494.0,0.81,0.65,-0.03,-1.92,-2.62,-4.14
2024-12-06 12:40:15.447,51.3,492.0,0.78,0.64,-0.01,-2.95,-5.73,-3.71
2024-12-06 12:40:15.472,49.27,489.0,0.77,0.66,-0.02,-3.56,-5.0,-2.31
2024-12-06 12:40:15.500,47.47,505.0,0.74,0.64,-0.01,-2.59,-3.05,-1.7
2024-12-06 12:40:15.548,49.5,488.0,0.76,0.64,-0.02,-3.32,-2.19,-0.6
2024-12-06 12:40:15.556,51.97,502.0,0.74,0.62,-0.02,-4.97,-2.92,-1.09
2024-12-06 12:40:15.585,52.65,502.0,0.73,0.65,-0.01,-5.82,-3.84,-3.29
2024-12-06 12:40:15.616,49.72,501.0,0.75,0.64,-0.01,-5.76,-3.35,-3.22
2024-12-06 12:40:15.644,55.12,504.0,0.73,0.63,-0.01,-5.15,-2.62,-4.51
2024-12-06 12:40:15.666,58.5,496.0,0.76,0.64,-0.02,-4.78,-2.19,-4.08
2024-12-06 12:40:15.694,60.97,497.0,0.75,0.65,-0.02,-4.78,-2.25,-3.53
2024-12-06 12:40:15.722,58.05,503.0,0.75,0.66,-0.02,-4.78,-2.5,-3.77
2024-12-06 12:40:15.753,54.45,517.0,0.75,0.66,-0.02,-4.48,-2.99,-2.8
2024-12-06 12:40:15.779,58.72,516.0,0.74,0.65,-0.03,-4.54,-2.92,-3.59
2024-12-06 12:40:15.805,59.17,523.0,0.75,0.65,-0.02,-3.75,-3.05,-4.2
2024-12-06 12:40:15.841,59.85,514.0,0.75,0.64,-0.03,-3.14,-4.45,-4.02
2024-12-06 12:40:15.886,64.12,534.0,0.74,0.66,-0.03,-3.2,-3.72,-4.38
2024-12-06 12:40:15.892,64.35,534.0,0.74,0.67,-0.03,-2.65,-2.74,-4.45
2024-12-06 12:40:15.915,67.5,521.0,0.74,0.66,-0.02,-2.71,-3.29,-3.71
2024-12-06 12:40:15.943,66.82,529.0,0.75,0.65,-0.02,-3.44,-3.72,-3.04
2024-12-06 12:40:15.992,67.95,523.0,0.75,0.65,-0.02,-3.32,-4.88,-3.41
2024-12-06 12:40:15.999,67.05,528.0,0.75,0.65,-0.02,-2.89,-3.66,-3.16
2024-12-06 12:40:16.25,66.15,533.0,0.74,0.66,-0.02,-2.34,-2.74,-2.25
2024-12-06 12:40:16.53,68.62,535.0,0.74,0.64,-0.02,-2.53,-1.34,-2.43
2024-12-06 12:40:16.82,68.17,531.0,0.75,0.66,-0.02,-2.71,-2.13,-1.88
2024-12-06 12:40:16.111,71.32,539.0,0.74,0.67,-0.01,-2.77,-2.13,-1.88
2024-12-06 12:40:16.139,70.42,561.0,0.74,0.67,-0.01,-2.77,-2.68,-1.76
2024-12-06 12:40:16.164,74.47,561.0,0.73,0.65,-0.02,-2.83,-2.01,-1.88
2024-12-06 12:40:16.209,74.92,542.0,0.75,0.66,-0.02,-2.46,-2.74,-2.86
2024-12-06 12:40:16.226,75.38,552.0,0.74,0.66,-0.01,-1.73,-2.44,-2.55
2024-12-06 12:40:16.259,78.75,601.0,0.74,0.67,-0.01,-1.73,-2.25,-2.37
2024-12-06 12:40:16.278,71.78,552.0,0.73,0.69,-0.02,-1.85,-2.25,-0.84
2024-12-06 12:40:16.313,74.92,562.0,0.74,0.67,-0.01,-2.4,-1.95,-0.42
2024-12-06 12:40:16.335,74.92,562.0,0.75,0.69,-0.02,-2.53,-2.38,0.62
2024-12-06 12:40:16.360,79.88,582.0,0.74,0.67,-0.02,-1.61,-2.01,0.8
2024-12-06 12:40:16.478,80.1,556.0,0.76,0.65,-0.03,-0.57,-2.01,0.99
2024-12-06 12:40:16.482,80.1,569.0,0.75,0.64,-0.03,-0.51,-5.61,1.41
2024-12-06 12:40:16.495,85.5,586.0,0.74,0.67,-0.02,-1.06,-7.08,2.27
2024-12-06 12:40:17.809,83.25,601.0,0.76,0.64,-0.05,0.71,-0.48,-0.72
2024-12-06 12:40:17.813,85.28,607.0,0.76,0.64,-0.05,0.83,-0.24,-0.78
2024-12-06 12:40:17.824,87.75,611.0,0.76,0.64,-0.05,0.89,0.07,-0.78
2024-12-06 12:40:17.830,86.85,596.0,0.76,0.64,-0.04,0.89,0.07,-0.78
2024-12-06 12:40:17.833,85.72,597.0,0.76,0.64,-0.04,0.89,0.25,-0.78
2024-12-06 12:40:17.842,86.17,592.0,0.76,0.64,-0.04,0.89,0.37,-0.78
2024-12-06 12:40:17.849,84.38,617.0,0.76,0.64,-0.04,1.01,0.43,-0.66
2024-12-06 12:40:17.857,85.72,596.0,0.76,0.64,-0.04,1.2,0.55,-0.54
2024-12-06 12:40:17.868,87.3,597.0,0.76,0.64,-0.04,1.44,0.62,-0.42
2024-12-06 12:40:17.877,88.42,611.0,0.76,0.64,-0.04,1.44,0.62,-0.42
2024-12-06 12:40:17.886,82.57,593.0,0.76,0.64,-0.04,1.56,0.74,-0.36
2024-12-06 12:40:17.894,85.72,602.0,0.76,0.64,-0.04,1.69,0.8,-0.29
2024-12-06 12:40:17.902,86.17,609.0,0.76,0.64,-0.04,1.81,0.8,-0.29
2024-12-06 12:40:17.911,86.4,596.0,0.76,0.64,-0.04,1.81,0.8,-0.29
2024-12-06 12:40:17.915,88.2,587.0,0.76,0.64,-0.04,1.81,0.8,-0.29
2024-12-06 12:40:17.924,85.5,595.0,0.76,0.64,-0.05,1.93,0.8,-0.29
2024-12-06 12:40:17.929,87.3,594.0,0.76,0.63,-0.05,1.99,0.8,-0.29
2024-12-06 12:40:17.936,82.35,596.0,0.76,0.63,-0.05,2.05,0.68,-0.17
2024-12-06 12:40:17.944,86.85,597.0,0.76,0.63,-0.05,2.05,0.55,0.01
2024-12-06 12:40:17.953,82.12,602.0,0.76,0.63,-0.05,2.05,0.43,0.07
2024-12-06 12:40:17.961,82.8,595.0,0.76,0.63,-0.05,2.05,0.43,0.07
2024-12-06 12:40:17.967,81.0,609.0,0.76,0.63,-0.04,1.99,0.43,0.13
2024-12-06 12:40:17.975,86.62,599.0,0.76,0.63,-0.04,1.99,0.43,0.13
2024-12-06 12:40:17.986,83.92,599.0,0.76,0.63,-0.04,1.93,0.49,0.07
2024-12-06 12:40:17.993,85.28,592.0,0.76,0.63,-0.04,1.93,0.62,-0.05
2024-12-06 12:40:18.2,83.92,602.0,0.76,0.63,-0.04,1.87,0.74,-0.11
2024-12-06 12:40:18.15,87.07,595.0,0.76,0.63,-0.04,1.87,0.74,-0.11
2024-12-06 12:40:18.24,82.12,612.0,0.76,0.63,-0.05,1.87,1.16,-0.11
2024-12-06 12:40:18.26,87.97,607.0,0.76,0.63,-0.04,1.93,1.29,-0.11
2024-12-06 12:40:18.58,87.52,591.0,0.77,0.62,-0.05,1.99,0.0,-0.42
2024-12-06 12:40:18.62,87.07,608.0,0.77,0.62,-0.05,1.75,-0.06,-0.48
2024-12-06 12:40:18.66,86.62,592.0,0.77,0.63,-0.05,1.69,-0.18,-0.6
2024-12-06 12:40:18.85,82.57,602.0,0.77,0.63,-0.05,1.75,-0.24,-0.66
2024-12-06 12:40:18.106,86.62,588.0,0.77,0.63,-0.05,1.75,-0.24,-0.6
2024-12-06 12:40:18.111,87.3,609.0,0.77,0.62,-0.05,1.62,-0.24,-0.42
2024-12-06 12:40:18.119,88.88,596.0,0.77,0.62,-0.05,1.62,-0.3,-0.36
2024-12-06 12:40:18.123,87.07,598.0,0.77,0.62,-0.05,1.56,-0.3,-0.29
2024-12-06 12:40:18.132,83.92,613.0,0.77,0.62,-0.05,1.56,-0.3,-0.29
2024-12-06 12:40:18.139,86.4,597.0,0.76,0.62,-0.05,1.5,-0.3,-0.36
2024-12-06 12:40:18.143,82.35,597.0,0.76,0.62,-0.05,1.44,-0.36,-0.23
2024-12-06 12:40:18.151,88.42,596.0,0.77,0.62,-0.05,1.38,-0.42,-0.17
2024-12-06 12:40:18.160,86.62,606.0,0.77,0.62,-0.05,1.26,-0.42,-0.17
2024-12-06 12:40:18.173,83.92,608.0,0.77,0.62,-0.05,1.2,-0.48,-0.23
2024-12-06 12:40:18.176,81.9,594.0,0.77,0.62,-0.05,1.2,-0.48,-0.23
2024-12-06 12:40:18.184,86.85,598.0,0.77,0.62,-0.05,1.14,-0.48,-0.29
2024-12-06 12:40:18.195,86.17,594.0,0.76,0.62,-0.05,1.14,-0.54,-0.36
2024-12-06 12:40:18.199,85.95,601.0,0.76,0.62,-0.05,1.14,-0.54,-0.48
2024-12-06 12:40:18.207,87.3,593.0,0.76,0.62,-0.05,1.14,-0.54,-0.54
2024-12-06 12:40:18.250,84.82,597.0,0.76,0.62,-0.05,0.89,-0.54,-0.84
2024-12-06 12:40:18.252,83.47,592.0,0.76,0.62,-0.05,0.83,-0.54,-0.84
2024-12-06 12:40:18.261,86.17,607.0,0.76,0.62,-0.05,0.83,-0.54,-0.84
2024-12-06 12:40:18.270,83.03,596.0,0.76,0.62,-0.05,0.89,-0.42,-0.78
2024-12-06 12:40:18.277,83.92,586.0,0.76,0.62,-0.05,0.83,-0.3,-0.78
2024-12-06 12:40:18.288,86.4,609.0,0.76,0.62,-0.05,0.83,-0.24,-0.72
2024-12-06 12:40:18.295,82.12,598.0,0.76,0.62,-0.05,0.83,-0.12,-0.72
2024-12-06 12:40:18.301,87.97,614.0,0.76,0.63,-0.05,0.77,-0.06,-0.72
2024-12-06 12:40:18.309,88.2,600.0,0.76,0.63,-0.05,0.77,-0.06,-0.78
2024-12-06 12:40:18.338,83.47,595.0,0.76,0.62,-0.05,0.77,-0.12,-0.97
2024-12-06 12:40:18.342,86.85,592.0,0.76,0.62,-0.05,0.65,-0.12,-1.03
2024-12-06 12:40:18.351,83.7,589.0,0.76,0.62,-0.05,0.59,-0.12,-1.09
2024-12-06 12:40:18.364,83.47,632.0,0.76,0.62,-0.05,0.59,-0.12,-1.09
2024-12-06 12:40:18.368,87.07,604.0,0.76,0.62,-0.05,0.59,-0.12,-1.03
2024-12-06 12:40:18.375,86.4,592.0,0.76,0.63,-0.05,0.59,0.0,-1.09
2024-12-06 12:40:18.379,84.82,610.0,0.76,0.63,-0.05,0.65,0.07,-1.09
2024-12-06 12:40:18.389,86.4,588.0,0.76,0.63,-0.05,0.71,0.13,-1.15
2024-12-06 12:40:18.400,87.75,594.0,0.76,0.63,-0.05,0.71,0.13,-1.21
2024-12-06 12:40:18.403,86.4,595.0,0.76,0.63,-0.06,0.77,0.13,-1.21
2024-12-06 12:40:18.409,83.47,606.0,0.77,0.63,-0.06,0.77,0.07,-1.21
2024-12-06 12:40:18.417,85.72,611.0,0.77,0.63,-0.06,0.83,0.0,-1.15
2024-12-06 12:40:18.425,85.05,591.0,0.77,0.63,-0.06,0.83,-0.12,-1.09
2024-12-06 12:40:18.434,83.47,600.0,0.77,0.63,-0.06,0.83,-0.3,-0.97
2024-12-06 12:40:18.442,88.42,600.0,0.77,0.62,-0.06,0.83,-0.48,-0.97
2024-12-06 12:40:18.476,85.95,596.0,0.77,0.62,-0.06,0.95,-0.79,-0.84
2024-12-06 12:40:18.479,84.38,600.0,0.77,0.62,-0.05,0.89,-0.67,-0.78
2024-12-06 12:40:18.594,83.7,601.0,0.76,0.62,-0.05,0.04,-0.36,-1.09
2024-12-06 12:40:18.603,86.4,589.0,0.76,0.62,-0.05,0.04,-0.36,-1.09
2024-12-06 12:40:18.608,84.6,603.0,0.76,0.63,-0.05,0.04,-0.3,-1.09
2024-12-06 12:40:18.616,90.22,591.0,0.76,0.63,-0.05,0.1,-0.24,-1.09
2024-12-06 12:40:18.630,86.85,592.0,0.76,0.63,-0.05,0.1,-0.24,-1.09
2024-12-06 12:40:18.633,85.95,594.0,0.76,0.63,-0.05,0.1,-0.18,-1.15
2024-12-06 12:40:18.643,89.77,592.0,0.76,0.62,-0.05,-0.02,-0.06,-1.21
2024-12-06 12:40:18.649,89.32,589.0,0.76,0.62,-0.05,-0.02,-0.06,-1.21
2024-12-06 12:40:18.655,88.2,587.0,0.76,0.63,-0.05,-0.08,0.0,-1.21
2024-12-06 12:40:18.663,83.47,596.0,0.76,0.63,-0.05,-0.08,0.13,-1.15
2024-12-06 12:40:18.697,86.62,599.0,0.76,0.63,-0.05,-0.08,0.19,-1.09
2024-12-06 12:40:18.708,85.95,597.0,0.76,0.63,-0.05,-0.08,0.25,-0.97
2024-12-06 12:40:18.711,83.92,621.0,0.76,0.62,-0.05,-0.08,0.37,-0.97
2024-12-06 12:40:18.715,88.42,602.0,0.76,0.62,-0.05,-0.15,0.49,-0.91
2024-12-06 12:40:18.724,87.52,600.0,0.76,0.62,-0.05,-0.08,0.55,-0.91
2024-12-06 12:40:18.733,86.4,609.0,0.76,0.63,-0.05,-0.08,0.55,-0.91
2024-12-06 12:40:18.740,86.85,609.0,0.76,0.63,-0.05,-0.02,0.62,-0.84
2024-12-06 12:40:18.750,85.05,600.0,0.76,0.63,-0.05,-0.08,0.62,-0.84
2024-12-06 12:40:18.756,84.82,609.0,0.76,0.63,-0.05,-0.02,0.62,-0.84
2024-12-06 12:40:18.763,86.85,609.0,0.76,0.63,-0.05,0.04,0.55,-0.84
2024-12-06 12:40:18.771,82.57,566.0,0.76,0.63,-0.05,0.04,0.49,-0.91
2024-12-06 12:40:18.779,85.72,588.0,0.77,0.63,-0.06,0.04,0.49,-0.91
2024-12-06 12:40:18.791,86.17,602.0,0.77,0.63,-0.06,0.04,0.37,-1.03
2024-12-06 12:40:18.797,83.03,604.0,0.77,0.63,-0.06,0.1,0.25,-1.03
2024-12-06 12:40:18.806,85.95,591.0,0.77,0.63,-0.06,0.16,0.07,-1.03
2024-12-06 12:40:18.820,84.15,631.0,0.77,0.63,-0.06,0.34,-0.18,-0.84
2024-12-06 12:40:18.835,87.3,601.0,0.77,0.62,-0.06,0.34,-0.18,-0.84
2024-12-06 12:40:18.841,83.92,619.0,0.77,0.62,-0.06,0.28,-0.24,-0.72
2024-12-06 12:40:18.846,83.92,607.0,0.76,0.63,-0.06,0.22,-0.24,-0.72
2024-12-06 12:40:18.850,88.88,587.0,0.76,0.63,-0.06,0.22,-0.24,-0.66
2024-12-06 12:40:18.869,85.28,616.0,0.76,0.63,-0.05,0.22,-0.18,-0.72
2024-12-06 12:40:18.874,88.88,613.0,0.76,0.63,-0.06,0.28,-0.18,-0.78
2024-12-06 12:40:18.880,88.2,592.0,0.76,0.62,-0.06,0.34,-0.06,-0.78
2024-12-06 12:40:18.887,83.7,596.0,0.76,0.62,-0.06,0.4,0.0,-0.91
2024-12-06 12:40:18.923,86.62,596.0,0.76,0.62,-0.06,0.34,0.0,-0.84
2024-12-06 12:40:18.927,89.77,603.0,0.76,0.63,-0.05,-0.02,0.07,-0.84
2024-12-06 12:40:18.933,86.85,612.0,0.76,0.63,-0.05,0.04,0.07,-0.78
2024-12-06 12:40:18.944,83.03,602.0,0.76,0.63,-0.05,0.1,0.07,-0.72
2024-12-06 12:40:18.949,82.57,609.0,0.77,0.62,-0.05,0.1,0.07,-0.72
2024-12-06 12:40:18.962,88.88,608.0,0.77,0.62,-0.06,0.1,0.07,-0.78
2024-12-06 12:40:18.965,87.97,609.0,0.76,0.62,-0.06,0.1,0.07,-0.78
2024-12-06 12:40:18.977,87.07,602.0,0.76,0.63,-0.06,0.1,0.07,-0.72
2024-12-06 12:40:18.982,86.17,609.0,0.76,0.63,-0.06,0.04,0.07,-0.66
2024-12-06 12:40:18.989,86.17,607.0,0.76,0.63,-0.05,0.04,0.07,-0.66
2024-12-06 12:40:18.995,83.25,602.0,0.76,0.63,-0.06,0.1,0.07,-0.6
2024-12-06 12:40:19.12,81.45,622.0,0.76,0.63,-0.06,0.34,0.13,-0.48
2024-12-06 12:40:19.18,85.28,597.0,0.76,0.63,-0.06,0.4,0.13,-0.54
2024-12-06 12:40:19.26,84.15,597.0,0.76,0.63,-0.06,0.47,0.13,-0.6
2024-12-06 12:40:19.39,83.7,593.0,0.76,0.63,-0.06,0.47,0.13,-0.6
2024-12-06 12:40:19.48,84.82,604.0,0.76,0.63,-0.05,0.4,0.13,-0.66
2024-12-06 12:40:19.52,87.07,608.0,0.77,0.63,-0.05,0.4,0.19,-0.66
2024-12-06 12:40:19.62,83.47,614.0,0.77,0.63,-0.05,0.4,0.31,-0.66
2024-12-06 12:40:19.66,86.4,598.0,0.77,0.63,-0.05,0.34,0.37,-0.6
2024-12-06 12:40:19.86,80.1,601.0,0.77,0.62,-0.05,0.28,0.37,-0.48
2024-12-06 12:40:19.104,86.4,600.0,0.76,0.62,-0.05,0.16,0.31,-0.29
2024-12-06 12:40:19.145,83.03,611.0,0.76,0.62,-0.05,0.1,0.37,-0.29
2024-12-06 12:40:19.152,86.4,613.0,0.77,0.63,-0.05,-0.08,0.62,-0.48
2024-12-06 12:40:19.156,84.15,614.0,0.77,0.63,-0.05,-0.02,0.62,-0.54
2024-12-06 12:40:19.161,85.95,613.0,0.77,0.62,-0.05,-0.02,0.62,-0.54
2024-12-06 12:40:19.164,84.82,621.0,0.77,0.62,-0.06,0.04,0.49,-0.66
2024-12-06 12:40:19.173,87.07,595.0,0.77,0.62,-0.06,0.04,0.31,-0.78
2024-12-06 12:40:19.181,87.75,603.0,0.77,0.62,-0.06,0.04,0.07,-0.78
2024-12-06 12:40:19.200,89.1,607.0,0.77,0.62,-0.06,0.1,-0.24,-0.72
2024-12-06 12:40:19.208,86.85,604.0,0.77,0.62,-0.06,0.1,-0.24,-0.72
2024-12-06 12:40:19.222,84.6,624.0,0.77,0.62,-0.06,0.1,-0.3,-0.66
2024-12-06 12:40:19.232,83.03,599.0,0.76,0.62,-0.05,-0.08,-0.36,-0.66
2024-12-06 12:40:19.239,86.4,632.0,0.76,0.62,-0.05,-0.15,-0.24,-0.72
2024-12-06 12:40:19.247,87.07,598.0,0.76,0.62,-0.05,-0.15,-0.18,-0.78
2024-12-06 12:40:19.259,81.9,600.0,0.76,0.62,-0.05,-0.08,-0.18,-0.78
2024-12-06 12:40:19.266,84.15,568.0,0.77,0.62,-0.06,-0.08,-0.18,-0.84
2024-12-06 12:40:19.275,85.95,606.0,0.77,0.62,-0.06,-0.08,-0.24,-0.84
2024-12-06 12:40:19.282,87.75,607.0,0.77,0.62,-0.06,-0.21,-0.3,-0.91
2024-12-06 12:40:19.290,84.38,614.0,0.77,0.62,-0.05,-0.33,-0.24,-0.91
2024-12-06 12:40:19.298,86.17,597.0,0.76,0.62,-0.05,-0.33,-0.24,-0.91
2024-12-06 12:40:19.308,86.62,614.0,0.76,0.62,-0.05,-0.39,-0.12,-0.84
2024-12-06 12:40:19.325,89.32,607.0,0.76,0.63,-0.05,-0.39,-0.12,-0.72
2024-12-06 12:40:19.328,86.85,607.0,0.76,0.62,-0.05,-0.39,-0.06,-0.6
2024-12-06 12:40:19.330,88.42,614.0,0.76,0.62,-0.05,-0.45,0.0,-0.54
2024-12-06 12:40:19.338,82.12,606.0,0.76,0.62,-0.05,-0.45,-0.06,-0.54
2024-12-06 12:40:19.380,86.17,598.0,0.77,0.62,-0.05,-0.45,-0.06,-0.54
2024-12-06 12:40:19.384,82.8,603.0,0.77,0.63,-0.05,-0.39,-0.06,-0.54
2024-12-06 12:40:19.390,83.47,594.0,0.77,0.63,-0.05,-0.39,-0.06,-0.54
2024-12-06 12:40:19.395,85.95,599.0,0.77,0.63,-0.06,-0.27,-0.12,-0.6
2024-12-06 12:40:19.404,82.8,603.0,0.77,0.63,-0.06,-0.21,-0.12,-0.72
2024-12-06 12:40:19.415,86.62,605.0,0.77,0.63,-0.05,-0.27,-0.06,-0.72
2024-12-06 12:40:19.428,83.03,585.0,0.77,0.63,-0.05,-0.33,0.0,-0.72
2024-12-06 12:40:19.431,81.0,606.0,0.77,0.63,-0.05,-0.33,0.13,-0.72
2024-12-06 12:40:19.439,86.85,597.0,0.77,0.63,-0.05,-0.33,0.13,-0.6
2024-12-06 12:40:19.453,78.75,606.0,0.77,0.62,-0.05,-0.33,0.07,-0.42
2024-12-06 12:40:19.460,83.25,603.0,0.77,0.62,-0.06,-0.27,-0.06,-0.17
2024-12-06 12:40:19.472,87.75,606.0,0.77,0.62,-0.06,-0.21,-0.12,0.01
2024-12-06 12:40:19.479,88.65,598.0,0.77,0.62,-0.06,-0.15,-0.12,0.13
2024-12-06 12:40:19.481,82.35,630.0,0.77,0.62,-0.06,-0.15,-0.12,0.19
2024-12-06 12:40:19.490,87.07,596.0,0.77,0.62,-0.05,-0.02,-0.06,0.19
2024-12-06 12:40:19.496,88.2,604.0,0.77,0.62,-0.05,-0.02,0.07,0.25
2024-12-06 12:40:19.502,83.03,592.0,0.76,0.62,-0.05,-0.02,0.25,0.19
2024-12-06 12:40:19.513,83.92,592.0,0.76,0.62,-0.05,-0.08,0.43,0.19
2024-12-06 12:40:19.522,86.62,612.0,0.76,0.62,-0.05,0.04,0.62,0.19
2024-12-06 12:40:19.527,82.8,628.0,0.76,0.62,-0.05,0.04,0.62,0.07
2024-12-06 12:40:19.621,87.07,594.0,0.76,0.62,-0.05,0.1,0.92,0.07
2024-12-06 12:40:19.638,86.4,604.0,0.77,0.63,-0.05,0.1,-0.18,-0.66
2024-12-06 12:40:19.643,87.3,599.0,0.77,0.62,-0.05,0.1,-0.18,-0.66
2024-12-06 12:40:19.645,86.4,600.0,0.77,0.62,-0.05,0.1,-0.18,-0.66
2024-12-06 12:40:19.654,88.65,586.0,0.77,0.62,-0.05,0.04,-0.3,-0.6
2024-12-06 12:40:19.663,86.85,589.0,0.77,0.62,-0.05,0.04,-0.36,-0.6
2024-12-06 12:40:19.670,89.55,587.0,0.77,0.62,-0.05,-0.15,-0.42,-0.6
2024-12-06 12:40:19.678,86.85,614.0,0.76,0.62,-0.05,-0.27,-0.42,-0.6
2024-12-06 12:40:19.693,82.8,600.0,0.77,0.62,-0.05,-0.27,-0.42,-0.6
2024-12-06 12:40:19.695,88.42,592.0,0.77,0.62,-0.05,-0.39,-0.36,-0.6
2024-12-06 12:40:19.701,86.4,602.0,0.77,0.62,-0.05,-0.39,-0.24,-0.54
2024-12-06 12:40:19.710,86.85,606.0,0.77,0.62,-0.05,-0.39,-0.06,-0.48
2024-12-06 12:40:19.717,82.8,593.0,0.77,0.62,-0.05,-0.39,0.0,-0.42
2024-12-06 12:40:19.725,88.65,590.0,0.77,0.62,-0.05,-0.33,0.13,-0.42
2024-12-06 12:40:19.734,86.4,605.0,0.77,0.62,-0.05,-0.33,0.13,-0.42
2024-12-06 12:40:19.740,84.15,608.0,0.77,0.62,-0.05,-0.27,0.13,-0.42
2024-12-06 12:40:19.748,86.85,594.0,0.77,0.62,-0.05,-0.33,0.13,-0.42
2024-12-06 12:40:19.756,88.65,590.0,0.77,0.62,-0.05,-0.33,0.13,-0.48
2024-12-06 12:40:19.766,86.62,598.0,0.77,0.62,-0.05,-0.33,0.13,-0.54
2024-12-06 12:40:19.775,85.05,606.0,0.77,0.62,-0.05,-0.33,0.13,-0.54
2024-12-06 12:40:19.781,82.57,606.0,0.77,0.62,-0.05,-0.33,0.13,-0.54
2024-12-06 12:40:19.788,83.7,598.0,0.77,0.62,-0.05,-0.27,0.19,-0.54
2024-12-06 12:40:19.800,86.62,599.0,0.77,0.62,-0.05,-0.21,0.19,-0.54
2024-12-06 12:40:19.826,81.9,587.0,0.77,0.63,-0.05,0.1,0.49,-0.42
2024-12-06 12:40:19.829,85.95,604.0,0.77,0.63,-0.05,0.1,0.49,-0.42
2024-12-06 12:40:19.834,88.88,588.0,0.77,0.62,-0.05,0.1,0.43,-0.42
2024-12-06 12:40:19.846,87.07,596.0,0.77,0.62,-0.05,0.1,0.31,-0.48
2024-12-06 12:40:19.850,88.42,593.0,0.77,0.62,-0.05,0.1,0.19,-0.48
2024-12-06 12:40:19.860,82.12,600.0,0.77,0.62,-0.05,0.16,0.13,-0.48
2024-12-06 12:40:19.866,83.03,600.0,0.77,0.62,-0.05,0.28,0.13,-0.54
2024-12-06 12:40:19.873,86.4,604.0,0.77,0.62,-0.05,0.28,0.13,-0.54
2024-12-06 12:40:19.883,86.17,611.0,0.77,0.62,-0.05,0.4,0.25,-0.6
2024-12-06 12:40:19.890,82.8,591.0,0.78,0.62,-0.05,0.53,0.31,-0.54
2024-12-06 12:40:19.898,88.42,597.0,0.78,0.62,-0.05,0.77,0.37,-0.48
2024-12-06 12:40:19.907,85.72,604.0,0.78,0.62,-0.05,0.83,0.37,-0.36
2024-12-06 12:40:19.927,87.52,643.0,0.77,0.62,-0.06,0.77,0.37,-0.23
2024-12-06 12:40:19.944,87.75,601.0,0.77,0.62,-0.05,0.77,0.37,-0.05
2024-12-06 12:40:19.947,84.38,591.0,0.77,0.62,-0.05,0.77,0.37,0.32
2024-12-06 12:40:19.953,89.1,585.0,0.77,0.62,-0.05,0.65,0.43,0.44
2024-12-06 12:40:19.963,83.92,601.0,0.77,0.62,-0.05,0.65,0.43,0.44
2024-12-06 12:40:19.971,85.95,589.0,0.77,0.62,-0.05,0.65,0.37,0.56
2024-12-06 12:40:19.977,88.42,584.0,0.77,0.62,-0.05,0.59,0.31,0.56
2024-12-06 12:40:19.983,86.85,595.0,0.77,0.62,-0.05,0.53,0.31,0.44
2024-12-06 12:40:19.990,86.62,595.0,0.77,0.62,-0.05,0.47,0.25,0.32
2024-12-06 12:40:19.999,83.92,603.0,0.77,0.62,-0.05,0.4,0.25,0.19
2024-12-06 12:40:20.8,85.05,610.0,0.77,0.62,-0.05,0.4,0.25,0.19
2024-12-06 12:40:20.14,84.15,591.0,0.77,0.62,-0.05,0.53,0.31,0.07
2024-12-06 12:40:20.21,89.77,565.0,0.77,0.62,-0.05,0.59,0.25,0.01
2024-12-06 12:40:20.52,83.47,585.0,0.77,0.62,-0.05,0.53,0.13,-0.11
2024-12-06 12:40:20.63,83.03,578.0,0.77,0.62,-0.05,0.34,0.13,-0.17
2024-12-06 12:40:20.69,84.38,588.0,0.77,0.62,-0.05,0.4,0.0,-0.23
2024-12-06 12:40:20.76,82.8,603.0,0.77,0.62,-0.05,0.47,0.0,-0.29
2024-12-06 12:40:20.87,82.12,604.0,0.77,0.62,-0.05,0.59,0.07,-0.36
2024-12-06 12:40:20.101,88.65,581.0,0.77,0.62,-0.05,0.53,0.13,-0.42
2024-12-06 12:40:20.114,88.88,593.0,0.77,0.62,-0.05,0.47,0.07,-0.54
2024-12-06 12:40:20.116,86.17,592.0,0.77,0.62,-0.05,0.4,0.13,-0.6
2024-12-06 12:40:20.123,87.07,601.0,0.77,0.62,-0.05,0.28,0.19,-0.66
2024-12-06 12:40:20.135,84.6,588.0,0.77,0.62,-0.05,0.28,0.19,-0.72
2024-12-06 12:40:20.138,88.42,608.0,0.77,0.62,-0.04,0.28,0.19,-0.72
2024-12-06 12:40:20.149,83.03,616.0,0.77,0.62,-0.04,0.34,0.25,-0.72
2024-12-06 12:40:20.158,84.15,597.0,0.77,0.62,-0.05,0.4,0.31,-0.72
2024-12-06 12:40:20.164,90.22,609.0,0.77,0.62,-0.05,0.47,0.43,-0.84
2024-12-06 12:40:20.169,87.75,598.0,0.77,0.62,-0.05,0.4,0.49,-0.84
2024-12-06 12:40:20.183,86.4,607.0,0.77,0.62,-0.05,0.4,0.55,-0.91
2024-12-06 12:40:20.188,85.72,605.0,0.77,0.62,-0.05,0.4,0.55,-0.91
2024-12-06 12:40:20.193,87.07,612.0,0.77,0.62,-0.05,0.4,0.49,-0.84
2024-12-06 12:40:20.201,86.4,590.0,0.77,0.62,-0.05,0.4,0.37,-0.78
2024-12-06 12:40:20.209,83.25,587.0,0.77,0.62,-0.05,0.4,0.25,-0.84
2024-12-06 12:40:20.222,88.42,587.0,0.77,0.62,-0.05,0.34,0.19,-0.78
2024-12-06 12:40:20.224,84.6,600.0,0.77,0.62,-0.05,0.34,0.13,-0.84
2024-12-06 12:40:20.232,88.42,610.0,0.77,0.62,-0.05,0.4,0.13,-0.84
2024-12-06 12:40:20.243,85.5,613.0,0.77,0.62,-0.05,0.4,0.19,-0.84
2024-12-06 12:40:20.277,83.03,599.0,0.77,0.62,-0.05,0.4,0.37,-1.03
2024-12-06 12:40:20.282,83.7,603.0,0.77,0.62,-0.05,0.53,0.31,-1.09
2024-12-06 12:40:20.289,87.75,605.0,0.77,0.62,-0.05,0.59,0.25,-1.21
2024-12-06 12:40:20.295,88.42,592.0,0.78,0.62,-0.06,0.65,0.19,-1.21
2024-12-06 12:40:20.305,83.92,603.0,0.78,0.62,-0.05,0.65,0.13,-1.21
2024-12-06 12:40:20.313,87.07,595.0,0.78,0.62,-0.05,0.65,0.0,-1.21
2024-12-06 12:40:20.319,86.85,603.0,0.78,0.62,-0.05,0.65,0.0,-1.21
2024-12-06 12:40:20.329,83.7,590.0,0.78,0.62,-0.05,0.59,-0.06,-1.09
2024-12-06 12:40:20.335,84.6,609.0,0.78,0.61,-0.05,0.65,-0.18,-0.97
2024-12-06 12:40:20.341,83.03,596.0,0.78,0.61,-0.05,0.65,-0.18,-0.91
2024-12-06 12:40:20.350,86.17,615.0,0.78,0.61,-0.05,0.65,-0.3,-0.91
2024-12-06 12:40:20.359,86.17,592.0,0.77,0.61,-0.05,0.65,-0.24,-0.97
2024-12-06 12:40:20.370,85.72,594.0,0.77,0.62,-0.05,0.65,-0.24,-0.97
2024-12-06 12:40:21.474,84.15,584.0,0.77,0.62,-0.05,0.28,0.25,-0.42
2024-12-06 12:40:21.478,83.92,587.0,0.74,0.8,-0.05,-0.45,6.23,9.29
2024-12-06 12:40:21.494,78.97,542.0,0.73,0.71,-0.08,-5.27,9.89,13.19
2024-12-06 12:40:21.546,74.03,523.0,0.79,0.58,-0.08,-8.32,2.26,15.15
2024-12-06 12:40:21.555,72.9,529.0,0.81,0.51,-0.03,-5.58,1.9,10.51
2024-12-06 12:40:21.565,67.05,511.0,0.84,0.51,-0.02,-0.39,1.35,4.71
2024-12-06 12:40:21.593,73.35,502.0,0.84,0.53,-0.02,1.87,-0.79,0.56
2024-12-06 12:40:21.726,70.65,520.0,0.81,0.57,-0.04,1.5,-2.19,0.62
2024-12-06 12:40:21.733,68.62,484.0,0.81,0.56,-0.05,3.76,8.55,7.09
2024-12-06 12:40:21.742,65.03,494.0,0.83,0.56,-0.05,3.76,6.47,6.05
2024-12-06 12:40:21.758,63.9,492.0,0.84,0.58,-0.04,5.04,4.22,5.14
2024-12-06 12:40:21.787,63.22,493.0,0.8,0.56,-0.05,6.45,4.95,5.08
2024-12-06 12:40:21.813,61.88,474.0,0.81,0.57,-0.04,6.87,5.38,5.44
2024-12-06 12:40:21.841,61.2,496.0,0.77,0.55,-0.03,6.57,6.47,6.24
2024-12-06 12:40:21.871,60.07,492.0,0.79,0.54,-0.03,6.63,6.9,4.22
2024-12-06 12:40:21.903,56.47,490.0,0.83,0.57,-0.01,6.26,6.41,4.77
2024-12-06 12:40:21.924,57.15,476.0,0.81,0.56,-0.02,5.71,4.83,3.31
2024-12-06 12:40:21.952,56.02,491.0,0.8,0.55,-0.02,5.53,4.22,1.54
2024-12-06 12:40:21.986,53.32,485.0,0.8,0.56,-0.02,5.41,4.03,1.41
2024-12-06 12:40:22.8,55.12,500.0,0.79,0.55,-0.03,4.8,4.83,1.41
2024-12-06 12:40:22.35,50.4,490.0,0.79,0.54,-0.02,4.49,4.7,-1.27
2024-12-06 12:40:22.62,49.95,483.0,0.81,0.55,-0.01,4.13,5.44,-1.15
2024-12-06 12:40:22.102,51.07,498.0,0.8,0.55,-0.02,4.37,6.6,-2.68
2024-12-06 12:40:22.117,50.17,483.0,0.83,0.57,-0.01,4.31,6.17,-3.1
2024-12-06 12:40:22.152,49.27,468.0,0.81,0.56,-0.03,4.01,5.62,-2.49
2024-12-06 12:40:22.172,44.1,494.0,0.83,0.57,-0.03,4.01,4.89,-3.53
2024-12-06 12:40:22.202,43.88,476.0,0.82,0.59,-0.04,4.68,5.07,-1.45
2024-12-06 12:40:22.234,47.47,469.0,0.81,0.58,-0.03,4.55,3.97,-1.27
2024-12-06 12:40:22.257,41.4,482.0,0.81,0.58,-0.03,3.82,2.69,-1.7
2024-12-06 12:40:22.305,44.55,481.0,0.82,0.57,-0.0,2.85,3.61,0.01
2024-12-06 12:40:22.311,41.62,485.0,0.83,0.57,-0.01,2.78,3.91,2.15
2024-12-06 12:40:22.340,42.97,472.0,0.83,0.57,-0.01,2.3,3.24,3.25
2024-12-06 12:40:22.366,41.62,497.0,0.83,0.57,-0.01,1.99,2.2,3.43
2024-12-06 12:40:22.396,36.9,486.0,0.81,0.56,-0.0,1.81,1.47,2.09
2024-12-06 12:40:22.423,40.5,488.0,0.81,0.55,-0.0,2.05,2.39,2.33
2024-12-06 12:40:22.449,36.45,510.0,0.81,0.54,-0.01,2.24,3.24,1.96
2024-12-06 12:40:22.479,34.88,480.0,0.83,0.56,-0.01,1.87,3.06,2.27
2024-12-06 12:40:22.504,34.88,477.0,0.83,0.56,-0.01,1.5,3.36,3.67
2024-12-06 12:40:22.566,35.77,493.0,0.82,0.55,-0.01,1.81,2.75,1.84
2024-12-06 12:40:22.575,22.5,494.0,0.84,0.56,-0.01,2.11,2.87,2.76
2024-12-06 12:40:22.592,31.27,479.0,0.81,0.54,-0.0,2.11,1.77,2.82
2024-12-06 12:40:22.617,31.95,485.0,0.84,0.55,0.0,1.81,1.84,1.35
2024-12-06 12:40:22.645,31.05,481.0,0.84,0.55,0.0,1.14,1.71,2.7
2024-12-06 12:40:22.673,29.47,495.0,0.81,0.53,-0.01,0.28,2.02,0.8
2024-12-06 12:40:22.771,22.95,514.0,0.84,0.54,-0.01,-0.02,1.9,2.27
2024-12-06 12:40:22.776,22.95,485.0,0.83,0.54,0.01,-0.51,0.62,1.48
2024-12-06 12:40:22.786,22.72,500.0,0.85,0.54,0.01,-0.82,0.55,2.45
2024-12-06 12:40:22.808,24.97,523.0,0.84,0.53,-0.0,-1.37,-0.18,3.06
2024-12-06 12:40:22.835,18.0,486.0,0.83,0.52,-0.02,-1.43,-1.46,1.78
2024-12-06 12:40:22.862,22.5,475.0,0.82,0.53,-0.03,0.34,0.0,1.23
2024-12-06 12:40:22.890,21.15,478.0,0.82,0.54,-0.01,1.93,0.92,0.44
2024-12-06 12:40:22.919,17.1,508.0,0.83,0.54,-0.02,2.05,0.98,0.44
2024-12-06 12:40:22.945,16.65,499.0,0.84,0.54,-0.03,1.44,0.92,1.54
2024-12-06 12:40:22.997,18.67,475.0,0.86,0.55,-0.0,0.47,-0.54,1.29
2024-12-06 12:40:23.3,19.57,517.0,0.88,0.55,0.0,0.1,0.07,4.28
2024-12-06 12:40:23.28,11.02,472.0,0.85,0.52,0.0,0.22,-0.48,5.14
2024-12-06 12:40:23.56,17.1,495.0,0.86,0.51,0.0,-0.57,-0.73,5.26
2024-12-06 12:40:23.83,12.6,489.0,0.86,0.52,0.0,-0.57,-0.61,7.09
2024-12-06 12:40:23.111,12.38,483.0,0.84,0.51,-0.01,-0.51,-0.48,6.66
2024-12-06 12:40:23.142,9.9,484.0,0.87,0.51,-0.0,-0.82,-0.24,6.97
2024-12-06 12:40:23.167,8.1,478.0,0.85,0.51,-0.0,-0.76,-0.42,8.01
2024-12-06 12:40:23.234,10.35,475.0,0.86,0.5,0.01,-1.0,-1.7,6.72
2024-12-06 12:40:23.237,10.57,477.0,0.84,0.5,0.0,-0.94,-2.38,7.03
2024-12-06 12:40:23.249,8.32,491.0,0.84,0.5,0.01,-1.0,-1.4,5.75
2024-12-06 12:40:23.276,5.17,480.0,0.87,0.51,-0.01,-0.69,-0.18,6.6
2024-12-06 12:40:23.304,5.62,488.0,0.86,0.49,-0.01,-0.63,-0.54,8.25
2024-12-06 12:40:23.335,3.82,473.0,0.84,0.48,-0.01,-0.63,-1.83,5.2
2024-12-06 12:40:23.361,-1.12,482.0,0.86,0.48,-0.0,-0.27,-1.22,4.77
2024-12-06 12:40:23.388,-1.8,506.0,0.88,0.49,0.0,-0.33,-1.46,6.48
2024-12-06 12:40:24.749,1.8,481.0,0.87,0.46,-0.01,0.22,0.31,-0.6
2024-12-06 12:40:24.760,4.5,494.0,0.87,0.48,-0.0,0.16,0.86,-0.72
2024-12-06 12:40:24.771,0.0,500.0,0.87,0.47,-0.0,0.1,0.92,-0.72
2024-12-06 12:40:24.882,0.22,490.0,0.87,0.47,-0.01,-0.02,0.13,-0.78
2024-12-06 12:40:24.914,1.8,479.0,0.86,0.47,-0.0,0.1,-0.18,-0.72
2024-12-06 12:40:24.918,4.05,481.0,0.85,0.47,-0.01,0.16,-0.54,-1.39
2024-12-06 12:40:24.920,3.6,487.0,0.86,0.47,-0.01,0.1,0.62,-2.0
2024-12-06 12:40:24.929,0.45,489.0,0.89,0.48,0.01,-0.02,0.8,-1.52
2024-12-06 12:40:24.939,-1.57,480.0,0.89,0.48,0.01,-0.02,0.25,-0.54
2024-12-06 12:40:24.945,-0.67,479.0,0.89,0.48,0.01,-0.02,0.25,15.09
2024-12-06 12:40:24.952,1.35,483.0,0.88,0.48,-0.0,-0.02,0.31,-0.05
2024-12-06 12:40:24.959,2.47,472.0,0.87,0.47,-0.0,-0.08,0.55,-0.23
2024-12-06 12:40:24.966,-3.6,491.0,0.87,0.47,0.0,-0.21,0.43,-0.6
2024-12-06 12:40:24.978,1.12,477.0,0.88,0.47,0.0,-0.33,0.49,-0.66
2024-12-06 12:40:24.982,-2.02,475.0,0.88,0.47,0.0,-0.27,0.07,-0.6
2024-12-06 12:40:24.989,-2.47,492.0,0.88,0.47,-0.0,-0.27,0.07,-0.6
2024-12-06 12:40:25.9,2.47,492.0,0.88,0.47,-0.0,-0.27,-0.24,-0.6
2024-12-06 12:40:25.12,3.82,484.0,0.88,0.47,-0.0,-0.15,-0.24,-0.66
2024-12-06 12:40:25.16,2.25,495.0,0.87,0.47,-0.0,0.04,-0.18,-0.72
2024-12-06 12:40:25.24,3.82,484.0,0.87,0.47,-0.0,0.1,-0.18,-0.66
2024-12-06 12:40:25.28,-1.12,491.0,0.87,0.47,-0.0,0.1,-0.18,-0.66
2024-12-06 12:40:25.36,4.05,503.0,0.87,0.47,-0.01,0.16,-0.12,-0.6
2024-12-06 12:40:25.48,-0.45,500.0,0.87,0.47,-0.01,0.16,0.0,-0.48
2024-12-06 12:40:25.51,-0.9,474.0,0.87,0.47,-0.0,0.16,0.0,-0.48
2024-12-06 12:40:25.68,3.6,499.0,0.87,0.47,-0.01,0.22,0.13,-0.6
2024-12-06 12:40:25.73,4.28,512.0,0.87,0.47,-0.01,0.22,0.13,-0.66
2024-12-06 12:40:25.87,3.15,499.0,0.87,0.47,-0.0,0.22,0.13,-0.66
2024-12-06 12:40:25.99,1.12,502.0,0.87,0.47,-0.0,0.47,0.31,-0.84
2024-12-06 12:40:25.101,-0.67,475.0,0.87,0.47,-0.0,0.47,0.31,-0.84
2024-12-06 12:40:25.106,1.35,488.0,0.87,0.47,-0.0,0.47,0.19,-0.72
2024-12-06 12:40:25.137,2.02,478.0,0.87,0.47,-0.01,0.53,0.37,-0.84
2024-12-06 12:40:25.144,5.4,487.0,0.87,0.47,-0.01,0.47,0.37,-0.78
2024-12-06 12:40:25.154,-1.35,484.0,0.88,0.47,-0.01,0.47,0.37,-0.78
2024-12-06 12:40:25.158,1.8,493.0,0.88,0.47,-0.01,0.53,0.25,-0.78
2024-12-06 12:40:25.169,2.02,481.0,0.88,0.47,-0.01,0.65,0.07,-0.78
2024-12-06 12:40:25.185,2.02,483.0,0.88,0.47,-0.01,0.77,-0.18,-0.91
2024-12-06 12:40:25.192,3.82,517.0,0.88,0.47,-0.01,0.83,-0.24,-0.97
2024-12-06 12:40:25.205,1.8,485.0,0.87,0.47,-0.01,0.83,-0.24,-0.97
2024-12-06 12:40:25.222,2.25,472.0,0.87,0.47,-0.01,0.77,-0.3,-1.09
2024-12-06 12:40:25.236,1.35,482.0,0.87,0.47,-0.0,0.77,-0.12,-0.97
2024-12-06 12:40:25.238,-2.92,483.0,0.87,0.47,-0.0,0.77,-0.12,-0.97
2024-12-06 12:40:25.245,2.02,485.0,0.87,0.47,-0.01,0.71,0.0,-0.91
2024-12-06 12:40:25.255,0.9,487.0,0.87,0.47,-0.01,0.71,0.0,-0.84
2024-12-06 12:40:25.264,3.38,479.0,0.87,0.47,-0.0,0.65,0.0,-0.91
2024-12-06 12:40:25.266,-1.8,482.0,0.87,0.47,-0.0,0.53,0.07,-0.84
2024-12-06 12:40:25.285,0.67,474.0,0.87,0.47,-0.01,0.53,0.13,-0.84
2024-12-06 12:40:25.288,4.05,480.0,0.87,0.47,-0.01,0.53,0.13,-0.84
2024-12-06 12:40:25.303,-1.35,477.0,0.87,0.47,-0.01,0.59,0.13,-0.97
2024-12-06 12:40:25.314,3.15,506.0,0.87,0.47,-0.01,0.59,0.0,-1.03
2024-12-06 12:40:25.322,-0.22,475.0,0.87,0.47,-0.0,0.59,0.0,-1.03
2024-12-06 12:40:25.330,2.7,482.0,0.87,0.47,-0.0,0.53,-0.06,-1.09
2024-12-06 12:40:25.342,1.35,472.0,0.87,0.47,-0.0,0.34,-0.06,-1.03
2024-12-06 12:40:25.355,-3.15,475.0,0.87,0.47,-0.0,0.34,0.0,-1.03
2024-12-06 12:40:25.361,1.8,493.0,0.87,0.47,-0.0,0.34,0.13,-1.03
2024-12-06 12:40:25.367,-2.02,472.0,0.87,0.47,-0.0,0.34,0.13,-1.03
2024-12-06 12:40:25.399,1.35,472.0,0.87,0.47,-0.0,0.4,0.25,-0.97
2024-12-06 12:40:25.403,0.45,483.0,0.87,0.47,-0.0,0.4,0.43,-0.91
2024-12-06 12:40:25.408,-0.45,476.0,0.87,0.47,-0.0,0.4,0.43,-0.91
2024-12-06 12:40:25.417,-4.05,478.0,0.87,0.47,-0.01,0.4,0.43,-0.91
2024-12-06 12:40:25.420,-0.67,469.0,0.87,0.47,-0.0,0.28,0.31,-0.97
2024-12-06 12:40:25.428,-1.35,486.0,0.87,0.47,-0.01,0.28,0.13,-0.91
2024-12-06 12:40:25.436,-0.45,484.0,0.87,0.47,-0.01,0.28,0.0,-0.91
2024-12-06 12:40:25.443,2.92,488.0,0.87,0.47,-0.0,0.28,0.0,-0.97
2024-12-06 12:40:25.451,3.38,483.0,0.87,0.47,-0.0,0.34,0.07,-0.97
2024-12-06 12:40:25.459,-1.57,481.0,0.87,0.47,-0.0,0.4,0.13,-1.03
2024-12-06 12:40:25.466,-0.45,485.0,0.87,0.47,-0.0,0.53,0.25,-1.09
2024-12-06 12:40:25.479,4.5,493.0,0.87,0.47,0.0,0.53,0.37,-1.09
2024-12-06 12:40:25.486,-1.12,471.0,0.87,0.47,0.0,0.59,0.43,-1.09
2024-12-06 12:40:25.494,-2.47,478.0,0.88,0.47,0.0,0.59,0.49,-0.97
2024-12-06 12:40:25.499,2.47,492.0,0.88,0.47,-0.0,0.59,0.49,-0.97
2024-12-06 12:40:25.506,4.95,474.0,0.88,0.47,-0.0,0.53,0.43,-0.91
2024-12-06 12:40:25.513,2.02,484.0,0.88,0.47,-0.01,0.53,0.31,-0.84
2024-12-06 12:40:25.521,-1.57,474.0,0.88,0.47,-0.01,0.53,0.13,-0.78
2024-12-06 12:40:25.534,3.15,483.0,0.88,0.47,-0.01,0.53,-0.06,-0.84
2024-12-06 12:40:25.541,1.57,481.0,0.88,0.47,-0.01,0.53,-0.06,-0.84
2024-12-06 12:40:25.548,1.12,485.0,0.88,0.47,-0.01,0.53,-0.3,-0.97
2024-12-06 12:40:25.558,2.7,474.0,0.88,0.47,-0.01,0.47,-0.24,-1.15
2024-12-06 12:40:25.563,0.67,506.0,0.88,0.47,-0.0,0.53,-0.61,-1.33
2024-12-06 12:40:25.575,3.38,504.0,0.88,0.47,-0.0,0.53,-0.73,-1.45
2024-12-06 12:40:25.601,3.15,494.0,0.87,0.47,-0.01,0.47,-0.73,-1.45
2024-12-06 12:40:25.605,3.38,479.0,0.87,0.47,-0.01,0.4,-0.67,-1.33
2024-12-06 12:40:25.615,0.9,474.0,0.87,0.47,-0.01,0.4,-0.67,-1.21
2024-12-06 12:40:25.622,1.8,491.0,0.87,0.47,-0.01,0.4,-0.48,-1.21
2024-12-06 12:40:25.630,0.45,492.0,0.87,0.47,-0.01,0.4,-0.36,-1.21
2024-12-06 12:40:25.635,-0.67,491.0,0.87,0.47,-0.01,0.4,-0.3,-1.21
2024-12-06 12:40:25.650,-0.9,476.0,0.87,0.47,-0.01,0.47,-0.18,-1.27
2024-12-06 12:40:25.658,3.38,474.0,0.87,0.47,-0.01,0.4,-0.3,-1.21
2024-12-06 12:40:25.670,-0.22,494.0,0.87,0.47,-0.01,0.4,-0.3,-1.21
2024-12-06 12:40:25.672,0.22,500.0,0.87,0.47,-0.0,0.4,-0.3,-1.27
2024-12-06 12:40:25.675,2.7,477.0,0.87,0.47,-0.01,0.4,-0.3,-1.39
2024-12-06 12:40:25.693,1.8,481.0,0.87,0.47,-0.01,0.4,-0.36,-1.45
2024-12-06 12:40:25.697,2.25,483.0,0.87,0.47,-0.0,0.4,-0.42,-1.39
2024-12-06 12:40:25.706,-0.22,476.0,0.87,0.47,-0.0,0.4,-0.48,-1.39
2024-12-06 12:40:25.726,4.05,479.0,0.87,0.47,-0.0,0.4,-0.54,-1.33
2024-12-06 12:40:25.732,-1.12,483.0,0.87,0.47,-0.01,0.4,-0.42,-1.27
2024-12-06 12:40:25.737,1.8,473.0,0.87,0.47,-0.01,0.4,-0.42,-1.27
2024-12-06 12:40:25.747,2.25,478.0,0.87,0.47,-0.01,0.4,-0.24,-1.33
2024-12-06 12:40:25.756,-2.7,482.0,0.87,0.47,-0.0,0.47,-0.06,-1.21
2024-12-06 12:40:25.762,0.9,477.0,0.87,0.47,-0.01,0.47,0.07,-1.09
2024-12-06 12:40:25.771,3.6,506.0,0.87,0.47,-0.01,0.53,0.13,-1.03
2024-12-06 12:40:25.779,2.02,483.0,0.87,0.47,-0.01,0.53,0.13,-1.03
2024-12-06 12:40:25.786,1.12,479.0,0.87,0.47,-0.01,0.53,0.13,-1.03
2024-12-06 12:40:25.822,2.7,476.0,0.87,0.47,-0.01,0.47,-0.06,-1.03
2024-12-06 12:40:25.919,1.8,492.0,0.88,0.47,-0.01,0.65,-0.54,-1.27
2024-12-06 12:40:25.928,-1.12,492.0,0.87,0.47,-0.01,0.65,-0.54,-1.27
2024-12-06 12:40:25.938,1.35,479.0,0.87,0.48,-0.01,0.65,-0.73,-1.39
2024-12-06 12:40:25.947,1.35,474.0,0.87,0.48,-0.01,0.59,-0.79,-1.45
2024-12-06 12:40:25.951,-0.45,482.0,0.87,0.48,-0.01,0.59,-0.79,-1.45
2024-12-06 12:40:25.954,1.8,474.0,0.87,0.48,-0.01,0.59,-0.73,-1.39
2024-12-06 12:40:25.963,1.12,481.0,0.87,0.48,-0.01,0.59,-0.67,-1.27
2024-12-06 12:40:25.972,-2.25,496.0,0.87,0.47,-0.01,0.59,-0.67,-1.27
2024-12-06 12:40:25.981,2.47,481.0,0.87,0.47,-0.01,0.59,-0.54,-1.21
2024-12-06 12:40:25.989,1.57,475.0,0.87,0.47,-0.01,0.59,-0.36,-1.09
2024-12-06 12:40:25.997,1.8,482.0,0.86,0.47,-0.01,0.53,-0.24,-1.03
2024-12-06 12:40:26.9,3.6,507.0,0.86,0.47,-0.01,0.47,-0.06,-1.03
2024-12-06 12:40:26.18,2.02,493.0,0.86,0.48,-0.01,0.47,-0.06,-1.03
2024-12-06 12:40:26.47,-1.35,498.0,0.87,0.47,-0.01,0.28,-0.06,-1.03
2024-12-06 12:40:26.54,2.7,479.0,0.87,0.47,-0.01,0.22,-0.12,-1.03
2024-12-06 12:40:26.62,2.47,502.0,0.87,0.47,-0.01,0.16,-0.18,-0.97
2024-12-06 12:40:26.70,-0.9,488.0,0.87,0.47,-0.01,0.1,-0.24,-0.97
2024-12-06 12:40:26.77,-0.9,518.0,0.87,0.47,-0.01,0.16,-0.12,-0.91
2024-12-06 12:40:26.85,-1.57,477.0,0.87,0.47,-0.01,0.16,0.0,-0.84
2024-12-06 12:40:26.93,4.72,478.0,0.87,0.48,-0.01,0.16,0.0,-0.84
2024-12-06 12:40:26.102,1.35,483.0,0.87,0.48,-0.01,0.16,0.13,-0.72
2024-12-06 12:40:26.109,0.22,499.0,0.87,0.48,-0.01,0.22,0.31,-0.66
2024-12-06 12:40:26.119,2.7,476.0,0.87,0.48,-0.01,0.28,0.49,-0.66
2024-12-06 12:40:26.125,1.8,475.0,0.87,0.48,-0.01,0.28,0.55,-0.6
2024-12-06 12:40:26.133,1.35,484.0,0.87,0.48,-0.01,0.28,0.55,-0.48
2024-12-06 12:40:26.142,1.12,485.0,0.87,0.47,-0.01,0.28,0.55,-0.48
2024-12-06 12:40:26.153,1.12,481.0,0.87,0.47,-0.01,0.28,0.49,-0.54
2024-12-06 12:40:26.156,1.8,492.0,0.87,0.47,-0.01,0.28,0.25,-0.6
2024-12-06 12:40:26.165,3.38,474.0,0.87,0.47,-0.01,0.22,0.07,-0.72
2024-12-06 12:40:26.172,1.35,496.0,0.87,0.47,-0.01,0.16,0.0,-0.84
2024-12-06 12:40:26.188,3.38,502.0,0.87,0.47,-0.01,0.1,-0.12,-0.91
2024-12-06 12:40:26.191,2.47,489.0,0.87,0.47,-0.0,0.1,-0.12,-0.91
2024-12-06 12:40:26.200,1.35,479.0,0.87,0.47,-0.0,0.1,-0.06,-0.97
2024-12-06 12:40:26.203,2.25,482.0,0.87,0.48,-0.0,0.1,0.13,-0.97
2024-12-06 12:40:26.217,4.5,491.0,0.87,0.48,-0.0,0.1,0.31,-0.91
2024-12-06 12:40:26.219,2.7,479.0,0.87,0.48,-0.0,0.22,0.43,-0.78
2024-12-06 12:40:26.230,1.57,494.0,0.87,0.48,-0.01,0.22,0.55,-0.78
2024-12-06 12:40:26.239,1.8,480.0,0.87,0.47,-0.01,0.34,0.55,-0.78
2024-12-06 12:40:26.267,-0.9,487.0,0.88,0.47,-0.01,0.4,0.55,-0.78
2024-12-06 12:40:26.269,2.25,478.0,0.88,0.47,-0.01,0.22,-0.18,-0.72
2024-12-06 12:40:26.276,1.8,490.0,0.88,0.47,-0.01,0.22,-0.18,-0.72
2024-12-06 12:40:26.283,-3.6,487.0,0.87,0.47,-0.01,0.16,-0.36,-0.78
2024-12-06 12:40:26.288,-3.15,489.0,0.87,0.47,-0.01,0.1,-0.42,-0.84
2024-12-06 12:40:26.295,1.8,485.0,0.87,0.48,-0.01,0.1,-0.48,-0.91
2024-12-06 12:40:26.307,-1.57,481.0,0.87,0.48,-0.01,0.1,-0.42,-0.91
2024-12-06 12:40:26.318,-3.38,474.0,0.87,0.48,-0.01,0.1,-0.42,-0.91
2024-12-06 12:40:26.323,4.5,488.0,0.87,0.48,-0.01,0.22,-0.24,-0.91
2024-12-06 12:40:26.325,0.9,476.0,0.87,0.48,-0.01,0.28,-0.06,-0.91
2024-12-06 12:40:26.341,3.82,480.0,0.87,0.47,-0.01,0.34,0.25,-0.84
2024-12-06 12:40:26.343,2.47,483.0,0.87,0.47,-0.01,0.34,0.37,-0.84
2024-12-06 12:40:26.350,2.47,489.0,0.87,0.47,-0.01,0.34,0.37,-0.78
2024-12-06 12:40:26.360,2.92,488.0,0.87,0.47,-0.01,0.34,0.37,-0.78
2024-12-06 12:40:26.370,4.05,474.0,0.87,0.47,-0.01,0.22,0.37,-0.78
2024-12-06 12:40:26.377,3.6,490.0,0.87,0.47,-0.01,0.16,0.19,-0.78
2024-12-06 12:40:26.383,2.47,477.0,0.87,0.48,-0.01,0.1,0.07,-0.72
2024-12-06 12:40:26.392,3.6,478.0,0.87,0.48,-0.01,0.04,-0.06,-0.72
2024-12-06 12:40:26.396,3.82,491.0,0.88,0.48,-0.01,0.04,-0.06,-0.72
2024-12-06 12:40:26.403,0.45,481.0,0.87,0.47,-0.01,0.16,-0.18,-0.78
2024-12-06 12:40:26.420,0.9,489.0,0.87,0.47,-0.01,0.22,-0.3,-0.91
2024-12-06 12:40:26.423,1.8,477.0,0.87,0.47,-0.01,0.34,-0.3,-1.03
2024-12-06 12:40:26.428,2.02,488.0,0.87,0.47,-0.01,0.4,-0.3,-1.09
2024-12-06 12:40:26.441,3.38,478.0,0.87,0.47,-0.01,0.4,-0.18,-1.03
2024-12-06 12:40:26.447,1.12,488.0,0.87,0.48,-0.01,0.4,-0.18,-1.03
2024-12-06 12:40:26.449,1.8,486.0,0.87,0.48,-0.01,0.47,-0.06,-0.97
2024-12-06 12:40:26.460,-0.45,482.0,0.87,0.48,-0.01,0.4,0.13,-0.84
2024-12-06 12:40:26.466,-1.8,486.0,0.87,0.47,-0.01,0.28,0.25,-0.72
2024-12-06 12:40:26.513,1.35,474.0,0.87,0.47,-0.01,0.22,0.25,-0.66
2024-12-06 12:40:26.518,0.67,483.0,0.87,0.47,-0.01,0.22,0.25,-0.66
2024-12-06 12:40:26.527,4.72,479.0,0.87,0.47,-0.01,0.22,0.07,-0.84
2024-12-06 12:40:26.537,0.0,484.0,0.87,0.47,-0.01,0.22,-0.12,-0.97
2024-12-06 12:40:26.543,1.12,495.0,0.87,0.47,-0.01,0.34,-0.24,-1.03
2024-12-06 12:40:26.555,2.7,482.0,0.87,0.47,-0.01,0.4,-0.3,-1.09
2024-12-06 12:40:26.557,-1.8,472.0,0.87,0.47,-0.01,0.4,-0.12,-1.15
2024-12-06 12:40:26.564,1.57,489.0,0.87,0.47,-0.01,0.4,-0.12,-1.15
2024-12-06 12:40:26.574,-2.92,471.0,0.87,0.48,-0.01,0.4,0.07,-1.09
2024-12-06 12:40:26.580,2.7,470.0,0.87,0.48,-0.01,0.4,0.25,-0.97
2024-12-06 12:40:26.588,-0.45,487.0,0.87,0.48,-0.01,0.47,0.49,-0.84
2024-12-06 12:40:26.599,2.7,486.0,0.87,0.48,-0.01,0.47,0.68,-0.78
2024-12-06 12:40:26.608,0.0,484.0,0.87,0.48,-0.01,0.47,0.68,-0.78
2024-12-06 12:40:26.614,-0.22,476.0,0.88,0.47,-0.01,0.4,0.68,-0.72
2024-12-06 12:40:26.621,-0.67,495.0,0.88,0.47,-0.01,0.28,0.49,-0.66
2024-12-06 12:40:26.629,1.8,489.0,0.88,0.47,-0.01,0.28,0.25,-0.72
2024-12-06 12:40:26.636,1.57,496.0,0.88,0.47,-0.01,0.22,-0.06,-0.78
2024-12-06 12:40:26.643,-1.57,482.0,0.88,0.47,-0.01,0.22,-0.36,-0.84
2024-12-06 12:40:26.650,0.9,492.0,0.88,0.47,-0.01,0.22,-0.36,-0.84
2024-12-06 12:40:26.664,2.02,491.0,0.87,0.47,-0.01,0.28,-0.61,-0.97
2024-12-06 12:40:26.666,2.02,481.0,0.87,0.48,-0.01,0.34,-0.61,-1.09
2024-12-06 12:40:26.672,3.15,482.0,0.87,0.48,-0.01,0.34,-0.67,-1.21
2024-12-06 12:40:26.681,2.25,478.0,0.86,0.48,-0.01,0.47,-0.48,-1.21
2024-12-06 12:40:26.722,0.9,491.0,0.86,0.48,-0.01,0.47,-0.48,-1.21
2024-12-06 12:40:26.727,-1.35,492.0,0.87,0.47,-0.01,0.34,0.49,-0.6
2024-12-06 12:40:26.738,4.5,495.0,0.87,0.47,-0.01,0.34,0.49,-0.6
2024-12-06 12:40:26.741,0.9,497.0,0.87,0.47,-0.01,0.22,0.49,-0.54
2024-12-06 12:40:26.752,-2.25,486.0,0.87,0.47,-0.01,0.16,0.49,-0.48
2024-12-06 12:40:26.756,0.45,493.0,0.87,0.47,-0.01,0.1,0.37,-0.54
2024-12-06 12:40:26.763,2.02,491.0,0.87,0.47,-0.01,0.1,0.19,-0.66
2024-12-06 12:40:26.767,-2.7,491.0,0.87,0.47,-0.01,0.1,0.19,-0.66
2024-12-06 12:40:26.772,2.92,480.0,0.87,0.47,-0.01,0.16,0.07,-0.91
2024-12-06 12:40:26.781,-4.28,484.0,0.87,0.47,-0.01,0.28,-0.06,-1.09
2024-12-06 12:40:26.787,-0.22,482.0,0.87,0.47,-0.01,0.34,-0.18,-1.15
2024-12-06 12:40:26.800,-1.35,514.0,0.87,0.47,-0.01,0.4,-0.24,-1.21
2024-12-06 12:40:26.802,1.8,493.0,0.87,0.48,-0.01,0.4,-0.12,-1.09
2024-12-06 12:40:26.815,0.9,481.0,0.87,0.48,-0.01,0.4,-0.12,-1.09
2024-12-06 12:40:26.820,4.5,483.0,0.87,0.48,-0.01,0.34,-0.06,-0.91
2024-12-06 12:40:26.827,1.57,476.0,0.87,0.48,-0.01,0.34,0.07,-0.78
2024-12-06 12:40:26.835,2.47,488.0,0.87,0.47,-0.01,0.28,0.19,-0.66
2024-12-06 12:40:26.841,-3.82,477.0,0.87,0.47,-0.01,0.34,0.31,-0.54
2024-12-06 12:40:26.860,-3.38,482.0,0.87,0.47,-0.01,0.4,0.37,-0.48
2024-12-06 12:40:26.868,1.57,489.0,0.87,0.47,-0.01,0.4,0.37,-0.48
2024-12-06 12:40:26.872,3.15,497.0,0.87,0.47,-0.01,0.4,0.43,-0.54
2024-12-06 12:40:26.875,0.0,484.0,0.87,0.47,-0.01,0.4,0.49,-0.6
2024-12-06 12:40:27.3,4.5,492.0,0.88,0.47,-0.01,0.4,0.13,-0.72
2024-12-06 12:40:27.12,2.47,495.0,0.87,0.47,-0.01,0.47,-0.12,-0.72
2024-12-06 12:40:27.18,-0.22,492.0,0.87,0.47,-0.01,0.47,-0.36,-0.72
2024-12-06 12:40:27.25,-0.22,488.0,0.87,0.47,-0.01,0.47,-0.48,-0.78
2024-12-06 12:40:27.35,-2.02,488.0,0.87,0.47,-0.01,0.47,-0.61,-0.84
2024-12-06 12:40:27.44,1.8,486.0,0.87,0.48,-0.01,0.47,-0.48,-0.97
2024-12-06 12:40:27.47,2.25,479.0,0.86,0.48,-0.01,0.47,-0.48,-0.97
2024-12-06 12:40:27.58,1.57,481.0,0.86,0.48,-0.01,0.47,-0.36,-1.03
2024-12-06 12:40:27.71,-0.9,474.0,0.86,0.48,-0.01,0.4,-0.06,-1.09
2024-12-06 12:40:27.74,-0.9,488.0,0.87,0.47,-0.01,0.4,0.25,-0.97
2024-12-06 12:40:27.78,-0.9,483.0,0.87,0.47,-0.01,0.47,0.43,-0.84
2024-12-06 12:40:27.88,1.8,495.0,0.87,0.47,-0.01,0.47,0.55,-0.6
2024-12-06 12:40:27.93,4.05,483.0,0.87,0.47,-0.01,0.4,0.55,-0.6
2024-12-06 12:40:27.116,0.22,505.0,0.87,0.47,-0.01,0.4,0.49,-0.48
2024-12-06 12:40:27.126,1.35,480.0,0.87,0.47,-0.01,0.22,0.25,-0.54
2024-12-06 12:40:27.129,1.35,472.0,0.87,0.47,-0.01,0.16,0.07,-0.66
2024-12-06 12:40:27.134,3.15,531.0,0.87,0.48,-0.01,0.16,0.07,-0.66
2024-12-06 12:40:27.171,2.47,469.0,0.87,0.48,-0.01,0.22,-0.12,-0.78
2024-12-06 12:40:27.174,3.15,483.0,0.87,0.48,-0.01,0.34,-0.24,-0.97
2024-12-06 12:40:27.187,-0.9,482.0,0.87,0.48,-0.01,0.34,-0.18,-0.97
2024-12-06 12:40:27.192,2.7,467.0,0.87,0.48,-0.01,0.34,-0.06,-0.84
2024-12-06 12:40:27.197,4.28,491.0,0.87,0.47,-0.01,0.28,0.13,-0.72
2024-12-06 12:40:27.202,2.92,501.0,0.87,0.47,-0.01,0.22,0.13,-0.66
2024-12-06 12:40:27.207,1.35,485.0,0.87,0.47,-0.01,0.22,0.13,-0.66
2024-12-06 12:40:27.217,-0.45,517.0,0.87,0.47,-0.01,0.22,0.25,-0.66
2024-12-06 12:40:27.225,2.92,491.0,0.87,0.47,-0.01,0.16,0.31,-0.72
2024-12-06 12:40:27.242,4.95,478.0,0.87,0.47,-0.01,0.16,0.31,-0.66
2024-12-06 12:40:27.246,2.47,490.0,0.87,0.47,-0.01,0.1,0.37,-0.66
2024-12-06 12:40:27.249,1.8,476.0,0.87,0.47,-0.01,0.1,0.37,-0.66
2024-12-06 12:40:27.254,1.35,488.0,0.87,0.47,-0.01,0.1,0.37,-0.66
2024-12-06 12:40:27.261,-0.45,484.0,0.87,0.47,-0.01,0.04,0.25,-0.66
2024-12-06 12:40:27.270,0.22,524.0,0.87,0.47,-0.01,-0.02,0.07,-0.66
2024-12-06 12:40:27.277,-1.57,482.0,0.87,0.47,-0.01,-0.02,-0.06,-0.78
2024-12-06 12:40:27.292,1.35,492.0,0.87,0.47,-0.01,0.04,-0.18,-0.91
2024-12-06 12:40:27.295,1.35,479.0,0.87,0.47,-0.01,0.04,-0.18,-1.03
2024-12-06 12:40:27.303,-0.22,491.0,0.87,0.47,-0.01,0.1,-0.24,-1.03
2024-12-06 12:40:27.309,2.92,500.0,0.87,0.48,-0.01,0.16,-0.12,-1.09
2024-12-06 12:40:27.316,1.57,517.0,0.87,0.48,-0.01,0.28,0.07,-1.09
2024-12-06 12:40:27.325,4.28,481.0,0.87,0.48,-0.01,0.34,0.19,-1.03
2024-12-06 12:40:27.334,2.02,481.0,0.87,0.48,-0.01,0.34,0.37,-0.97
2024-12-06 12:40:27.340,-1.12,484.0,0.87,0.48,-0.01,0.34,0.37,-0.97
2024-12-06 12:40:27.347,-1.57,486.0,0.88,0.47,-0.01,0.34,0.37,-0.78
2024-12-06 12:40:27.355,4.5,476.0,0.88,0.47,-0.01,0.28,0.25,-0.72
2024-12-06 12:40:27.363,1.35,479.0,0.87,0.47,-0.01,0.16,0.07,-0.66
2024-12-06 12:40:27.402,2.47,480.0,0.87,0.47,-0.01,0.16,-0.18,-0.72
2024-12-06 12:40:27.406,2.7,473.0,0.86,0.47,-0.01,0.28,-0.54,-1.15
2024-12-06 12:40:27.411,1.12,480.0,0.86,0.47,-0.01,0.28,-0.3,-1.39
2024-12-06 12:40:27.417,2.7,473.0,0.86,0.48,-0.01,0.34,-0.12,-1.45
2024-12-06 12:40:27.426,2.92,483.0,0.86,0.48,-0.01,0.34,-0.12,-1.45
2024-12-06 12:40:27.434,1.35,491.0,0.87,0.48,-0.01,0.28,0.07,-1.27
2024-12-06 12:40:27.439,1.35,486.0,0.87,0.48,-0.01,0.28,0.31,-1.09
2024-12-06 12:40:27.447,2.25,480.0,0.87,0.47,-0.01,0.34,0.49,-0.78
2024-12-06 12:40:27.458,-1.8,478.0,0.87,0.47,-0.01,0.28,0.55,-0.66
2024-12-06 12:40:27.469,-1.8,485.0,0.87,0.47,-0.01,0.28,0.43,-0.6
2024-12-06 12:40:27.472,1.57,495.0,0.87,0.47,-0.01,0.28,0.43,-0.6
2024-12-06 12:40:27.480,2.92,495.0,0.87,0.47,-0.01,0.22,0.31,-0.72
2024-12-06 12:40:27.488,0.0,485.0,0.87,0.47,-0.01,0.16,0.13,-0.84
2024-12-06 12:40:27.493,-3.38,492.0,0.87,0.47,-0.01,0.16,0.0,-1.03
2024-12-06 12:40:27.501,0.9,477.0,0.87,0.47,-0.01,0.16,-0.12,-1.15
2024-12-06 12:40:27.511,0.22,489.0,0.87,0.48,-0.01,0.16,-0.12,-1.15
2024-12-06 12:40:27.517,3.82,480.0,0.87,0.48,-0.01,0.28,-0.12,-1.21
2024-12-06 12:40:27.526,1.35,494.0,0.87,0.48,-0.01,0.28,-0.12,-1.27
2024-12-06 12:40:27.536,2.92,482.0,0.87,0.48,-0.01,0.28,-0.06,-1.21
2024-12-06 12:40:27.545,5.85,483.0,0.87,0.48,-0.01,0.34,0.0,-1.09
2024-12-06 12:40:27.553,0.9,482.0,0.87,0.48,-0.01,0.28,0.13,-0.97
2024-12-06 12:40:27.559,1.8,483.0,0.87,0.48,-0.01,0.28,0.13,-0.97
2024-12-06 12:40:27.564,4.05,475.0,0.87,0.48,-0.01,0.28,0.19,-0.84
2024-12-06 12:40:27.571,2.02,483.0,0.87,0.47,-0.01,0.22,0.31,-0.78
2024-12-06 12:40:27.579,-1.35,489.0,0.87,0.47,-0.01,0.22,0.31,-0.72
2024-12-06 12:40:27.588,1.35,474.0,0.87,0.47,-0.01,0.28,0.19,-0.72
2024-12-06 12:40:27.596,2.25,490.0,0.87,0.47,-0.01,0.28,0.19,-0.84
2024-12-06 12:40:27.633,1.8,475.0,0.87,0.47,-0.01,0.28,0.19,-0.84
2024-12-06 12:40:27.638,1.12,474.0,0.87,0.48,-0.01,0.22,0.07,-0.72
2024-12-06 12:40:27.644,2.02,489.0,0.87,0.47,-0.01,0.22,0.07,-0.72
2024-12-06 12:40:27.653,-0.67,496.0,0.87,0.47,-0.01,0.22,-0.06,-0.72
2024-12-06 12:40:28.666,2.02,478.0,0.87,0.48,-0.01,0.34,-0.18,-0.97
2024-12-06 12:40:28.707,0.45,487.0,0.85,0.47,-0.01,0.4,-0.79,-1.45
2024-12-06 12:40:28.713,4.28,493.0,0.8,0.45,-0.01,0.4,-0.61,-7.99
2024-12-06 12:40:28.753,0.67,472.0,0.84,0.48,-0.02,1.2,0.25,-8.72
2024-12-06 12:40:28.846,5.17,479.0,0.82,0.48,-0.02,1.99,2.63,-9.88
2024-12-06 12:40:28.875,2.92,478.0,0.87,0.51,-0.0,1.75,0.07,-11.53
2024-12-06 12:40:28.877,7.42,501.0,0.85,0.51,-0.02,3.21,0.19,-11.77
2024-12-06 12:40:28.906,8.1,538.0,0.85,0.51,-0.01,3.15,0.74,-11.65
2024-12-06 12:40:28.937,11.92,477.0,0.83,0.5,-0.0,1.5,-0.12,-11.83
2024-12-06 12:40:29.73,14.62,477.0,0.83,0.5,0.0,-0.33,-0.54,-13.05
2024-12-06 12:40:29.77,15.07,491.0,0.82,0.55,-0.02,-1.0,1.1,-14.21
2024-12-06 12:40:29.100,20.92,497.0,0.83,0.56,-0.01,-1.24,1.16,-13.36
2024-12-06 12:40:29.126,22.27,477.0,0.85,0.57,-0.01,-1.06,1.41,-11.83
2024-12-06 12:40:29.158,19.12,482.0,0.85,0.57,-0.02,-0.33,0.86,-10.18
2024-12-06 12:40:29.181,20.48,483.0,0.85,0.57,-0.01,-0.15,0.31,-8.23
2024-12-06 12:40:29.215,20.92,475.0,0.83,0.59,-0.02,0.34,0.49,-6.58
2024-12-06 12:40:29.236,26.55,483.0,0.83,0.59,-0.02,1.08,1.1,-5.91
2024-12-06 12:40:29.271,27.9,485.0,0.82,0.59,-0.03,1.69,0.74,-4.63
2024-12-06 12:40:29.291,24.07,483.0,0.81,0.57,-0.01,1.69,-0.61,-5.36
2024-12-06 12:40:29.319,29.02,488.0,0.81,0.59,-0.0,1.44,-0.91,-4.57
2024-12-06 12:40:29.349,27.22,479.0,0.79,0.57,-0.0,1.44,0.74,-4.87
2024-12-06 12:40:29.374,30.15,487.0,0.8,0.58,-0.0,1.14,0.98,-3.9
2024-12-06 12:40:29.404,24.52,479.0,0.78,0.57,-0.0,0.28,0.74,-5.06
2024-12-06 12:40:29.433,33.08,486.0,0.8,0.58,0.01,-0.45,0.07,-5.91
2024-12-06 12:40:29.459,29.25,488.0,0.78,0.57,0.0,-0.94,-0.24,-7.01
2024-12-06 12:40:29.484,31.5,501.0,0.79,0.57,0.0,-1.0,0.13,-8.23
2024-12-06 12:40:29.512,35.1,496.0,0.79,0.58,0.0,-1.37,0.31,-8.66
2024-12-06 12:40:29.541,38.25,485.0,0.82,0.6,-0.01,-1.73,-0.36,-6.95
2024-12-06 12:40:29.567,37.58,499.0,0.8,0.6,-0.01,-1.92,-0.61,-6.46
2024-12-06 12:40:29.604,40.27,488.0,0.8,0.6,-0.01,-2.28,-1.34,-6.64
2024-12-06 12:40:29.623,35.77,503.0,0.79,0.59,-0.01,-1.92,-1.52,-6.34
2024-12-06 12:40:29.659,35.33,480.0,0.78,0.58,-0.0,-1.67,-1.64,-8.11
2024-12-06 12:40:29.688,40.5,499.0,0.79,0.6,0.0,-1.67,-2.07,-8.66
2024-12-06 12:40:29.705,38.02,504.0,0.78,0.6,-0.01,-1.61,-1.89,-8.9
2024-12-06 12:40:29.733,36.45,482.0,0.79,0.61,-0.0,-2.22,-1.46,-9.21
2024-12-06 12:40:29.761,43.2,484.0,0.78,0.62,-0.01,-2.34,-1.28,-7.25
2024-12-06 12:40:29.788,43.65,487.0,0.79,0.63,-0.01,-2.34,-1.4,-7.13
2024-12-06 12:40:29.817,45.22,482.0,0.78,0.63,-0.01,-2.59,-1.58,-5.06
2024-12-06 12:40:29.844,45.45,457.0,0.76,0.61,-0.0,-3.07,-2.8,-6.46
2024-12-06 12:40:29.885,45.45,499.0,0.76,0.62,0.01,-3.07,-2.8,-7.56
2024-12-06 12:40:29.899,37.8,495.0,0.76,0.63,0.01,-3.2,-2.13,-6.89
2024-12-06 12:40:29.927,45.9,536.0,0.76,0.63,-0.0,-3.81,-2.31,-7.13
2024-12-06 12:40:29.955,52.88,484.0,0.78,0.65,-0.01,-4.17,-2.5,-5.6
2024-12-06 12:40:29.982,47.92,503.0,0.75,0.63,-0.01,-4.54,-3.47,-5.06
2024-12-06 12:40:30.11,52.2,508.0,0.76,0.64,-0.01,-4.36,-3.23,-5.54
2024-12-06 12:40:30.130,56.47,494.0,0.76,0.64,-0.01,-3.32,-3.23,-4.57
2024-12-06 12:40:30.136,56.02,509.0,0.78,0.66,-0.01,-2.59,-3.9,-3.65
2024-12-06 12:40:30.150,55.35,500.0,0.76,0.66,-0.01,-2.65,-3.05,-1.52
2024-12-06 12:40:30.174,60.07,507.0,0.76,0.66,-0.01,-3.01,-3.23,-0.54
2024-12-06 12:40:30.202,54.0,525.0,0.75,0.65,-0.01,-3.75,-3.9,-0.42
2024-12-06 12:40:30.229,58.05,517.0,0.74,0.64,0.01,-4.3,-4.27,-1.82
2024-12-06 12:40:30.257,56.02,509.0,0.74,0.64,0.0,-3.75,-4.27,-3.22
2024-12-06 12:40:30.286,59.62,519.0,0.74,0.64,0.0,-3.2,-3.6,-3.71
2024-12-06 12:40:30.341,64.35,519.0,0.74,0.63,-0.02,-3.14,-2.44,-4.32
2024-12-06 12:40:30.354,61.65,529.0,0.75,0.65,-0.02,-2.89,-3.35,-4.51
2024-12-06 12:40:30.368,61.88,535.0,0.75,0.66,-0.02,-2.4,-3.6,-4.2
2024-12-06 12:40:30.400,66.6,521.0,0.75,0.66,-0.01,-2.34,-3.29,-3.71
2024-12-06 12:40:30.478,67.5,517.0,0.75,0.65,-0.02,-2.46,-3.54,-3.29
2024-12-06 12:40:30.483,67.5,528.0,0.76,0.65,-0.01,-1.55,-3.17,-1.82
2024-12-06 12:40:30.506,67.95,539.0,0.75,0.65,-0.01,-1.67,-3.96,-1.94
2024-12-06 12:40:30.533,70.65,538.0,0.75,0.66,-0.02,-1.92,-2.92,-1.82
2024-12-06 12:40:30.584,73.57,524.0,0.74,0.66,-0.01,-2.04,-2.86,-1.03
2024-12-06 12:40:30.588,74.25,548.0,0.73,0.65,-0.01,-2.53,-3.05,-1.27
2024-12-06 12:40:30.616,69.75,537.0,0.74,0.66,-0.0,-3.26,-2.92,-1.15
2024-12-06 12:40:30.664,73.8,548.0,0.72,0.64,-0.01,-3.26,-2.07,-2.98
2024-12-06 12:40:30.678,74.92,554.0,0.75,0.63,0.0,-2.95,-1.89,-4.14
2024-12-06 12:40:30.698,77.85,546.0,0.73,0.67,-0.0,-2.77,-2.74,-4.93
2024-12-06 12:40:30.726,76.72,527.0,0.72,0.67,-0.01,-2.95,-2.92,-6.28
2024-12-06 12:40:30.753,80.55,543.0,0.73,0.67,-0.01,-3.01,-3.47,-5.6
2024-12-06 12:40:30.789,79.88,540.0,0.72,0.67,-0.02,-3.26,-3.66,-4.75
2024-12-06 12:40:30.820,79.88,539.0,0.74,0.69,-0.02,-3.26,-4.33,-4.32
2024-12-06 12:40:30.840,73.8,546.0,0.73,0.68,-0.02,-3.01,-4.08,-3.77
2024-12-06 12:40:30.868,80.78,553.0,0.76,0.65,-0.02,-2.22,-3.66,-3.59
2024-12-06 12:40:30.891,78.97,590.0,0.75,0.68,-0.02,-1.3,-4.02,-2.8
2024-12-06 12:40:30.919,78.75,554.0,0.74,0.68,-0.03,-0.88,-4.39,-1.94
2024-12-06 12:40:30.947,82.8,555.0,0.74,0.68,-0.03,-1.06,-4.82,-0.84
2024-12-06 12:40:30.977,81.9,584.0,0.74,0.69,-0.02,-0.94,-5.0,0.5
2024-12-06 12:40:32.322,86.4,600.0,0.75,0.65,-0.04,0.1,-0.18,-0.84
2024-12-06 12:40:32.325,87.07,599.0,0.74,0.65,-0.04,0.16,-0.12,-0.66
2024-12-06 12:40:32.328,88.88,610.0,0.74,0.65,-0.04,0.22,0.0,-0.6
2024-12-06 12:40:32.343,88.42,594.0,0.75,0.65,-0.04,0.4,0.25,-0.6
2024-12-06 12:40:32.377,88.88,589.0,0.75,0.65,-0.04,0.53,0.43,-0.6
2024-12-06 12:40:32.380,86.17,610.0,0.75,0.65,-0.04,0.59,0.37,-0.78
2024-12-06 12:40:32.388,86.85,607.0,0.75,0.65,-0.04,0.65,0.31,-0.84
2024-12-06 12:40:32.393,84.82,600.0,0.75,0.65,-0.04,0.71,0.25,-0.91
2024-12-06 12:40:32.397,86.85,618.0,0.75,0.65,-0.04,0.71,0.25,-0.91
2024-12-06 12:40:32.412,82.12,625.0,0.75,0.65,-0.04,0.77,0.19,-1.03
2024-12-06 12:40:32.415,86.62,619.0,0.75,0.65,-0.04,0.77,0.19,-1.03
2024-12-06 12:40:32.421,87.75,596.0,0.75,0.65,-0.04,0.71,0.25,-1.03
2024-12-06 12:40:32.429,88.65,605.0,0.75,0.65,-0.04,0.71,0.31,-0.91
2024-12-06 12:40:32.436,84.38,604.0,0.75,0.64,-0.04,0.77,0.37,-0.78
2024-12-06 12:40:32.448,84.6,599.0,0.75,0.64,-0.04,0.77,0.37,-0.78
2024-12-06 12:40:32.452,84.82,600.0,0.75,0.64,-0.04,0.77,0.49,-0.72
2024-12-06 12:40:32.467,85.95,603.0,0.75,0.64,-0.04,0.77,0.49,-0.72
2024-12-06 12:40:32.472,85.95,595.0,0.75,0.64,-0.04,0.77,0.43,-0.72
2024-12-06 12:40:32.475,87.3,599.0,0.75,0.64,-0.04,0.77,0.43,-0.72
2024-12-06 12:40:32.484,88.2,650.0,0.75,0.64,-0.04,0.71,0.43,-0.72
2024-12-06 12:40:32.509,86.4,616.0,0.75,0.64,-0.04,0.71,0.43,-0.72
2024-12-06 12:40:32.513,84.38,606.0,0.75,0.65,-0.03,0.71,0.68,-0.78
2024-12-06 12:40:32.515,88.65,611.0,0.75,0.65,-0.03,0.59,0.8,-0.91
2024-12-06 12:40:32.523,85.28,602.0,0.75,0.65,-0.03,0.59,0.74,-0.91
2024-12-06 12:40:32.537,87.07,627.0,0.75,0.65,-0.03,0.59,0.74,-0.91
2024-12-06 12:40:32.539,87.75,598.0,0.75,0.65,-0.03,0.59,0.68,-1.03
2024-12-06 12:40:32.545,85.28,591.0,0.75,0.64,-0.04,0.65,0.62,-1.09
2024-12-06 12:40:32.556,87.3,596.0,0.75,0.64,-0.04,0.53,0.55,-1.15
2024-12-06 12:40:32.566,84.82,606.0,0.75,0.64,-0.04,0.47,0.43,-1.09
2024-12-06 12:40:32.606,89.1,617.0,0.75,0.64,-0.04,0.65,-0.12,-0.78
2024-12-06 12:40:32.610,82.35,606.0,0.75,0.64,-0.04,0.65,-0.24,-0.78
2024-12-06 12:40:32.615,80.1,599.0,0.75,0.64,-0.04,0.65,-0.24,-0.78
2024-12-06 12:40:32.625,86.85,594.0,0.75,0.65,-0.04,0.71,-0.3,-0.84
2024-12-06 12:40:32.663,87.07,609.0,0.75,0.65,-0.04,0.77,-0.18,-1.15
2024-12-06 12:40:32.667,83.25,610.0,0.75,0.65,-0.04,0.83,-0.18,-1.15
2024-12-06 12:40:32.683,87.07,610.0,0.75,0.64,-0.04,0.83,-0.12,-1.21
2024-12-06 12:40:32.686,82.8,594.0,0.75,0.64,-0.04,0.71,0.0,-1.21
2024-12-06 12:40:32.690,83.47,606.0,0.75,0.64,-0.04,0.71,0.0,-1.21
2024-12-06 12:40:32.698,86.85,587.0,0.75,0.65,-0.04,0.71,0.07,-1.15
2024-12-06 12:40:32.706,85.05,640.0,0.75,0.65,-0.04,0.71,0.25,-1.15
2024-12-06 12:40:32.718,87.3,618.0,0.75,0.65,-0.04,0.77,0.37,-1.15
2024-12-06 12:40:32.727,87.3,593.0,0.75,0.64,-0.04,0.77,0.37,-1.15
2024-12-06 12:40:32.736,83.7,616.0,0.75,0.64,-0.04,0.83,0.37,-1.09
2024-12-06 12:40:32.739,87.52,593.0,0.75,0.64,-0.04,0.83,0.37,-1.09
2024-12-06 12:40:32.748,91.57,591.0,0.75,0.64,-0.04,0.89,0.37,-1.09
2024-12-06 12:40:32.762,83.92,603.0,0.75,0.64,-0.04,0.95,0.43,-1.09
2024-12-06 12:40:32.765,83.25,595.0,0.75,0.64,-0.04,1.01,0.43,-1.03
2024-12-06 12:40:32.769,86.17,597.0,0.75,0.64,-0.04,1.08,0.49,-1.03
2024-12-06 12:40:32.782,90.22,596.0,0.76,0.64,-0.04,1.08,0.49,-0.97
2024-12-06 12:40:32.794,85.05,595.0,0.75,0.65,-0.04,1.14,0.43,-0.91
2024-12-06 12:40:32.828,84.38,589.0,0.75,0.65,-0.04,1.14,0.07,-1.03
2024-12-06 12:40:32.835,83.47,580.0,0.75,0.64,-0.04,1.01,-0.06,-1.03
2024-12-06 12:40:32.839,84.38,611.0,0.75,0.64,-0.04,0.95,-0.24,-1.03
2024-12-06 12:40:32.854,88.2,598.0,0.74,0.64,-0.04,0.83,-0.36,-1.03
2024-12-06 12:40:32.856,88.88,592.0,0.74,0.64,-0.04,0.71,-0.42,-1.03
2024-12-06 12:40:32.863,90.67,590.0,0.74,0.64,-0.04,0.65,-0.36,-1.03
2024-12-06 12:40:32.871,89.32,595.0,0.74,0.64,-0.03,0.65,-0.12,-1.03
2024-12-06 12:40:32.878,89.77,588.0,0.74,0.65,-0.03,0.53,-0.12,-1.03
2024-12-06 12:40:32.885,89.55,594.0,0.74,0.65,-0.03,0.53,0.19,-1.03
2024-12-06 12:40:32.902,86.4,593.0,0.74,0.65,-0.03,0.59,0.43,-1.03
2024-12-06 12:40:32.912,85.72,587.0,0.75,0.64,-0.04,0.59,0.55,-1.09
2024-12-06 12:40:32.918,88.42,595.0,0.75,0.64,-0.04,0.59,0.55,-1.09
2024-12-06 12:40:32.924,87.52,593.0,0.75,0.64,-0.04,0.53,0.37,-1.15
2024-12-06 12:40:32.938,87.75,588.0,0.75,0.64,-0.04,0.53,0.19,-1.15
2024-12-06 12:40:32.943,85.95,597.0,0.75,0.64,-0.05,0.59,0.07,-1.15
2024-12-06 12:40:32.948,85.28,596.0,0.75,0.65,-0.05,0.59,-0.18,-1.15
2024-12-06 12:40:32.959,87.3,594.0,0.75,0.65,-0.05,0.65,-0.36,-1.09
2024-12-06 12:40:32.970,87.75,599.0,0.75,0.65,-0.05,0.65,-0.36,-1.09
2024-12-06 12:40:32.978,83.25,582.0,0.75,0.65,-0.05,0.77,-0.42,-1.09
2024-12-06 12:40:32.981,89.32,595.0,0.75,0.65,-0.05,0.77,-0.54,-1.03
2024-12-06 12:40:32.992,85.05,592.0,0.75,0.65,-0.04,0.65,-0.54,-0.91
2024-12-06 12:40:33.2,89.32,595.0,0.75,0.65,-0.04,0.65,-0.61,-0.84
2024-12-06 12:40:33.6,90.0,592.0,0.75,0.65,-0.04,0.77,-0.61,-0.78
2024-12-06 12:40:33.12,84.6,586.0,0.75,0.65,-0.04,0.77,-0.61,-0.72
2024-12-06 12:40:33.20,86.85,591.0,0.75,0.65,-0.04,0.77,-0.61,-0.72
2024-12-06 12:40:33.48,88.88,593.0,0.75,0.65,-0.04,0.59,-0.48,-0.6
2024-12-06 12:40:33.52,83.47,585.0,0.75,0.65,-0.04,0.53,-0.42,-0.66
2024-12-06 12:40:33.60,86.62,596.0,0.75,0.65,-0.04,0.53,-0.42,-0.66
2024-12-06 12:40:33.66,86.17,606.0,0.75,0.65,-0.04,0.53,-0.54,-0.72
2024-12-06 12:40:33.74,89.77,655.0,0.75,0.65,-0.05,0.59,-0.61,-0.84
2024-12-06 12:40:33.82,86.62,609.0,0.75,0.64,-0.05,0.65,-0.61,-0.84
2024-12-06 12:40:33.97,87.3,614.0,0.75,0.64,-0.04,0.71,-0.54,-0.97
2024-12-06 12:40:33.101,85.5,609.0,0.75,0.64,-0.04,0.65,-0.42,-1.03
2024-12-06 12:40:33.110,85.95,594.0,0.75,0.64,-0.04,0.65,-0.42,-1.03
2024-12-06 12:40:33.121,84.6,588.0,0.74,0.65,-0.04,0.65,-0.3,-0.97
2024-12-06 12:40:33.133,86.62,604.0,0.74,0.65,-0.04,0.71,-0.24,-0.91
2024-12-06 12:40:33.165,86.62,593.0,0.74,0.64,-0.04,0.77,-0.12,-0.91
2024-12-06 12:40:33.171,87.97,594.0,0.74,0.65,-0.04,0.65,0.07,-1.15
2024-12-06 12:40:33.267,87.75,596.0,0.74,0.65,-0.04,0.59,0.07,-1.21
2024-12-06 12:40:33.288,87.3,585.0,0.75,0.65,-0.04,0.4,0.55,-1.33
2024-12-06 12:40:33.326,84.38,589.0,0.75,0.64,-0.05,0.47,0.37,-1.15
2024-12-06 12:40:33.329,83.92,586.0,0.75,0.64,-0.05,0.59,-0.06,-0.97
2024-12-06 12:40:33.332,84.38,589.0,0.75,0.64,-0.05,0.59,-0.06,-0.97
2024-12-06 12:40:33.344,86.85,590.0,0.75,0.64,-0.05,0.47,-0.06,-0.91
2024-12-06 12:40:33.348,88.42,631.0,0.75,0.64,-0.04,0.34,-0.06,-0.97
2024-12-06 12:40:33.387,86.85,599.0,0.75,0.64,-0.05,0.47,-0.06,-0.84
2024-12-06 12:40:33.392,82.12,589.0,0.75,0.64,-0.05,0.47,-0.06,-0.91
2024-12-06 12:40:33.398,87.07,588.0,0.75,0.64,-0.05,0.4,-0.06,-0.84
2024-12-06 12:40:33.402,83.92,601.0,0.75,0.64,-0.05,0.28,-0.12,-0.72
2024-12-06 12:40:33.411,84.15,596.0,0.75,0.64,-0.05,0.22,-0.24,-0.66
2024-12-06 12:40:33.418,90.0,608.0,0.75,0.64,-0.05,0.22,-0.24,-0.54
2024-12-06 12:40:33.429,84.15,589.0,0.75,0.65,-0.04,0.22,-0.24,-0.54
2024-12-06 12:40:33.434,85.95,584.0,0.75,0.65,-0.04,0.28,-0.24,-0.48
2024-12-06 12:40:33.442,86.17,597.0,0.75,0.65,-0.04,0.4,-0.18,-0.48
2024-12-06 12:40:33.451,84.38,598.0,0.75,0.64,-0.05,0.47,-0.12,-0.48
2024-12-06 12:40:33.457,88.42,598.0,0.75,0.64,-0.05,0.47,-0.06,-0.54
2024-12-06 12:40:33.470,86.4,614.0,0.75,0.64,-0.05,0.4,-0.06,-0.54
2024-12-06 12:40:33.534,87.3,593.0,0.74,0.65,-0.04,0.4,0.07,-0.6
2024-12-06 12:40:33.686,88.65,606.0,0.75,0.64,-0.05,-0.02,-0.3,-0.97
2024-12-06 12:40:33.696,84.38,588.0,0.75,0.64,-0.05,-0.02,-0.3,-0.97
2024-12-06 12:40:33.700,88.88,595.0,0.75,0.64,-0.05,-0.08,-0.36,-0.84
2024-12-06 12:40:33.713,89.55,586.0,0.75,0.65,-0.05,-0.02,-0.48,-0.72
2024-12-06 12:40:33.719,87.52,609.0,0.75,0.65,-0.04,-0.08,-0.48,-0.66
2024-12-06 12:40:33.724,83.7,586.0,0.75,0.65,-0.04,-0.08,-0.42,-0.6
2024-12-06 12:40:33.730,87.3,600.0,0.75,0.65,-0.04,0.04,-0.48,-0.54
2024-12-06 12:40:33.738,87.3,600.0,0.75,0.65,-0.05,0.04,-0.48,-0.54
2024-12-06 12:40:33.745,86.85,598.0,0.75,0.65,-0.05,0.1,-0.42,-0.54
2024-12-06 12:40:33.755,87.07,610.0,0.75,0.65,-0.05,0.16,-0.36,-0.6
2024-12-06 12:40:33.760,87.3,608.0,0.75,0.64,-0.05,0.1,-0.24,-0.72
2024-12-06 12:40:33.769,83.92,585.0,0.75,0.64,-0.05,-0.08,-0.24,-0.72
2024-12-06 12:40:33.804,85.95,610.0,0.75,0.65,-0.04,-0.27,-0.18,-0.54
2024-12-06 12:40:33.808,85.5,593.0,0.75,0.65,-0.04,-0.21,-0.24,-0.42
2024-12-06 12:40:33.816,87.52,604.0,0.75,0.64,-0.04,-0.27,-0.18,-0.36
2024-12-06 12:40:33.867,88.2,595.0,0.75,0.65,-0.04,-0.21,0.0,-0.23
2024-12-06 12:40:33.871,86.62,600.0,0.75,0.65,-0.05,-0.02,-0.06,-0.11
2024-12-06 12:40:33.876,86.85,586.0,0.75,0.64,-0.05,0.04,-0.24,0.01
2024-12-06 12:40:33.885,82.12,615.0,0.75,0.64,-0.05,0.22,-0.3,0.01
2024-12-06 12:40:33.895,86.62,595.0,0.75,0.64,-0.05,0.34,-0.12,0.01
2024-12-06 12:40:33.908,84.82,587.0,0.75,0.65,-0.05,0.4,0.07,-0.11
2024-12-06 12:40:33.911,87.52,599.0,0.75,0.65,-0.05,0.4,0.07,-0.11
2024-12-06 12:40:33.916,90.67,594.0,0.75,0.65,-0.05,0.4,0.25,-0.29
2024-12-06 12:40:33.926,87.07,602.0,0.75,0.65,-0.04,0.4,0.37,-0.36
2024-12-06 12:40:33.931,86.62,586.0,0.75,0.64,-0.04,0.34,0.37,-0.36
2024-12-06 12:40:33.942,85.95,593.0,0.75,0.64,-0.04,0.28,0.37,-0.36
2024-12-06 12:40:33.953,85.72,603.0,0.75,0.64,-0.04,0.34,0.31,-0.36
2024-12-06 12:40:33.983,83.47,599.0,0.75,0.64,-0.05,0.47,0.25,-0.48
2024-12-06 12:40:33.995,83.7,580.0,0.75,0.64,-0.05,0.47,0.25,-0.54
2024-12-06 12:40:33.999,87.07,598.0,0.75,0.64,-0.05,0.53,0.31,-0.6
2024-12-06 12:40:34.10,86.85,598.0,0.75,0.64,-0.05,0.59,0.49,-0.6
2024-12-06 12:40:34.15,82.57,608.0,0.75,0.64,-0.05,0.53,0.62,-0.6
2024-12-06 12:40:34.22,87.75,587.0,0.75,0.64,-0.05,0.53,0.68,-0.6
2024-12-06 12:40:34.31,87.97,588.0,0.75,0.64,-0.05,0.53,0.68,-0.6
2024-12-06 12:40:34.43,84.15,592.0,0.75,0.64,-0.05,0.53,0.62,-0.66
2024-12-06 12:40:34.53,88.88,593.0,0.75,0.64,-0.05,0.65,0.49,-0.66
2024-12-06 12:40:34.56,90.45,585.0,0.75,0.64,-0.05,0.71,0.43,-0.72
2024-12-06 12:40:34.63,87.3,602.0,0.75,0.64,-0.04,0.65,0.37,-0.78
2024-12-06 12:40:34.75,82.57,587.0,0.75,0.64,-0.04,0.53,0.31,-0.91
2024-12-06 12:40:34.77,86.62,584.0,0.75,0.64,-0.04,0.53,0.31,-0.91
2024-12-06 12:40:34.85,83.47,584.0,0.75,0.64,-0.04,0.4,0.25,-0.97
2024-12-06 12:40:34.114,87.52,592.0,0.75,0.65,-0.04,0.28,0.07,-1.03
2024-12-06 12:40:34.124,84.15,582.0,0.75,0.64,-0.04,0.34,0.0,-0.91
2024-12-06 12:40:34.129,85.28,581.0,0.75,0.64,-0.05,0.34,0.0,-0.91
2024-12-06 12:40:34.132,84.15,593.0,0.75,0.64,-0.05,0.28,-0.12,-0.84
2024-12-06 12:40:34.154,86.4,604.0,0.75,0.64,-0.05,0.04,-0.24,-0.84
2024-12-06 12:40:34.191,85.5,605.0,0.75,0.64,-0.05,0.04,-0.24,-0.84
2024-12-06 12:40:34.201,84.6,590.0,0.75,0.64,-0.04,0.22,0.0,-1.27
2024-12-06 12:40:34.213,84.15,610.0,0.75,0.64,-0.04,0.22,0.0,-1.27
2024-12-06 12:40:34.217,87.07,592.0,0.74,0.64,-0.05,0.22,-0.12,-1.64
2024-12-06 12:40:34.311,86.85,603.0,0.74,0.64,-0.05,0.34,-0.12,-1.82
2024-12-06 12:40:34.321,90.0,623.0,0.76,0.64,-0.04,-0.08,0.68,-1.15
2024-12-06 12:40:34.330,86.62,601.0,0.76,0.65,-0.04,-0.08,0.55,-1.09
2024-12-06 12:40:34.339,83.7,594.0,0.76,0.65,-0.04,-0.08,0.49,-1.15
2024-12-06 12:40:34.345,85.28,606.0,0.76,0.65,-0.04,-0.02,0.49,-1.09
2024-12-06 12:40:34.358,87.52,593.0,0.76,0.65,-0.04,0.04,0.43,-1.09
2024-12-06 12:40:34.360,89.55,591.0,0.76,0.65,-0.04,0.04,0.43,-1.09
2024-12-06 12:40:34.369,87.52,605.0,0.76,0.65,-0.05,0.22,0.31,-1.09
2024-12-06 12:40:34.377,87.07,608.0,0.76,0.65,-0.05,0.34,0.19,-1.03
2024-12-06 12:40:34.409,84.15,608.0,0.76,0.65,-0.05,0.83,-0.24,-0.84
2024-12-06 12:40:34.418,87.3,586.0,0.76,0.65,-0.05,1.01,-0.36,-0.72
2024-12-06 12:40:34.422,87.52,595.0,0.75,0.65,-0.05,1.08,-0.42,-0.66
2024-12-06 12:40:34.430,87.07,593.0,0.75,0.65,-0.05,1.14,-0.42,-0.54
2024-12-06 12:40:34.438,85.72,597.0,0.75,0.65,-0.05,1.08,-0.48,-0.6
2024-12-06 12:40:34.449,86.85,593.0,0.75,0.65,-0.04,1.08,-0.48,-0.6
2024-12-06 12:40:34.460,84.82,591.0,0.75,0.65,-0.04,1.08,-0.54,-0.6
2024-12-06 12:40:34.463,87.52,603.0,0.75,0.65,-0.04,1.08,-0.54,-0.66
2024-12-06 12:40:34.472,86.4,599.0,0.75,0.65,-0.04,1.08,-0.48,-0.72
2024-12-06 12:40:34.478,89.32,610.0,0.75,0.65,-0.04,1.08,-0.42,-0.78
2024-12-06 12:40:34.487,88.88,589.0,0.75,0.64,-0.04,1.08,-0.36,-0.91
2024-12-06 12:40:34.495,89.1,590.0,0.75,0.64,-0.05,1.08,-0.36,-0.91
2024-12-06 12:40:34.509,84.38,612.0,0.74,0.64,-0.05,1.08,-0.24,-0.84
2024-12-06 12:40:34.513,83.47,599.0,0.74,0.64,-0.05,0.95,-0.18,-0.72
2024-12-06 12:40:34.519,85.05,589.0,0.74,0.64,-0.05,0.89,-0.06,-0.66
2024-12-06 12:40:34.526,85.5,605.0,0.74,0.64,-0.05,0.89,0.0,-0.72
2024-12-06 12:40:34.535,89.1,602.0,0.74,0.65,-0.04,0.83,0.0,-0.84
2024-12-06 12:40:34.547,83.92,585.0,0.75,0.64,-0.04,0.83,0.0,-0.97
2024-12-06 12:40:34.556,84.38,589.0,0.75,0.64,-0.04,0.83,0.0,-1.15
2024-12-06 12:40:34.565,89.1,605.0,0.75,0.64,-0.04,0.77,0.0,-1.33
2024-12-06 12:40:34.572,87.97,590.0,0.75,0.64,-0.04,0.77,-0.12,-1.45
2024-12-06 12:40:34.578,88.42,602.0,0.75,0.64,-0.04,0.77,-0.24,-1.45
2024-12-06 12:40:34.586,84.15,593.0,0.75,0.65,-0.04,0.77,-0.24,-1.45
2024-12-06 12:40:34.595,86.85,610.0,0.75,0.65,-0.04,0.77,-0.24,-1.45
2024-12-06 12:40:34.628,84.38,600.0,0.75,0.64,-0.04,0.71,-0.3,-1.33
2024-12-06 12:40:34.647,87.07,607.0,0.75,0.65,-0.05,0.77,-0.18,-1.27
2024-12-06 12:40:34.649,87.97,589.0,0.75,0.65,-0.05,0.89,0.0,-1.21
2024-12-06 12:40:35.697,87.3,585.0,0.74,0.65,-0.05,0.16,0.25,-1.39
2024-12-06 12:40:35.701,82.57,591.0,0.75,0.65,-0.05,0.22,4.4,-0.91
2024-12-06 12:40:35.714,82.12,594.0,0.7,0.78,-0.02,0.89,7.15,5.63
2024-12-06 12:40:35.755,82.12,559.0,0.68,0.77,-0.05,-2.16,6.96,10.45
2024-12-06 12:40:35.770,78.53,540.0,0.76,0.66,-0.06,-5.09,8.06,11.91
2024-12-06 12:40:35.794,75.82,548.0,0.78,0.55,-0.04,-3.56,5.01,11.24
2024-12-06 12:40:35.824,71.1,535.0,0.82,0.55,-0.03,-0.08,2.2,5.56
2024-12-06 12:40:35.849,71.32,523.0,0.82,0.59,-0.03,2.42,-0.36,0.99
2024-12-06 12:40:35.877,75.38,514.0,0.79,0.61,-0.03,4.37,0.49,0.01
2024-12-06 12:40:35.906,74.03,509.0,0.76,0.61,-0.05,5.35,4.7,3.06
2024-12-06 12:40:35.935,71.78,496.0,0.77,0.61,-0.04,6.69,9.22,5.5
2024-12-06 12:40:35.983,66.38,494.0,0.78,0.6,-0.04,6.93,10.75,6.6
2024-12-06 12:40:35.988,68.62,506.0,0.78,0.59,-0.05,6.26,9.53,6.66
2024-12-06 12:40:36.17,68.62,506.0,0.78,0.59,-0.03,6.87,8.31,5.5
2024-12-06 12:40:36.45,66.82,503.0,0.8,0.61,-0.03,7.85,7.7,5.63
2024-12-06 12:40:36.75,66.6,490.0,0.78,0.62,-0.03,7.91,8.12,5.99
2024-12-06 12:40:36.104,61.42,499.0,0.78,0.61,-0.03,7.48,7.57,5.87
2024-12-06 12:40:36.138,60.07,483.0,0.79,0.61,-0.02,7.73,7.88,7.03
2024-12-06 12:40:36.154,58.95,492.0,0.78,0.58,-0.02,7.79,8.0,6.11
2024-12-06 12:40:36.205,61.65,487.0,0.8,0.59,-0.01,7.79,7.51,5.44
2024-12-06 12:40:36.215,57.82,482.0,0.78,0.59,-0.02,7.42,7.02,4.47
2024-12-06 12:40:36.241,56.25,486.0,0.79,0.59,-0.01,6.63,5.93,2.94
2024-12-06 12:40:36.265,56.92,493.0,0.78,0.59,-0.01,5.9,4.7,3.0
2024-12-06 12:40:36.292,59.17,476.0,0.78,0.58,-0.01,5.23,4.64,2.63
2024-12-06 12:40:36.409,59.85,498.0,0.78,0.58,-0.01,4.8,4.46,1.29
2024-12-06 12:40:36.451,51.97,489.0,0.8,0.61,-0.01,4.19,3.97,-0.36
2024-12-06 12:40:36.463,50.4,475.0,0.77,0.59,-0.01,2.85,2.2,-2.74
2024-12-06 12:40:36.490,50.4,488.0,0.8,0.6,-0.01,2.17,2.93,-2.19
2024-12-06 12:40:36.516,47.7,475.0,0.79,0.59,-0.02,1.81,4.22,-0.11
2024-12-06 12:40:36.539,41.4,479.0,0.82,0.6,-0.02,1.44,4.22,0.32
2024-12-06 12:40:36.572,43.42,477.0,0.82,0.59,-0.02,1.93,3.24,2.02
2024-12-06 12:40:36.596,46.12,474.0,0.8,0.59,-0.02,2.3,1.41,0.38
2024-12-06 12:40:36.626,44.1,486.0,0.82,0.59,-0.02,2.66,1.84,1.05
2024-12-06 12:40:36.663,39.6,478.0,0.81,0.58,-0.01,2.91,3.06,3.49
2024-12-06 12:40:36.680,37.35,489.0,0.81,0.57,-0.0,2.24,3.24,4.1
2024-12-06 12:40:36.705,40.27,483.0,0.8,0.57,0.0,1.32,1.77,4.04
2024-12-06 12:40:36.733,34.88,478.0,0.8,0.56,0.0,1.38,1.96,2.88
2024-12-06 12:40:36.763,34.65,479.0,0.8,0.57,-0.0,2.17,2.75,2.39
2024-12-06 12:40:36.788,33.97,491.0,0.81,0.58,-0.01,2.42,3.18,2.63
2024-12-06 12:40:36.817,39.15,475.0,0.78,0.57,-0.01,1.62,2.81,0.25
2024-12-06 12:40:36.843,32.85,490.0,0.82,0.59,-0.01,1.01,2.39,1.05
2024-12-06 12:40:36.871,31.27,472.0,0.81,0.57,-0.01,0.77,0.98,1.41
2024-12-06 12:40:36.900,34.42,489.0,0.81,0.56,0.01,-0.15,-0.73,0.01
2024-12-06 12:40:36.941,32.85,478.0,0.82,0.56,0.02,-1.12,-0.73,1.17
2024-12-06 12:40:36.954,27.45,470.0,0.81,0.56,0.0,-1.55,0.43,0.86
2024-12-06 12:40:36.986,29.92,479.0,0.86,0.57,-0.01,-1.55,1.9,2.51
2024-12-06 12:40:37.13,30.82,461.0,0.83,0.54,-0.03,-0.45,1.04,5.02
2024-12-06 12:40:37.41,31.05,501.0,0.81,0.55,-0.01,-0.02,-1.64,1.78
2024-12-06 12:40:37.72,29.02,490.0,0.84,0.57,-0.01,0.47,-0.42,2.63
2024-12-06 12:40:37.113,27.9,483.0,0.81,0.56,-0.02,1.99,-0.36,2.88
2024-12-06 12:40:37.120,27.0,485.0,0.83,0.56,-0.0,1.38,-1.15,2.7
2024-12-06 12:40:37.148,25.2,477.0,0.82,0.57,-0.0,0.53,-1.95,3.92
2024-12-06 12:40:37.181,25.42,485.0,0.82,0.57,0.0,-0.33,-1.28,4.34
2024-12-06 12:40:37.205,23.4,478.0,0.84,0.57,0.01,-0.57,-0.24,6.36
2024-12-06 12:40:37.231,19.35,491.0,0.84,0.54,-0.0,-0.94,-0.18,6.66
2024-12-06 12:40:37.258,19.35,478.0,0.84,0.53,-0.0,-1.18,-1.28,6.48
2024-12-06 12:40:37.286,21.15,475.0,0.82,0.52,-0.01,-0.45,-1.46,5.44
2024-12-06 12:40:37.336,20.48,480.0,0.81,0.53,-0.02,0.34,-0.79,4.53
2024-12-06 12:40:37.356,20.48,488.0,0.84,0.55,-0.02,0.53,1.35,4.77
2024-12-06 12:40:37.369,14.17,469.0,0.84,0.54,-0.03,0.4,-0.3,5.69
2024-12-06 12:40:37.464,13.72,482.0,0.83,0.52,-0.01,-0.51,0.13,5.02
2024-12-06 12:40:37.479,14.17,478.0,0.84,0.51,-0.02,-0.51,0.07,4.77
2024-12-06 12:40:37.514,9.45,491.0,0.84,0.51,-0.02,-0.63,-1.09,4.59
2024-12-06 12:40:37.536,11.25,493.0,0.83,0.51,-0.02,-0.21,-0.54,3.61
2024-12-06 12:40:37.565,5.4,480.0,0.85,0.52,-0.02,0.47,0.62,4.71
2024-12-06 12:40:37.589,8.1,483.0,0.85,0.52,-0.01,0.16,0.07,5.14
2024-12-06 12:40:37.616,9.22,474.0,0.85,0.51,-0.01,-0.82,-0.54,4.16
2024-12-06 12:40:37.645,9.9,512.0,0.87,0.52,-0.01,-0.94,-0.36,5.38
2024-12-06 12:40:37.686,6.52,505.0,0.84,0.5,-0.01,-0.82,-0.06,6.66
2024-12-06 12:40:37.730,4.5,474.0,0.83,0.49,-0.01,-0.76,-0.48,3.67
2024-12-06 12:40:37.733,3.6,511.0,0.85,0.49,-0.01,-1.06,-0.97,2.82
2024-12-06 12:40:37.754,1.8,481.0,0.86,0.49,-0.0,-1.3,-0.24,2.82
2024-12-06 12:40:39.63,-1.12,489.0,0.87,0.47,-0.0,0.28,0.31,-0.48
2024-12-06 12:40:39.71,0.67,495.0,0.87,0.47,-0.0,0.28,0.31,-0.48
2024-12-06 12:40:39.79,0.45,505.0,0.87,0.47,-0.0,0.28,0.31,-0.48
2024-12-06 12:40:39.86,2.02,502.0,0.87,0.47,-0.0,0.28,0.37,-0.6
2024-12-06 12:40:39.94,1.8,500.0,0.87,0.47,-0.0,0.28,0.37,-0.66
2024-12-06 12:40:39.105,1.35,478.0,0.87,0.47,0.0,0.34,0.31,-0.72
2024-12-06 12:40:39.112,2.92,478.0,0.87,0.47,0.0,0.47,0.31,-0.78
2024-12-06 12:40:39.119,-1.57,500.0,0.87,0.47,0.0,0.47,0.31,-0.78
2024-12-06 12:40:39.162,1.12,485.0,0.88,0.47,0.0,0.4,0.55,-1.27
2024-12-06 12:40:39.171,1.57,502.0,0.88,0.47,0.0,0.4,0.43,-1.27
2024-12-06 12:40:39.191,-0.22,508.0,0.88,0.47,-0.0,0.4,0.13,-1.27
2024-12-06 12:40:39.194,-0.67,484.0,0.88,0.47,-0.0,0.34,0.0,-1.27
2024-12-06 12:40:39.205,0.9,491.0,0.88,0.47,-0.0,0.34,0.0,-1.27
2024-12-06 12:40:39.215,-1.8,512.0,0.88,0.47,-0.0,0.34,-0.18,-1.21
2024-12-06 12:40:39.218,-2.92,498.0,0.87,0.47,-0.0,0.34,-0.18,-1.15
2024-12-06 12:40:39.225,3.15,499.0,0.87,0.47,-0.0,0.4,-0.18,-1.09
2024-12-06 12:40:39.238,2.25,490.0,0.87,0.47,-0.0,0.47,-0.12,-1.09
2024-12-06 12:40:39.241,-0.45,476.0,0.87,0.47,-0.0,0.53,-0.06,-1.03
2024-12-06 12:40:39.252,3.15,490.0,0.87,0.48,-0.0,0.53,-0.06,-1.03
2024-12-06 12:40:39.260,3.6,480.0,0.87,0.48,-0.0,0.53,0.07,-1.03
2024-12-06 12:40:39.265,1.12,479.0,0.87,0.48,-0.0,0.59,0.07,-0.97
2024-12-06 12:40:39.272,0.45,482.0,0.87,0.47,-0.0,0.65,0.13,-1.09
2024-12-06 12:40:39.279,-1.57,475.0,0.87,0.47,-0.0,0.65,0.31,-1.09
2024-12-06 12:40:39.287,-3.82,504.0,0.88,0.47,-0.0,0.65,0.31,-1.09
2024-12-06 12:40:39.320,-0.22,482.0,0.87,0.47,-0.01,0.71,-0.12,-0.72
2024-12-06 12:40:39.325,-1.35,474.0,0.87,0.47,-0.01,0.59,-0.18,-0.78
2024-12-06 12:40:39.327,2.02,496.0,0.87,0.47,-0.0,0.59,-0.18,-0.78
2024-12-06 12:40:39.332,-2.25,493.0,0.87,0.47,-0.0,0.59,-0.24,-0.84
2024-12-06 12:40:39.340,4.05,494.0,0.87,0.47,-0.0,0.53,-0.24,-0.91
2024-12-06 12:40:39.353,3.6,478.0,0.87,0.47,-0.0,0.59,-0.18,-0.91
2024-12-06 12:40:39.375,4.05,473.0,0.87,0.47,-0.0,0.65,0.07,-1.03
2024-12-06 12:40:39.378,-2.92,501.0,0.87,0.47,-0.0,0.71,0.19,-1.03
2024-12-06 12:40:39.386,4.72,481.0,0.87,0.47,0.0,0.71,0.31,-0.97
2024-12-06 12:40:39.394,1.35,481.0,0.87,0.47,0.0,0.59,0.31,-0.97
2024-12-06 12:40:39.401,2.7,481.0,0.87,0.47,0.0,0.53,0.31,-0.91
2024-12-06 12:40:39.409,-0.9,487.0,0.87,0.47,-0.0,0.53,0.31,-0.91
2024-12-06 12:40:39.418,1.8,473.0,0.87,0.47,0.0,0.4,0.31,-0.97
2024-12-06 12:40:39.433,-3.38,483.0,0.87,0.47,0.0,0.28,0.25,-0.97
2024-12-06 12:40:39.440,4.5,474.0,0.87,0.47,0.0,0.28,0.19,-0.91
2024-12-06 12:40:39.447,0.9,481.0,0.87,0.47,0.0,0.28,0.25,-0.84
2024-12-06 12:40:39.455,0.9,492.0,0.87,0.47,-0.0,0.28,0.25,-0.84
2024-12-06 12:40:39.458,2.25,475.0,0.87,0.47,-0.0,0.28,0.19,-0.84
2024-12-06 12:40:39.467,0.45,487.0,0.87,0.47,-0.0,0.4,0.0,-0.91
2024-12-06 12:40:39.619,0.67,467.0,0.87,0.47,-0.0,0.28,-0.54,-1.7
2024-12-06 12:40:39.627,4.28,494.0,0.87,0.47,-0.0,0.22,-0.42,-1.76
2024-12-06 12:40:39.629,-1.35,490.0,0.87,0.47,-0.0,0.22,-0.42,-1.76
2024-12-06 12:40:39.647,2.7,495.0,0.87,0.47,-0.0,0.1,-0.42,-1.76
2024-12-06 12:40:39.650,-0.45,478.0,0.87,0.47,-0.0,-0.02,-0.36,-1.64
2024-12-06 12:40:39.657,2.02,479.0,0.87,0.47,-0.0,-0.02,-0.36,-1.58
2024-12-06 12:40:39.669,2.02,480.0,0.87,0.47,-0.0,-0.02,-0.36,-1.58
2024-12-06 12:40:39.673,-1.12,534.0,0.87,0.47,-0.01,-0.02,-0.36,-1.64
2024-12-06 12:40:39.680,3.82,491.0,0.87,0.48,-0.01,0.04,-0.3,-1.58
2024-12-06 12:40:39.691,4.05,485.0,0.87,0.48,-0.01,0.04,-0.3,-1.58
2024-12-06 12:40:39.695,4.05,506.0,0.87,0.48,-0.01,0.1,-0.3,-1.52
2024-12-06 12:40:39.705,1.12,475.0,0.87,0.48,-0.01,0.1,-0.36,-1.52
2024-12-06 12:40:39.714,3.6,488.0,0.87,0.48,-0.01,0.16,-0.36,-1.52
2024-12-06 12:40:39.722,1.57,492.0,0.88,0.48,-0.01,0.22,-0.3,-1.45
2024-12-06 12:40:39.731,0.45,479.0,0.88,0.48,-0.01,0.28,-0.48,-1.39
2024-12-06 12:40:39.738,3.38,472.0,0.88,0.48,-0.01,0.28,-0.61,-1.21
2024-12-06 12:40:39.757,-2.7,477.0,0.88,0.48,-0.01,0.4,-0.67,-1.15
2024-12-06 12:40:39.760,-0.22,478.0,0.87,0.48,-0.01,0.47,-0.79,-1.09
2024-12-06 12:40:39.768,-0.22,474.0,0.87,0.48,-0.01,0.65,-0.91,-1.03
2024-12-06 12:40:39.771,2.92,479.0,0.87,0.48,-0.0,0.71,-0.73,-1.03
2024-12-06 12:40:39.779,2.02,477.0,0.87,0.48,-0.0,0.71,-0.67,-1.09
2024-12-06 12:40:39.789,-4.28,478.0,0.87,0.48,-0.0,0.71,-0.67,-1.09
2024-12-06 12:40:39.798,-6.97,493.0,0.87,0.48,-0.0,0.71,-0.48,-1.15
2024-12-06 12:40:39.853,1.12,480.0,0.87,0.47,-0.01,0.53,-0.73,-1.21
2024-12-06 12:40:39.862,2.92,502.0,0.86,0.47,-0.01,0.59,-0.67,-1.39
2024-12-06 12:40:39.864,4.72,498.0,0.86,0.47,-0.01,0.59,-0.67,-1.39
2024-12-06 12:40:39.869,2.02,480.0,0.86,0.47,-0.01,0.65,-0.54,-1.45
2024-12-06 12:40:39.878,2.02,476.0,0.86,0.48,-0.01,0.71,-0.36,-1.39
2024-12-06 12:40:39.887,2.02,479.0,0.86,0.48,-0.01,0.77,0.0,-1.33
2024-12-06 12:40:39.896,-0.45,493.0,0.86,0.48,-0.01,0.77,0.25,-1.21
2024-12-06 12:40:39.903,1.12,472.0,0.87,0.48,-0.01,0.77,0.25,-1.21
2024-12-06 12:40:39.912,3.15,480.0,0.87,0.48,-0.01,0.71,0.49,-1.09
2024-12-06 12:40:39.919,2.25,494.0,0.87,0.47,-0.0,0.59,0.55,-0.97
2024-12-06 12:40:39.925,2.92,479.0,0.88,0.47,-0.01,0.53,0.49,-0.97
2024-12-06 12:40:39.931,-2.25,478.0,0.88,0.47,-0.01,0.47,0.37,-0.91
2024-12-06 12:40:39.938,1.35,501.0,0.88,0.47,-0.01,0.4,0.07,-0.97
2024-12-06 12:40:39.950,1.8,494.0,0.88,0.47,-0.01,0.4,0.07,-0.97
2024-12-06 12:40:39.965,4.28,482.0,0.88,0.47,-0.01,0.4,-0.3,-1.03
2024-12-06 12:40:39.967,2.02,484.0,0.87,0.47,-0.01,0.47,-0.42,-1.15
2024-12-06 12:40:39.973,1.35,485.0,0.87,0.47,-0.01,0.53,-0.61,-1.27
2024-12-06 12:40:39.983,1.57,495.0,0.87,0.48,-0.01,0.53,-0.73,-1.45
2024-12-06 12:40:39.987,-1.35,482.0,0.87,0.48,-0.01,0.53,-0.73,-1.45
2024-12-06 12:40:39.997,1.57,476.0,0.87,0.48,-0.01,0.53,-0.67,-1.52
2024-12-06 12:40:40.6,-2.7,467.0,0.86,0.48,-0.01,0.59,-0.48,-1.52
2024-12-06 12:40:40.12,1.57,480.0,0.86,0.48,-0.01,0.59,-0.36,-1.39
2024-12-06 12:40:40.17,2.47,482.0,0.86,0.48,-0.01,0.59,-0.24,-1.15
2024-12-06 12:40:40.26,-0.22,494.0,0.87,0.48,-0.01,0.53,0.0,-0.91
2024-12-06 12:40:40.35,2.02,484.0,0.86,0.47,-0.01,0.53,0.0,-0.91
2024-12-06 12:40:40.40,4.72,486.0,0.86,0.47,-0.01,0.4,0.25,-0.78
2024-12-06 12:40:40.54,-1.12,483.0,0.87,0.48,-0.01,0.34,0.31,-0.84
2024-12-06 12:40:40.62,5.85,489.0,0.87,0.48,-0.01,0.28,0.43,-0.78
2024-12-06 12:40:40.122,3.38,492.0,0.87,0.48,-0.0,0.1,-0.06,-0.84
2024-12-06 12:40:40.128,4.05,481.0,0.87,0.48,-0.0,0.1,0.0,-0.91
2024-12-06 12:40:40.135,2.92,481.0,0.87,0.48,-0.0,0.1,0.0,-0.78
2024-12-06 12:40:40.138,2.25,484.0,0.87,0.48,-0.0,0.1,0.13,-0.72
2024-12-06 12:40:40.147,2.47,476.0,0.87,0.48,-0.01,0.1,0.13,-0.72
2024-12-06 12:40:40.153,2.02,474.0,0.87,0.48,-0.01,0.16,0.31,-0.72
2024-12-06 12:40:40.161,0.45,499.0,0.87,0.48,-0.01,0.28,0.49,-0.66
2024-12-06 12:40:40.169,-0.45,482.0,0.87,0.48,-0.01,0.28,0.62,-0.66
2024-12-06 12:40:40.178,2.02,464.0,0.87,0.48,-0.01,0.22,0.62,-0.6
2024-12-06 12:40:40.187,2.47,478.0,0.87,0.48,-0.01,0.1,0.49,-0.48
2024-12-06 12:40:40.192,1.57,479.0,0.87,0.48,-0.01,0.1,0.49,-0.48
2024-12-06 12:40:40.209,2.25,496.0,0.87,0.47,-0.01,0.04,0.37,-0.48
2024-12-06 12:40:40.215,2.25,492.0,0.87,0.47,-0.01,-0.08,0.19,-0.6
2024-12-06 12:40:40.220,-3.38,480.0,0.87,0.47,-0.0,-0.15,0.07,-0.66
2024-12-06 12:40:40.223,1.12,484.0,0.87,0.47,-0.0,-0.15,-0.06,-0.78
2024-12-06 12:40:40.233,-5.4,496.0,0.87,0.47,-0.0,-0.08,0.0,-0.84
2024-12-06 12:40:40.247,1.12,481.0,0.87,0.47,-0.0,-0.08,0.0,-0.84
2024-12-06 12:40:40.250,2.25,493.0,0.87,0.48,-0.0,0.04,0.07,-0.84
2024-12-06 12:40:40.277,3.82,480.0,0.87,0.48,-0.0,0.22,0.19,-0.78
2024-12-06 12:40:40.281,1.8,479.0,0.87,0.48,-0.01,0.22,0.43,-0.84
2024-12-06 12:40:40.284,1.8,496.0,0.87,0.48,-0.01,0.22,0.37,-0.84
2024-12-06 12:40:40.294,3.38,489.0,0.88,0.48,-0.01,0.16,0.19,-0.78
2024-12-06 12:40:40.300,-1.12,480.0,0.88,0.47,-0.01,0.16,-0.06,-0.72
2024-12-06 12:40:40.311,4.72,479.0,0.88,0.47,-0.01,0.22,-0.3,-0.66
2024-12-06 12:40:40.317,1.8,493.0,0.87,0.47,-0.01,0.28,-0.36,-0.72
2024-12-06 12:40:40.324,2.7,479.0,0.87,0.47,-0.01,0.28,-0.36,-0.72
2024-12-06 12:40:40.333,1.57,480.0,0.87,0.47,-0.01,0.34,-0.3,-0.78
2024-12-06 12:40:40.340,3.38,484.0,0.86,0.47,-0.01,0.34,-0.3,-0.84
2024-12-06 12:40:40.348,-0.9,481.0,0.86,0.48,-0.01,0.28,-0.24,-0.91
2024-12-06 12:40:40.360,2.25,501.0,0.86,0.48,-0.01,0.28,0.0,-0.91
2024-12-06 12:40:40.365,4.72,483.0,0.87,0.48,-0.01,0.28,0.0,-0.84
2024-12-06 12:40:40.372,-1.57,478.0,0.87,0.48,-0.01,0.28,0.19,-0.84
2024-12-06 12:40:40.379,1.8,479.0,0.87,0.48,-0.01,0.34,0.37,-0.78
2024-12-06 12:40:40.392,4.72,471.0,0.87,0.47,-0.01,0.34,0.55,-0.72
2024-12-06 12:40:40.397,2.92,491.0,0.87,0.47,-0.01,0.28,0.62,-0.66
2024-12-06 12:40:40.403,-2.25,482.0,0.87,0.47,-0.01,0.22,0.62,-0.66
2024-12-06 12:40:40.415,3.38,496.0,0.87,0.47,-0.01,0.22,0.62,-0.66
2024-12-06 12:40:40.419,3.15,486.0,0.87,0.47,-0.01,0.1,0.43,-0.6
2024-12-06 12:40:40.426,2.47,478.0,0.87,0.48,-0.01,0.04,0.31,-0.6
2024-12-06 12:40:40.437,2.7,483.0,0.87,0.48,-0.01,-0.02,0.19,-0.6
2024-12-06 12:40:40.443,2.7,486.0,0.87,0.48,-0.01,-0.02,0.13,-0.66
2024-12-06 12:40:40.451,0.67,474.0,0.87,0.48,-0.01,0.04,0.07,-0.66
2024-12-06 12:40:40.457,-1.12,494.0,0.87,0.48,-0.01,0.04,0.07,-0.66
2024-12-06 12:40:40.480,4.28,484.0,0.87,0.48,-0.01,0.1,0.0,-0.6
2024-12-06 12:40:40.509,0.45,479.0,0.86,0.47,-0.0,0.16,0.55,-0.23
2024-12-06 12:40:40.514,0.67,474.0,0.86,0.47,-0.0,0.04,0.74,-0.17
2024-12-06 12:40:40.606,2.25,488.0,0.87,0.48,-0.0,-0.15,0.37,-0.29
2024-12-06 12:40:40.619,4.28,484.0,0.87,0.48,-0.0,-0.08,0.55,-0.29
2024-12-06 12:40:40.630,2.02,477.0,0.87,0.48,0.0,-0.08,0.86,-0.23
2024-12-06 12:40:40.635,2.02,483.0,0.87,0.48,0.0,-0.02,1.16,-0.17
2024-12-06 12:40:40.640,-1.35,488.0,0.87,0.48,0.0,-0.02,1.16,-0.05
2024-12-06 12:40:40.645,2.92,487.0,0.87,0.48,0.0,-0.02,1.41,-0.05
2024-12-06 12:40:40.653,-0.67,484.0,0.87,0.48,-0.0,-0.02,1.53,0.07
2024-12-06 12:40:40.663,-2.02,483.0,0.88,0.47,-0.01,-0.02,1.35,0.07
2024-12-06 12:40:40.672,-2.47,490.0,0.88,0.47,-0.01,-0.08,1.29,0.01
2024-12-06 12:40:40.676,3.15,476.0,0.88,0.47,-0.01,-0.02,0.98,-0.05
2024-12-06 12:40:40.686,-1.57,495.0,0.88,0.47,-0.01,-0.02,0.98,-0.05
2024-12-06 12:40:40.695,3.6,486.0,0.88,0.47,-0.01,-0.02,0.55,-0.05
2024-12-06 12:40:40.703,3.15,485.0,0.88,0.47,-0.01,-0.02,0.37,-0.11
2024-12-06 12:40:40.710,1.8,488.0,0.87,0.47,-0.01,0.04,0.13,-0.23
2024-12-06 12:40:40.741,2.25,478.0,0.87,0.47,0.0,-0.02,0.31,-0.6
2024-12-06 12:40:40.745,-4.95,493.0,0.87,0.47,-0.0,-0.02,0.43,-0.54
2024-12-06 12:40:40.754,2.47,483.0,0.87,0.47,-0.0,-0.02,0.55,-0.42
2024-12-06 12:40:40.759,1.57,498.0,0.87,0.47,-0.0,-0.02,0.55,-0.42
2024-12-06 12:40:40.775,1.8,478.0,0.87,0.47,-0.0,0.04,0.62,-0.36
2024-12-06 12:40:40.777,-3.6,488.0,0.87,0.47,-0.01,0.1,0.74,-0.36
2024-12-06 12:40:40.787,4.05,485.0,0.87,0.47,-0.01,0.16,0.8,-0.36
2024-12-06 12:40:40.799,0.45,487.0,0.87,0.47,-0.01,0.1,0.68,-0.29
2024-12-06 12:40:40.802,4.28,477.0,0.87,0.47,-0.01,0.16,0.55,-0.23
2024-12-06 12:40:40.814,1.8,504.0,0.87,0.47,-0.0,0.16,0.55,-0.23
2024-12-06 12:40:40.828,2.7,480.0,0.87,0.47,-0.0,0.16,0.62,-0.23
2024-12-06 12:40:40.832,1.57,478.0,0.87,0.47,0.0,-0.02,0.49,-0.23
2024-12-06 12:40:40.838,2.25,484.0,0.87,0.47,0.0,-0.02,0.49,-0.23
2024-12-06 12:40:40.858,0.45,474.0,0.87,0.47,0.0,-0.02,0.49,-0.23
2024-12-06 12:40:40.862,2.47,483.0,0.87,0.47,0.0,-0.02,0.49,-0.29
2024-12-06 12:40:40.877,-2.02,481.0,0.87,0.47,0.0,0.04,0.49,-0.36
2024-12-06 12:40:40.880,3.38,503.0,0.87,0.47,0.0,0.04,0.49,-0.42
2024-12-06 12:40:40.882,5.17,498.0,0.87,0.47,0.0,0.04,0.49,-0.42
2024-12-06 12:40:40.895,-3.82,482.0,0.87,0.47,0.0,0.1,0.49,-0.48
2024-12-06 12:40:40.897,-2.92,474.0,0.87,0.47,0.0,0.16,0.68,-0.48
2024-12-06 12:40:40.905,2.47,479.0,0.87,0.47,0.0,0.22,0.74,-0.48
2024-12-06 12:40:41.957,0.45,485.0,0.86,0.48,-0.0,0.34,0.13,-1.21
2024-12-06 12:40:41.959,2.7,474.0,0.87,0.48,-0.0,0.34,0.13,-1.15
2024-12-06 12:40:41.976,-1.8,468.0,0.87,0.48,-0.0,0.34,0.0,-1.15
2024-12-06 12:40:41.995,0.67,467.0,0.87,0.48,0.0,0.34,-0.18,-1.21
2024-12-06 12:40:42.22,4.05,493.0,0.86,0.48,-0.0,0.47,-0.18,-1.58
2024-12-06 12:40:42.52,2.25,484.0,0.79,0.45,-0.01,0.71,-1.89,-5.91
2024-12-06 12:40:42.108,4.05,490.0,0.81,0.47,0.0,0.89,-2.07,-12.5
2024-12-06 12:40:42.110,5.17,468.0,0.82,0.49,-0.02,2.24,0.92,-14.21
2024-12-06 12:40:42.135,5.62,492.0,0.84,0.5,-0.01,2.17,2.51,-13.23
2024-12-06 12:40:42.163,9.45,481.0,0.88,0.51,-0.01,1.69,0.92,-13.36
2024-12-06 12:40:42.212,8.32,480.0,0.9,0.52,-0.01,1.75,0.0,-13.42
2024-12-06 12:40:42.217,13.5,496.0,0.86,0.5,0.0,1.26,-0.42,-12.2
2024-12-06 12:40:42.244,10.12,476.0,0.84,0.5,-0.0,1.32,-0.42,-13.11
2024-12-06 12:40:42.272,14.17,478.0,0.84,0.52,-0.01,1.14,-0.42,-12.14
2024-12-06 12:40:42.315,13.5,535.0,0.81,0.52,-0.01,0.34,-0.54,-13.78
2024-12-06 12:40:42.327,13.5,486.0,0.81,0.52,-0.01,0.04,0.62,-15.07
2024-12-06 12:40:42.356,14.4,494.0,0.82,0.54,-0.01,0.47,1.77,-14.39
2024-12-06 12:40:42.388,17.32,474.0,0.81,0.55,-0.01,0.71,2.39,-14.7
2024-12-06 12:40:42.434,18.0,482.0,0.84,0.57,-0.02,0.47,2.45,-14.27
2024-12-06 12:40:42.441,16.42,487.0,0.85,0.57,-0.02,0.65,1.9,-12.2
2024-12-06 12:40:42.465,16.88,486.0,0.83,0.57,-0.0,1.32,0.98,-10.98
2024-12-06 12:40:42.499,21.15,477.0,0.83,0.59,0.0,1.5,1.04,-9.57
2024-12-06 12:40:42.540,22.05,479.0,0.81,0.59,-0.02,2.17,1.65,-8.53
2024-12-06 12:40:42.552,22.5,493.0,0.83,0.6,-0.01,2.42,1.53,-7.13
2024-12-06 12:40:42.575,25.65,488.0,0.79,0.59,-0.02,2.36,0.68,-6.03
2024-12-06 12:40:42.604,25.88,484.0,0.81,0.6,-0.01,2.24,1.29,-6.4
2024-12-06 12:40:42.699,24.97,498.0,0.79,0.59,-0.0,2.05,1.04,-5.12
2024-12-06 12:40:42.703,24.07,496.0,0.79,0.58,-0.01,1.56,1.41,-5.79
2024-12-06 12:40:42.715,24.3,507.0,0.79,0.59,0.0,1.2,1.59,-5.67
2024-12-06 12:40:42.742,28.57,490.0,0.78,0.59,0.0,0.89,1.96,-5.91
2024-12-06 12:40:42.825,31.5,499.0,0.8,0.59,-0.0,0.65,0.86,-7.37
2024-12-06 12:40:42.827,35.1,508.0,0.8,0.6,0.01,-0.02,-0.06,-7.92
2024-12-06 12:40:42.851,35.77,498.0,0.8,0.61,0.01,-1.06,-0.24,-6.64
2024-12-06 12:40:42.882,36.67,488.0,0.79,0.6,-0.0,-1.73,-0.24,-6.52
2024-12-06 12:40:42.911,36.45,491.0,0.8,0.59,-0.0,-2.1,-0.67,-6.22
2024-12-06 12:40:42.934,38.47,481.0,0.79,0.6,0.01,-2.71,-1.46,-5.85
2024-12-06 12:40:42.961,39.6,489.0,0.77,0.59,0.0,-2.95,-1.77,-7.86
2024-12-06 12:40:42.994,40.27,478.0,0.79,0.61,0.0,-1.92,-1.77,-8.11
2024-12-06 12:40:43.19,39.83,492.0,0.79,0.62,0.0,-1.92,-1.89,-7.19
2024-12-06 12:40:43.47,40.5,495.0,0.79,0.62,0.0,-2.65,-2.01,-6.4
2024-12-06 12:40:43.73,43.2,497.0,0.78,0.64,-0.01,-2.83,-2.07,-5.54
2024-12-06 12:40:43.100,45.0,488.0,0.78,0.63,0.0,-2.89,-2.01,-4.38
2024-12-06 12:40:43.129,43.65,483.0,0.77,0.63,-0.0,-2.53,-2.01,-4.08
2024-12-06 12:40:43.159,46.8,489.0,0.77,0.62,-0.0,-2.4,-2.07,-4.75
2024-12-06 12:40:43.184,46.35,500.0,0.78,0.63,-0.0,-1.79,-3.05,-4.51
2024-12-06 12:40:43.259,51.52,505.0,0.77,0.63,0.01,-1.61,-2.74,-4.81
2024-12-06 12:40:43.263,51.3,491.0,0.77,0.65,0.0,-2.1,-2.5,-3.22
2024-12-06 12:40:43.266,51.97,489.0,0.75,0.63,-0.01,-2.95,-2.62,-3.47
2024-12-06 12:40:43.302,48.6,543.0,0.77,0.63,-0.0,-3.69,-3.35,-3.1
2024-12-06 12:40:43.325,55.12,489.0,0.73,0.62,0.0,-3.81,-2.99,-2.74
2024-12-06 12:40:43.348,53.77,504.0,0.75,0.62,-0.0,-3.44,-2.5,-3.77
2024-12-06 12:40:43.382,50.4,510.0,0.77,0.64,-0.0,-3.56,-2.62,-2.8
2024-12-06 12:40:43.411,54.22,497.0,0.75,0.63,-0.01,-3.69,-3.54,-4.69
2024-12-06 12:40:43.448,57.38,507.0,0.77,0.66,-0.0,-3.69,-3.84,-3.29
2024-12-06 12:40:43.459,60.07,510.0,0.74,0.65,-0.0,-3.32,-3.23,-2.49
2024-12-06 12:40:43.488,60.97,527.0,0.76,0.65,-0.01,-3.14,-2.99,-3.04
2024-12-06 12:40:43.514,59.62,500.0,0.76,0.65,-0.02,-2.95,-3.11,-1.39
2024-12-06 12:40:43.543,61.42,507.0,0.75,0.63,-0.01,-2.34,-3.35,-1.94
2024-12-06 12:40:43.570,56.7,518.0,0.78,0.64,-0.0,-1.43,-3.96,-2.37
2024-12-06 12:40:43.597,62.77,505.0,0.76,0.64,-0.01,-0.45,-3.35,-2.06
2024-12-06 12:40:43.625,63.9,525.0,0.76,0.64,-0.01,-0.02,-3.17,-2.74
2024-12-06 12:40:43.777,60.97,533.0,0.76,0.67,-0.01,-0.63,-2.86,-0.66
2024-12-06 12:40:43.782,63.45,524.0,0.74,0.63,-0.0,-1.06,-2.8,-3.35
2024-12-06 12:40:43.790,69.3,531.0,0.75,0.64,-0.01,-1.3,-2.8,-3.41
2024-12-06 12:40:43.817,69.97,529.0,0.74,0.64,0.0,-1.79,-2.5,-3.1
2024-12-06 12:40:43.845,70.42,552.0,0.74,0.65,-0.01,-2.28,-2.74,-3.59
2024-12-06 12:40:43.900,69.53,569.0,0.75,0.66,-0.01,-2.53,-2.62,-3.1
2024-12-06 12:40:43.909,73.35,552.0,0.75,0.65,-0.02,-2.34,-3.05,-2.43
2024-12-06 12:40:43.937,70.42,546.0,0.75,0.66,-0.02,-2.46,-3.29,-2.8
2024-12-06 12:40:43.961,71.55,574.0,0.76,0.65,-0.01,-2.34,-3.29,-2.68
2024-12-06 12:40:43.995,77.17,538.0,0.75,0.66,-0.02,-2.16,-2.8,-2.31
2024-12-06 12:40:44.11,71.78,549.0,0.74,0.65,-0.02,-2.04,-2.31,-1.64
2024-12-06 12:40:44.42,78.3,564.0,0.75,0.63,-0.02,-2.4,-2.74,-1.33
2024-12-06 12:40:44.65,73.35,559.0,0.8,0.65,0.0,-1.98,-2.19,-1.52
2024-12-06 12:40:44.94,76.05,561.0,0.76,0.66,-0.01,-1.92,-2.86,-0.91
2024-12-06 12:40:44.130,81.45,571.0,0.75,0.68,-0.02,-2.4,-4.45,-0.54
2024-12-06 12:40:44.151,80.32,555.0,0.75,0.65,-0.02,-1.98,-4.88,0.32
2024-12-06 12:40:44.175,80.32,566.0,0.75,0.65,-0.01,-1.85,-5.12,1.11
2024-12-06 12:40:44.205,78.53,579.0,0.74,0.66,-0.01,-1.55,-4.88,0.86
2024-12-06 12:40:44.232,82.57,554.0,0.74,0.66,-0.02,-1.67,-5.61,-0.11
2024-12-06 12:40:44.259,79.42,580.0,0.74,0.63,-0.02,-1.79,-5.98,-1.33
2024-12-06 12:40:44.287,82.8,578.0,0.75,0.65,-0.02,-1.98,-6.77,-1.58
2024-12-06 12:40:45.601,88.2,568.0,0.76,0.63,-0.04,1.32,-0.3,-1.15
2024-12-06 12:40:45.606,85.5,588.0,0.76,0.63,-0.04,1.32,-0.36,-1.03
2024-12-06 12:40:45.617,88.42,568.0,0.76,0.63,-0.04,1.32,-0.36,-0.84
2024-12-06 12:40:45.622,83.47,587.0,0.76,0.63,-0.04,1.32,-0.36,-0.84
2024-12-06 12:40:45.627,87.75,580.0,0.76,0.63,-0.04,1.26,-0.36,-0.66
2024-12-06 12:40:45.638,88.42,588.0,0.76,0.63,-0.04,1.26,-0.42,-0.54
2024-12-06 12:40:45.643,83.47,579.0,0.76,0.63,-0.04,1.26,-0.42,-0.42
2024-12-06 12:40:45.651,87.07,583.0,0.76,0.63,-0.04,1.2,-0.3,-0.42
2024-12-06 12:40:45.658,86.4,590.0,0.76,0.63,-0.04,1.14,-0.24,-0.48
2024-12-06 12:40:45.667,86.62,573.0,0.76,0.63,-0.04,1.14,-0.24,-0.48
2024-12-06 12:40:45.675,82.57,579.0,0.76,0.63,-0.04,1.14,-0.24,-0.48
2024-12-06 12:40:45.713,83.47,575.0,0.76,0.62,-0.05,1.08,-0.54,-0.78
2024-12-06 12:40:45.716,87.07,569.0,0.76,0.63,-0.04,1.14,-0.54,-0.78
2024-12-06 12:40:45.722,88.65,572.0,0.75,0.63,-0.04,1.08,-0.54,-0.97
2024-12-06 12:40:45.736,87.07,577.0,0.75,0.63,-0.04,1.01,-0.36,-1.15
2024-12-06 12:40:45.740,87.07,596.0,0.75,0.63,-0.04,0.95,-0.18,-1.39
2024-12-06 12:40:45.744,81.9,599.0,0.75,0.63,-0.04,0.89,-0.06,-1.52
2024-12-06 12:40:45.752,81.9,575.0,0.75,0.63,-0.04,0.89,-0.06,-1.52
2024-12-06 12:40:45.759,85.05,581.0,0.75,0.63,-0.04,0.89,-0.06,-1.58
2024-12-06 12:40:45.773,83.92,591.0,0.76,0.63,-0.05,0.89,-0.06,-1.58
2024-12-06 12:40:45.777,86.85,593.0,0.76,0.63,-0.05,0.89,-0.12,-1.58
2024-12-06 12:40:45.932,83.03,613.0,0.76,0.63,-0.05,0.59,-0.61,-1.33
2024-12-06 12:40:45.935,85.95,571.0,0.76,0.63,-0.05,0.59,-0.61,-1.27
2024-12-06 12:40:45.944,87.75,576.0,0.76,0.63,-0.05,0.59,-0.67,-1.21
2024-12-06 12:40:45.961,87.52,579.0,0.76,0.64,-0.05,0.65,-0.73,-1.15
2024-12-06 12:40:45.965,83.7,586.0,0.76,0.63,-0.05,0.65,-0.73,-1.03
2024-12-06 12:40:45.974,84.15,580.0,0.75,0.64,-0.05,0.59,-0.67,-1.03
2024-12-06 12:40:45.981,82.12,571.0,0.75,0.64,-0.05,0.59,-0.61,-0.91
2024-12-06 12:40:45.989,86.85,570.0,0.75,0.64,-0.05,0.59,-0.61,-0.84
2024-12-06 12:40:45.997,88.42,580.0,0.75,0.64,-0.05,0.65,-0.54,-0.84
2024-12-06 12:40:46.12,87.52,589.0,0.75,0.64,-0.05,0.65,-0.48,-0.84
2024-12-06 12:40:46.25,88.65,590.0,0.75,0.64,-0.05,0.71,-0.42,-0.84
2024-12-06 12:40:46.31,87.75,590.0,0.75,0.64,-0.05,0.71,-0.3,-1.03
2024-12-06 12:40:46.60,88.42,575.0,0.75,0.63,-0.05,0.71,-0.3,-1.15
2024-12-06 12:40:46.63,86.17,574.0,0.75,0.63,-0.05,0.47,-0.36,-1.33
2024-12-06 12:40:46.66,84.6,595.0,0.75,0.63,-0.05,0.4,-0.3,-1.39
2024-12-06 12:40:46.74,88.65,588.0,0.75,0.64,-0.04,0.34,-0.24,-1.45
2024-12-06 12:40:46.85,83.7,577.0,0.75,0.64,-0.04,0.34,-0.24,-1.45
2024-12-06 12:40:46.89,81.0,581.0,0.74,0.64,-0.04,0.34,-0.06,-1.52
2024-12-06 12:40:46.101,86.85,571.0,0.74,0.64,-0.04,0.28,0.19,-1.58
2024-12-06 12:40:46.111,89.1,574.0,0.75,0.64,-0.04,0.22,0.37,-1.64
2024-12-06 12:40:46.115,87.07,587.0,0.75,0.64,-0.04,0.1,0.43,-1.76
2024-12-06 12:40:46.121,86.85,577.0,0.75,0.64,-0.04,0.04,0.43,-1.82
2024-12-06 12:40:46.153,81.0,578.0,0.75,0.64,-0.05,0.04,0.43,-1.82
2024-12-06 12:40:46.156,86.17,602.0,0.76,0.63,-0.05,0.1,0.07,-1.7
2024-12-06 12:40:46.160,82.12,563.0,0.76,0.63,-0.05,0.16,-0.06,-1.58
2024-12-06 12:40:46.176,83.03,577.0,0.76,0.63,-0.05,0.16,-0.06,-1.58
2024-12-06 12:40:46.181,84.38,581.0,0.76,0.63,-0.05,0.16,-0.18,-1.45
2024-12-06 12:40:46.187,88.2,589.0,0.76,0.64,-0.05,0.1,-0.12,-1.39
2024-12-06 12:40:46.191,85.28,590.0,0.76,0.64,-0.05,0.1,-0.06,-1.45
2024-12-06 12:40:46.205,87.3,581.0,0.76,0.64,-0.05,0.16,-0.06,-1.39
2024-12-06 12:40:46.210,87.75,567.0,0.76,0.64,-0.05,0.22,0.0,-1.33
2024-12-06 12:40:46.213,82.12,576.0,0.76,0.64,-0.05,0.22,0.0,-1.33
2024-12-06 12:40:46.222,87.75,570.0,0.76,0.64,-0.05,0.16,0.0,-1.27
2024-12-06 12:40:46.259,85.95,576.0,0.76,0.64,-0.05,0.04,-0.18,-1.03
2024-12-06 12:40:46.266,86.4,579.0,0.76,0.64,-0.05,0.04,-0.12,-0.97
2024-12-06 12:40:46.269,88.42,586.0,0.75,0.64,-0.05,0.04,-0.18,-0.97
2024-12-06 12:40:46.275,83.92,594.0,0.75,0.64,-0.05,0.04,-0.24,-0.91
2024-12-06 12:40:46.285,85.72,570.0,0.75,0.64,-0.05,0.04,-0.3,-0.91
2024-12-06 12:40:46.297,84.38,586.0,0.75,0.64,-0.05,0.04,-0.24,-0.97
2024-12-06 12:40:46.300,83.7,589.0,0.75,0.64,-0.05,-0.02,-0.24,-0.97
2024-12-06 12:40:46.307,87.52,590.0,0.75,0.64,-0.05,-0.02,-0.18,-0.97
2024-12-06 12:40:46.320,85.05,582.0,0.75,0.64,-0.05,0.04,-0.12,-0.97
2024-12-06 12:40:46.322,86.17,587.0,0.75,0.64,-0.05,0.04,0.0,-0.97
2024-12-06 12:40:46.330,87.3,574.0,0.75,0.64,-0.05,0.04,0.13,-1.03
2024-12-06 12:40:46.339,86.62,589.0,0.75,0.64,-0.05,0.04,0.13,-1.03
2024-12-06 12:40:46.344,87.75,592.0,0.75,0.64,-0.05,-0.02,0.25,-1.03
2024-12-06 12:40:46.354,82.12,584.0,0.75,0.64,-0.05,-0.02,0.37,-0.91
2024-12-06 12:40:46.364,84.82,572.0,0.76,0.64,-0.05,-0.02,0.43,-0.78
2024-12-06 12:40:46.425,86.85,573.0,0.76,0.63,-0.05,-0.21,0.31,-0.42
2024-12-06 12:40:46.430,83.7,567.0,0.76,0.63,-0.05,-0.21,0.31,-0.42
2024-12-06 12:40:46.435,87.97,595.0,0.76,0.64,-0.04,-0.21,0.37,-0.42
2024-12-06 12:40:46.443,86.17,570.0,0.76,0.64,-0.04,-0.21,0.49,-0.42
2024-12-06 12:40:46.463,85.95,592.0,0.76,0.64,-0.04,-0.21,0.55,-0.48
2024-12-06 12:40:46.468,88.65,586.0,0.76,0.64,-0.04,-0.15,0.68,-0.54
2024-12-06 12:40:46.482,85.72,573.0,0.76,0.64,-0.05,-0.15,0.62,-0.66
2024-12-06 12:40:46.487,86.85,564.0,0.76,0.64,-0.05,-0.21,0.49,-0.72
2024-12-06 12:40:46.489,84.82,569.0,0.76,0.64,-0.05,-0.27,0.37,-0.78
2024-12-06 12:40:46.500,84.38,599.0,0.76,0.63,-0.05,-0.27,0.37,-0.72
2024-12-06 12:40:46.506,88.65,600.0,0.76,0.63,-0.05,-0.33,0.13,-0.72
2024-12-06 12:40:46.516,84.82,570.0,0.76,0.63,-0.05,-0.45,0.13,-0.72
2024-12-06 12:40:46.522,86.85,578.0,0.76,0.63,-0.05,-0.45,0.13,-0.66
2024-12-06 12:40:46.534,87.97,568.0,0.76,0.63,-0.04,-0.57,0.19,-0.6
2024-12-06 12:40:46.539,84.6,575.0,0.76,0.63,-0.04,-0.69,0.25,-0.48
2024-12-06 12:40:46.546,85.05,578.0,0.76,0.63,-0.04,-0.69,0.25,-0.48
2024-12-06 12:40:46.555,89.32,584.0,0.76,0.64,-0.04,-0.63,0.31,-0.42
2024-12-06 12:40:46.568,88.65,597.0,0.76,0.64,-0.04,-0.63,0.37,-0.48
2024-12-06 12:40:46.572,81.22,578.0,0.76,0.64,-0.05,-0.63,0.31,-0.48
2024-12-06 12:40:46.579,82.8,586.0,0.76,0.64,-0.05,-0.57,0.19,-0.48
2024-12-06 12:40:46.609,86.17,571.0,0.76,0.63,-0.05,-0.88,-0.18,-0.72
2024-12-06 12:40:46.619,87.52,571.0,0.76,0.63,-0.05,-0.94,-0.3,-0.78
2024-12-06 12:40:46.625,86.4,575.0,0.76,0.64,-0.05,-1.0,-0.36,-0.91
2024-12-06 12:40:46.640,85.95,570.0,0.75,0.63,-0.04,-1.0,-0.36,-0.91
2024-12-06 12:40:46.660,81.67,571.0,0.75,0.64,-0.04,-1.06,-0.42,-0.91
2024-12-06 12:40:46.663,81.67,571.0,0.75,0.63,-0.04,-1.06,-0.3,-0.84
2024-12-06 12:40:46.667,86.85,576.0,0.75,0.63,-0.04,-1.06,-0.3,-0.84
2024-12-06 12:40:46.679,86.4,574.0,0.75,0.63,-0.04,-1.06,-0.24,-0.78
2024-12-06 12:40:46.691,85.95,571.0,0.76,0.64,-0.04,-1.06,-0.18,-0.66
2024-12-06 12:40:46.705,84.82,585.0,0.76,0.64,-0.04,-1.12,-0.12,-0.6
2024-12-06 12:40:46.708,85.95,586.0,0.76,0.64,-0.04,-1.12,0.0,-0.6
2024-12-06 12:40:46.714,87.75,574.0,0.76,0.64,-0.04,-1.12,0.0,-0.6
2024-12-06 12:40:46.721,85.95,587.0,0.76,0.64,-0.04,-1.12,0.13,-0.66
2024-12-06 12:40:46.729,87.75,566.0,0.76,0.64,-0.04,-1.12,0.25,-0.66
2024-12-06 12:40:46.742,87.75,588.0,0.76,0.64,-0.04,-1.06,0.25,-0.72
2024-12-06 12:40:46.745,86.62,572.0,0.76,0.64,-0.04,-1.06,0.19,-0.66
2024-12-06 12:40:46.759,81.45,592.0,0.76,0.64,-0.04,-1.06,0.13,-0.6
2024-12-06 12:40:46.766,84.6,586.0,0.76,0.63,-0.05,-1.06,0.13,-0.6
2024-12-06 12:40:46.775,86.17,569.0,0.76,0.63,-0.05,-1.0,0.0,-0.42
2024-12-06 12:40:46.781,83.03,567.0,0.76,0.63,-0.05,-1.0,0.0,-0.29
2024-12-06 12:40:46.792,84.15,572.0,0.76,0.63,-0.04,-0.94,0.07,-0.23
2024-12-06 12:40:46.802,85.5,590.0,0.76,0.64,-0.04,-0.88,0.19,-0.11
2024-12-06 12:40:46.948,85.72,577.0,0.76,0.64,-0.04,-0.76,0.37,-0.05
2024-12-06 12:40:46.960,85.28,575.0,0.76,0.63,-0.04,0.53,-0.24,0.19
2024-12-06 12:40:46.979,85.95,606.0,0.76,0.63,-0.04,0.47,-0.18,0.25
2024-12-06 12:40:46.982,87.97,567.0,0.76,0.63,-0.04,0.47,-0.18,0.32
2024-12-06 12:40:46.995,87.07,572.0,0.76,0.63,-0.04,0.47,-0.12,0.32
2024-12-06 12:40:46.998,85.72,579.0,0.76,0.63,-0.04,0.47,-0.12,0.38
2024-12-06 12:40:47.7,87.07,568.0,0.76,0.63,-0.04,0.4,-0.06,0.38
2024-12-06 12:40:47.14,88.2,582.0,0.76,0.63,-0.04,0.34,-0.06,0.38
2024-12-06 12:40:47.28,85.72,543.0,0.76,0.63,-0.04,0.28,-0.18,0.38
2024-12-06 12:40:47.32,82.57,573.0,0.76,0.63,-0.04,0.28,-0.24,0.32
2024-12-06 12:40:47.50,82.8,570.0,0.76,0.63,-0.04,0.28,-0.36,0.25
2024-12-06 12:40:47.57,84.15,565.0,0.76,0.63,-0.04,0.22,-0.42,0.19
2024-12-06 12:40:47.89,88.65,570.0,0.76,0.63,-0.04,0.22,-0.48,0.07
2024-12-06 12:40:47.92,88.88,579.0,0.76,0.63,-0.04,0.16,-0.18,-0.11
2024-12-06 12:40:47.101,86.17,563.0,0.76,0.63,-0.04,0.1,-0.18,-0.11
2024-12-06 12:40:47.114,84.82,574.0,0.76,0.63,-0.04,0.04,-0.12,-0.11
2024-12-06 12:40:47.119,84.38,565.0,0.76,0.63,-0.04,0.04,-0.12,-0.11
2024-12-06 12:40:47.123,86.17,599.0,0.76,0.63,-0.04,-0.08,0.0,-0.11
2024-12-06 12:40:47.129,88.2,569.0,0.76,0.63,-0.04,-0.08,0.0,-0.11
2024-12-06 12:40:47.144,85.28,593.0,0.76,0.63,-0.04,-0.08,0.0,-0.11
2024-12-06 12:40:47.147,84.15,569.0,0.76,0.63,-0.04,-0.08,0.07,-0.11
2024-12-06 12:40:47.152,90.0,584.0,0.76,0.63,-0.04,-0.08,0.13,-0.17
2024-12-06 12:40:47.160,88.65,571.0,0.76,0.63,-0.04,-0.08,0.25,-0.36
2024-12-06 12:40:47.169,87.07,582.0,0.76,0.63,-0.04,-0.08,0.37,-0.54
2024-12-06 12:40:47.176,83.47,572.0,0.76,0.63,-0.04,-0.08,0.37,-0.54
2024-12-06 12:40:47.185,84.38,575.0,0.76,0.63,-0.04,0.04,0.37,-0.54
2024-12-06 12:40:47.191,86.85,569.0,0.77,0.63,-0.05,0.1,0.31,-0.6
2024-12-06 12:40:47.201,83.03,575.0,0.77,0.63,-0.05,0.16,0.25,-0.54
2024-12-06 12:40:47.213,85.95,585.0,0.77,0.63,-0.05,0.16,0.13,-0.48
2024-12-06 12:40:47.222,88.42,571.0,0.77,0.63,-0.05,0.22,-0.06,-0.29
2024-12-06 12:40:47.226,87.3,580.0,0.77,0.63,-0.05,0.22,-0.06,-0.29
2024-12-06 12:40:47.230,88.65,575.0,0.76,0.63,-0.04,0.34,-0.12,-0.11
2024-12-06 12:40:47.240,86.4,580.0,0.76,0.63,-0.05,0.47,-0.12,-0.05
2024-12-06 12:40:47.293,85.5,564.0,0.76,0.63,-0.05,0.47,-0.12,-0.17
2024-12-06 12:40:47.295,83.47,570.0,0.76,0.63,-0.05,0.65,-0.36,-0.91
2024-12-06 12:40:47.302,85.95,551.0,0.76,0.62,-0.05,0.65,-0.36,-0.91
2024-12-06 12:40:47.314,85.5,580.0,0.76,0.62,-0.05,0.65,-0.42,-0.91
2024-12-06 12:40:47.317,83.7,570.0,0.76,0.63,-0.05,0.53,-0.42,-0.91
2024-12-06 12:40:47.322,85.72,566.0,0.75,0.63,-0.04,0.47,-0.42,-0.97
2024-12-06 12:40:47.337,85.95,585.0,0.75,0.63,-0.04,0.4,-0.3,-0.97
2024-12-06 12:40:47.341,88.65,563.0,0.75,0.63,-0.04,0.4,-0.12,-0.97
2024-12-06 12:40:47.345,82.8,571.0,0.76,0.63,-0.04,0.4,-0.12,-0.97
2024-12-06 12:40:47.353,85.95,581.0,0.76,0.63,-0.04,0.34,0.0,-1.03
2024-12-06 12:40:47.368,89.1,589.0,0.76,0.63,-0.04,0.34,0.07,-0.97
2024-12-06 12:40:47.370,86.85,578.0,0.76,0.63,-0.04,0.4,0.0,-1.03
2024-12-06 12:40:47.376,84.15,568.0,0.76,0.63,-0.04,0.34,0.0,-1.09
2024-12-06 12:40:47.391,86.4,578.0,0.76,0.63,-0.04,0.34,0.0,-1.09
2024-12-06 12:40:47.394,85.95,575.0,0.76,0.63,-0.04,0.4,-0.06,-1.21
2024-12-06 12:40:47.404,87.07,575.0,0.76,0.63,-0.05,0.4,-0.12,-1.27
2024-12-06 12:40:47.412,86.4,565.0,0.76,0.63,-0.05,0.4,-0.12,-1.39
2024-12-06 12:40:47.415,84.38,567.0,0.76,0.63,-0.05,0.47,-0.12,-1.45
2024-12-06 12:40:47.425,83.92,566.0,0.76,0.63,-0.05,0.59,-0.12,-1.39
2024-12-06 12:40:47.434,86.62,568.0,0.76,0.63,-0.05,0.59,-0.12,-1.39
2024-12-06 12:40:47.441,83.7,574.0,0.76,0.63,-0.05,0.65,-0.06,-1.39
2024-12-06 12:40:47.448,87.07,572.0,0.76,0.63,-0.04,0.65,0.07,-1.39
2024-12-06 12:40:47.457,88.42,571.0,0.76,0.63,-0.04,0.65,0.13,-1.33
2024-12-06 12:40:47.465,87.75,576.0,0.76,0.63,-0.04,0.59,0.13,-1.21
2024-12-06 12:40:47.482,82.12,587.0,0.76,0.63,-0.04,0.53,0.13,-1.09
2024-12-06 12:40:47.516,86.85,580.0,0.76,0.62,-0.04,0.53,0.07,-1.03
2024-12-06 12:40:47.521,86.4,580.0,0.76,0.63,-0.04,0.53,0.25,-1.27
2024-12-06 12:40:47.526,80.1,565.0,0.76,0.64,-0.04,0.53,0.43,-1.45
2024-12-06 12:40:47.536,83.47,567.0,0.76,0.64,-0.04,0.53,0.62,-1.58
2024-12-06 12:40:47.541,86.85,577.0,0.76,0.63,-0.04,0.65,0.62,-1.7
2024-12-06 12:40:47.549,83.47,574.0,0.76,0.63,-0.04,0.65,0.49,-1.76
2024-12-06 12:40:47.555,86.85,580.0,0.76,0.63,-0.05,0.71,0.37,-1.76
2024-12-06 12:40:47.563,87.3,574.0,0.77,0.63,-0.05,0.71,0.37,-1.76
2024-12-06 12:40:47.573,85.05,603.0,0.77,0.63,-0.05,0.83,0.19,-1.7
2024-12-06 12:40:47.669,86.4,584.0,0.76,0.63,-0.05,0.95,-0.24,-1.58
2024-12-06 12:40:47.689,83.47,576.0,0.76,0.63,-0.05,0.95,-0.24,-1.52
2024-12-06 12:40:47.693,81.22,577.0,0.76,0.63,-0.05,0.89,-0.24,-1.45
2024-12-06 12:40:47.752,85.5,587.0,0.76,0.63,-0.05,0.89,-0.18,-1.33
2024-12-06 12:40:47.757,85.05,566.0,0.76,0.63,-0.05,0.89,-0.3,-1.52
2024-12-06 12:40:47.760,85.72,576.0,0.76,0.63,-0.04,0.89,-0.3,-1.52
2024-12-06 12:40:47.773,84.15,575.0,0.76,0.63,-0.04,0.89,-0.3,-1.52
2024-12-06 12:40:47.778,84.15,567.0,0.76,0.63,-0.04,0.83,-0.3,-1.39
2024-12-06 12:40:47.784,81.67,570.0,0.76,0.63,-0.04,0.89,-0.3,-1.33
2024-12-06 12:40:47.798,84.82,578.0,0.76,0.63,-0.04,0.95,-0.18,-1.33
2024-12-06 12:40:47.801,85.95,569.0,0.76,0.63,-0.05,1.01,-0.06,-1.39
2024-12-06 12:40:47.812,82.57,589.0,0.76,0.63,-0.05,1.01,-0.06,-1.39
2024-12-06 12:40:47.832,85.5,565.0,0.76,0.63,-0.05,1.08,0.07,-1.45
2024-12-06 12:40:47.842,85.95,596.0,0.76,0.63,-0.05,1.08,0.0,-1.39
2024-12-06 12:40:47.847,86.85,567.0,0.76,0.63,-0.05,1.01,-0.06,-1.33
2024-12-06 12:40:47.849,85.95,588.0,0.76,0.63,-0.05,1.01,-0.06,-1.33
2024-12-06 12:40:47.854,83.92,638.0,0.76,0.63,-0.05,0.95,-0.12,-1.33
2024-12-06 12:40:47.975,87.07,593.0,0.76,0.63,-0.05,1.32,-0.42,-1.7
2024-12-06 12:40:47.983,83.25,586.0,0.76,0.64,-0.05,1.26,-0.42,-1.7
2024-12-06 12:40:47.991,86.4,592.0,0.76,0.64,-0.05,1.26,-0.48,-1.7
2024-12-06 12:40:47.999,84.82,591.0,0.76,0.64,-0.05,1.38,-0.48,-1.7
2024-12-06 12:40:48.7,88.65,590.0,0.76,0.63,-0.05,1.38,-0.48,-1.7
2024-12-06 12:40:48.14,87.07,586.0,0.76,0.63,-0.05,1.44,-0.54,-1.76
2024-12-06 12:40:48.25,85.05,578.0,0.76,0.63,-0.05,1.44,-0.54,-1.76
2024-12-06 12:40:48.33,86.62,582.0,0.76,0.63,-0.05,1.32,-0.42,-1.82
2024-12-06 12:40:48.38,86.62,579.0,0.76,0.63,-0.05,1.14,-0.36,-1.76
2024-12-06 12:40:48.46,86.17,582.0,0.76,0.63,-0.05,0.89,-0.36,-1.82
2024-12-06 12:40:48.54,86.17,580.0,0.76,0.64,-0.05,0.89,-0.36,-1.82
2024-12-06 12:40:48.68,82.57,569.0,0.76,0.63,-0.05,0.77,-0.42,-1.82
2024-12-06 12:40:48.70,83.25,580.0,0.76,0.63,-0.05,0.71,-0.48,-1.76
2024-12-06 12:40:48.82,86.17,587.0,0.76,0.63,-0.05,0.71,-0.54,-1.7
2024-12-06 12:40:48.87,83.7,575.0,0.76,0.63,-0.05,0.77,-0.67,-1.7
2024-12-06 12:40:48.100,85.72,576.0,0.76,0.63,-0.05,0.77,-0.67,-1.64
2024-12-06 12:40:48.106,80.78,624.0,0.76,0.63,-0.05,0.77,-0.67,-1.64
2024-12-06 12:40:48.109,86.4,608.0,0.76,0.63,-0.05,0.83,-0.73,-1.58
2024-12-06 12:40:48.116,86.62,576.0,0.76,0.63,-0.05,0.83,-0.73,-1.52
2024-12-06 12:40:48.124,83.92,576.0,0.75,0.63,-0.05,0.77,-0.73,-1.45
2024-12-06 12:40:48.132,83.47,574.0,0.75,0.63,-0.05,0.65,-0.61,-1.45
2024-12-06 12:40:48.148,82.12,578.0,0.75,0.63,-0.05,0.53,-0.54,-1.39
2024-12-06 12:40:48.152,88.2,589.0,0.75,0.63,-0.05,0.53,-0.54,-1.39
2024-12-06 12:40:48.215,83.47,586.0,0.76,0.64,-0.05,0.47,-0.36,-1.27
2024-12-06 12:40:48.221,87.3,568.0,0.75,0.63,-0.05,0.22,-0.36,-1.15
2024-12-06 12:40:48.224,86.62,582.0,0.75,0.64,-0.05,0.22,-0.36,-1.15
2024-12-06 12:40:48.243,83.7,589.0,0.75,0.64,-0.05,0.16,-0.36,-1.09
2024-12-06 12:40:48.260,83.47,586.0,0.75,0.64,-0.05,0.28,-0.12,-1.21
2024-12-06 12:40:48.272,89.1,568.0,0.75,0.64,-0.06,0.34,0.07,-1.33
2024-12-06 12:40:48.280,87.3,584.0,0.76,0.64,-0.06,0.34,0.07,-1.33
2024-12-06 12:40:48.297,84.38,589.0,0.76,0.63,-0.06,0.47,-0.12,-1.09
2024-12-06 12:40:48.301,88.42,608.0,0.76,0.63,-0.06,0.47,-0.3,-0.97
2024-12-06 12:40:48.311,83.7,586.0,0.76,0.63,-0.06,0.47,-0.3,-0.97
2024-12-06 12:40:48.319,86.17,583.0,0.76,0.63,-0.06,0.4,-0.42,-0.91
2024-12-06 12:40:48.331,83.25,583.0,0.76,0.64,-0.05,0.28,-0.36,-0.91
2024-12-06 12:40:48.334,86.62,601.0,0.76,0.64,-0.05,0.22,-0.36,-0.84
2024-12-06 12:40:48.356,87.07,576.0,0.76,0.64,-0.05,0.28,-0.3,-0.84
2024-12-06 12:40:48.364,81.67,593.0,0.75,0.64,-0.05,0.34,-0.24,-0.91
2024-12-06 12:40:48.370,87.75,620.0,0.75,0.64,-0.06,0.4,-0.18,-0.97
2024-12-06 12:40:48.376,85.72,603.0,0.75,0.63,-0.06,0.34,-0.18,-1.03
2024-12-06 12:40:48.379,86.62,576.0,0.75,0.63,-0.06,0.28,-0.18,-1.09
2024-12-06 12:40:48.388,82.57,585.0,0.75,0.63,-0.06,0.1,-0.24,-1.15
2024-12-06 12:40:48.398,85.05,592.0,0.75,0.64,-0.06,0.1,-0.24,-1.15
2024-12-06 12:40:48.401,82.35,597.0,0.75,0.64,-0.05,-0.02,-0.24,-1.15
2024-12-06 12:40:48.413,85.5,574.0,0.75,0.64,-0.05,-0.02,-0.18,-1.15
2024-12-06 12:40:48.423,88.42,604.0,0.75,0.64,-0.05,0.04,-0.24,-1.27
2024-12-06 12:40:48.429,86.62,576.0,0.75,0.64,-0.05,0.1,-0.3,-1.27
2024-12-06 12:40:48.433,83.03,579.0,0.75,0.64,-0.06,0.1,-0.3,-1.27
2024-12-06 12:40:48.443,82.57,581.0,0.75,0.64,-0.05,0.1,-0.3,-1.27
2024-12-06 12:40:48.450,84.38,596.0,0.75,0.64,-0.05,0.1,-0.3,-1.27
2024-12-06 12:40:48.456,82.35,578.0,0.75,0.64,-0.05,-0.02,-0.24,-1.27
2024-12-06 12:40:48.483,85.95,576.0,0.75,0.64,-0.05,-0.08,-0.18,-1.21
2024-12-06 12:40:48.485,84.82,593.0,0.75,0.64,-0.05,-0.08,-0.18,-1.09
2024-12-06 12:40:48.496,83.25,569.0,0.76,0.64,-0.05,-0.02,-0.12,-0.97
2024-12-06 12:40:48.507,82.57,600.0,0.76,0.64,-0.06,0.04,-0.12,-0.97
2024-12-06 12:40:48.510,87.07,577.0,0.76,0.64,-0.06,0.04,0.0,-0.97
2024-12-06 12:40:48.519,87.97,594.0,0.76,0.64,-0.06,0.04,0.0,-0.97
2024-12-06 12:40:48.533,82.8,596.0,0.76,0.64,-0.06,-0.02,0.07,-0.97
2024-12-06 12:40:48.537,83.03,586.0,0.76,0.64,-0.06,-0.02,0.13,-0.91
2024-12-06 12:40:48.540,88.65,577.0,0.76,0.63,-0.06,-0.02,0.13,-0.84
2024-12-06 12:40:48.549,82.57,610.0,0.76,0.63,-0.06,-0.08,0.07,-0.78
2024-12-06 12:40:48.559,82.57,583.0,0.75,0.63,-0.06,-0.08,0.07,-0.72
2024-12-06 12:40:48.568,86.17,581.0,0.75,0.63,-0.06,-0.08,0.07,-0.72
2024-12-06 12:40:48.571,85.72,577.0,0.75,0.63,-0.05,-0.08,0.07,-0.72
2024-12-06 12:40:48.584,83.47,594.0,0.75,0.63,-0.05,-0.08,0.19,-0.78
2024-12-06 12:40:48.591,87.3,575.0,0.75,0.64,-0.05,-0.08,0.31,-0.84
2024-12-06 12:40:48.609,86.85,589.0,0.75,0.64,-0.05,-0.08,0.43,-0.97
2024-12-06 12:40:48.637,83.03,591.0,0.76,0.64,-0.05,-0.02,0.43,-1.03
2024-12-06 12:40:48.640,85.72,567.0,0.76,0.64,-0.06,0.1,0.19,-1.15
2024-12-06 12:40:48.643,87.07,577.0,0.76,0.63,-0.06,0.1,0.0,-1.15
2024-12-06 12:40:48.648,86.62,607.0,0.76,0.63,-0.06,0.16,0.0,-1.15
2024-12-06 12:40:48.656,85.72,586.0,0.76,0.63,-0.06,0.16,-0.12,-1.15
2024-12-06 12:40:48.663,85.28,583.0,0.76,0.63,-0.06,0.16,-0.24,-1.03
2024-12-06 12:40:48.679,84.38,576.0,0.75,0.63,-0.05,0.1,-0.24,-1.03
2024-12-06 12:40:48.682,87.3,614.0,0.75,0.63,-0.05,-0.08,-0.12,-1.03
2024-12-06 12:40:48.704,87.75,597.0,0.75,0.63,-0.05,-0.08,-0.12,-1.03
2024-12-06 12:40:48.708,86.62,577.0,0.75,0.64,-0.05,-0.08,0.0,-1.15
2024-12-06 12:40:48.715,86.17,594.0,0.75,0.64,-0.05,-0.08,0.19,-1.27
2024-12-06 12:40:48.720,80.78,572.0,0.75,0.64,-0.05,-0.02,0.25,-1.39
2024-12-06 12:40:48.731,87.07,582.0,0.75,0.63,-0.05,-0.08,0.25,-1.52
2024-12-06 12:40:48.737,84.82,581.0,0.75,0.63,-0.06,-0.08,0.25,-1.52
2024-12-06 12:40:48.752,83.47,589.0,0.75,0.63,-0.06,-0.15,0.19,-1.58
2024-12-06 12:40:48.756,86.17,578.0,0.75,0.63,-0.06,-0.33,0.13,-1.7
2024-12-06 12:40:48.765,84.15,568.0,0.75,0.64,-0.05,-0.45,0.19,-1.88
2024-12-06 12:40:48.768,88.88,572.0,0.75,0.64,-0.05,-0.51,0.31,-2.0
2024-12-06 12:40:48.773,85.5,577.0,0.75,0.64,-0.05,-0.51,0.43,-2.06
2024-12-06 12:40:48.782,82.35,576.0,0.75,0.64,-0.05,-0.51,0.43,-2.06
2024-12-06 12:40:48.788,85.72,576.0,0.75,0.64,-0.05,-0.45,0.43,-2.06
2024-12-06 12:40:48.795,88.65,567.0,0.75,0.64,-0.05,-0.45,0.43,-2.0
2024-12-06 12:40:48.804,83.25,575.0,0.75,0.64,-0.05,-0.45,0.37,-2.0
2024-12-06 12:40:48.814,87.07,582.0,0.75,0.64,-0.05,-0.45,0.31,-1.88
2024-12-06 12:40:48.825,88.42,589.0,0.76,0.64,-0.05,-0.45,0.25,-1.76
2024-12-06 12:40:48.828,83.47,578.0,0.76,0.64,-0.06,-0.45,0.25,-1.76
2024-12-06 12:40:48.836,85.72,581.0,0.76,0.64,-0.05,-0.51,0.25,-1.7
2024-12-06 12:40:48.876,83.7,573.0,0.76,0.64,-0.05,-0.57,0.13,-1.15
2024-12-06 12:40:48.889,83.47,579.0,0.76,0.64,-0.05,-0.51,0.07,-0.91
2024-12-06 12:40:48.894,83.03,564.0,0.76,0.64,-0.05,-0.51,0.07,-0.72
2024-12-06 12:40:48.898,83.25,575.0,0.76,0.64,-0.05,-0.51,-0.06,-0.66
2024-12-06 12:40:49.0,82.35,578.0,0.76,0.64,-0.05,-0.51,-0.06,-0.66
2024-12-06 12:40:49.45,86.17,603.0,0.75,0.64,-0.06,-0.15,-0.24,-0.48
2024-12-06 12:40:49.48,85.5,575.0,0.75,0.64,-0.05,-0.08,-0.06,-0.6
2024-12-06 12:40:49.67,83.25,577.0,0.75,0.64,-0.05,-0.08,-0.06,-0.6
2024-12-06 12:40:49.96,87.75,559.0,0.76,0.64,-0.05,0.16,0.37,-0.66
2024-12-06 12:40:49.99,86.4,586.0,0.76,0.64,-0.05,0.16,0.19,-0.6
2024-12-06 12:40:49.107,86.85,596.0,0.76,0.64,-0.06,0.04,0.07,-0.48
2024-12-06 12:40:49.140,88.42,572.0,0.76,0.64,-0.05,0.04,-0.12,-0.48
2024-12-06 12:40:49.146,83.25,588.0,0.75,0.64,-0.05,-0.08,-0.12,-0.42
2024-12-06 12:40:49.153,87.75,587.0,0.76,0.64,-0.05,-0.08,-0.06,-0.36
2024-12-06 12:40:49.156,86.62,570.0,0.76,0.64,-0.05,-0.08,0.0,-0.17
2024-12-06 12:40:49.161,84.38,570.0,0.76,0.64,-0.05,-0.08,0.0,-0.05
2024-12-06 12:40:49.169,90.45,588.0,0.76,0.64,-0.05,-0.08,-0.06,0.01
2024-12-06 12:40:49.178,86.17,568.0,0.76,0.64,-0.05,-0.08,-0.06,0.01
2024-12-06 12:40:49.184,82.57,566.0,0.75,0.64,-0.05,-0.08,-0.06,0.01
2024-12-06 12:40:49.192,82.57,575.0,0.75,0.64,-0.05,-0.08,-0.12,0.07
2024-12-06 12:40:49.201,83.47,575.0,0.76,0.64,-0.05,-0.08,-0.12,0.01
2024-12-06 12:40:49.208,81.0,570.0,0.76,0.64,-0.05,-0.08,-0.12,-0.05
2024-12-06 12:40:49.221,89.32,565.0,0.76,0.64,-0.05,-0.08,0.0,-0.05
2024-12-06 12:40:49.229,88.65,587.0,0.75,0.64,-0.05,-0.02,0.0,-0.05
2024-12-06 12:40:49.235,85.5,580.0,0.75,0.64,-0.05,-0.02,0.0,-0.05
2024-12-06 12:40:49.246,86.85,569.0,0.75,0.64,-0.05,-0.02,0.07,-0.17
2024-12-06 12:40:49.251,87.75,571.0,0.75,0.63,-0.05,-0.02,0.07,-0.17
2024-12-06 12:40:49.255,84.15,589.0,0.75,0.63,-0.05,-0.02,0.0,-0.23
2024-12-06 12:40:49.267,85.72,578.0,0.75,0.63,-0.05,-0.02,0.0,-0.23
2024-12-06 12:40:49.271,86.4,571.0,0.76,0.63,-0.05,-0.08,0.0,-0.29
2024-12-06 12:40:49.279,83.25,582.0,0.76,0.63,-0.05,-0.21,0.0,-0.36
2024-12-06 12:40:49.288,82.12,568.0,0.76,0.63,-0.05,-0.27,0.07,-0.29
2024-12-06 12:40:49.325,85.95,566.0,0.75,0.64,-0.04,-0.27,0.31,-0.17
2024-12-06 12:40:49.327,88.42,586.0,0.76,0.64,-0.05,-0.27,0.37,-0.23
2024-12-06 12:40:49.334,85.95,565.0,0.76,0.64,-0.05,-0.27,0.43,-0.17
2024-12-06 12:40:49.348,85.95,574.0,0.76,0.64,-0.05,-0.21,0.43,-0.23
2024-12-06 12:40:49.350,88.2,569.0,0.76,0.64,-0.05,-0.21,0.43,-0.23
2024-12-06 12:40:49.356,83.03,572.0,0.76,0.63,-0.05,-0.27,0.37,-0.23
2024-12-06 12:40:49.362,85.72,591.0,0.76,0.63,-0.06,-0.27,0.25,-0.23
2024-12-06 12:40:49.377,84.6,568.0,0.76,0.63,-0.06,-0.27,0.0,-0.17
2024-12-06 12:40:49.379,86.62,583.0,0.76,0.63,-0.06,-0.27,-0.06,-0.17
2024-12-06 12:40:49.385,86.85,566.0,0.76,0.63,-0.06,-0.27,-0.12,-0.23
2024-12-06 12:40:49.394,86.17,573.0,0.76,0.63,-0.05,-0.39,-0.12,-0.23
2024-12-06 12:40:49.401,83.7,593.0,0.76,0.63,-0.05,-0.39,-0.18,-0.29
2024-12-06 12:40:49.410,84.38,570.0,0.76,0.64,-0.05,-0.27,-0.18,-0.36
2024-12-06 12:40:49.430,84.6,577.0,0.76,0.64,-0.05,-0.15,-0.12,-0.42
2024-12-06 12:40:50.451,83.7,589.0,0.76,0.64,-0.06,1.14,0.31,-1.39
2024-12-06 12:40:50.457,82.35,570.0,0.76,0.64,-0.08,1.2,7.15,-0.48
2024-12-06 12:40:50.480,79.88,610.0,0.71,0.77,-0.01,2.11,9.83,4.1
2024-12-06 12:40:50.508,79.42,539.0,0.67,0.79,-0.05,-1.12,9.04,13.32
2024-12-06 12:40:50.535,74.47,512.0,0.76,0.68,-0.05,-5.94,4.77,17.34
2024-12-06 12:40:50.566,68.17,505.0,0.8,0.51,-0.03,-6.68,4.64,13.44
2024-12-06 12:40:50.593,71.1,508.0,0.84,0.49,-0.01,-1.24,2.32,6.05
2024-12-06 12:40:50.621,67.05,501.0,0.82,0.57,-0.02,1.93,-1.09,1.29
2024-12-06 12:40:50.656,70.2,493.0,0.8,0.61,-0.03,0.89,-3.29,0.01
2024-12-06 12:40:50.684,70.42,493.0,0.76,0.59,-0.04,1.62,0.43,3.37
2024-12-06 12:40:50.705,68.62,492.0,0.78,0.58,-0.06,3.15,5.5,6.6
2024-12-06 12:40:50.729,65.7,503.0,0.82,0.58,-0.05,3.21,5.56,9.23
2024-12-06 12:40:50.759,67.05,497.0,0.84,0.58,-0.04,3.88,3.67,8.98
2024-12-06 12:40:50.787,66.6,488.0,0.83,0.56,-0.04,5.9,2.02,6.91
2024-12-06 12:40:50.815,64.57,473.0,0.81,0.59,-0.04,4.98,0.25,6.85
2024-12-06 12:40:50.840,63.0,470.0,0.77,0.56,-0.04,4.8,3.73,7.82
2024-12-06 12:40:50.962,58.95,483.0,0.78,0.56,-0.02,5.41,6.6,8.86
2024-12-06 12:40:50.965,62.1,476.0,0.81,0.57,-0.03,5.23,5.01,6.54
2024-12-06 12:40:50.978,57.38,469.0,0.8,0.58,-0.02,5.35,3.85,5.14
2024-12-06 12:40:51.6,58.5,478.0,0.8,0.56,-0.02,5.84,4.34,3.55
2024-12-06 12:40:51.101,53.32,478.0,0.8,0.54,-0.02,4.68,4.95,0.86
2024-12-06 12:40:51.114,52.65,472.0,0.81,0.55,-0.0,4.62,5.74,0.93
2024-12-06 12:40:51.145,53.1,482.0,0.81,0.55,-0.02,4.49,4.58,-1.33
2024-12-06 12:40:51.199,46.8,479.0,0.84,0.55,-0.02,4.13,3.85,-0.36
2024-12-06 12:40:51.212,45.0,513.0,0.81,0.54,-0.03,3.82,3.54,-15.68
2024-12-06 12:40:51.253,47.25,480.0,0.83,0.54,-0.01,3.39,3.18,-0.84
2024-12-06 12:40:51.258,47.25,474.0,0.82,0.55,-0.02,3.09,4.4,0.8
2024-12-06 12:40:51.282,43.65,451.0,0.8,0.54,-0.03,2.97,4.34,1.11
2024-12-06 12:40:51.311,43.2,470.0,0.81,0.54,-0.02,3.39,3.54,-1.39
2024-12-06 12:40:51.334,42.52,489.0,0.84,0.57,-0.01,3.64,2.93,-0.17
2024-12-06 12:40:51.390,44.32,477.0,0.82,0.57,-0.01,3.33,3.54,-0.05
2024-12-06 12:40:51.393,37.8,460.0,0.83,0.56,-0.01,2.91,3.18,0.01
2024-12-06 12:40:51.421,41.4,475.0,0.8,0.55,-0.02,2.78,3.54,1.23
2024-12-06 12:40:51.470,41.62,469.0,0.81,0.55,-0.02,2.54,3.85,0.44
2024-12-06 12:40:51.474,37.12,471.0,0.84,0.57,-0.02,2.17,4.34,2.33
2024-12-06 12:40:51.503,33.08,472.0,0.82,0.56,-0.03,2.24,2.93,1.84
2024-12-06 12:40:51.543,34.42,479.0,0.84,0.56,-0.01,2.17,2.57,1.6
2024-12-06 12:40:51.557,30.82,478.0,0.84,0.55,-0.02,2.72,2.2,4.28
2024-12-06 12:40:51.585,31.05,488.0,0.83,0.54,-0.01,3.15,2.87,3.25
2024-12-06 12:40:51.634,29.7,489.0,0.85,0.54,-0.01,3.15,3.0,4.53
2024-12-06 12:40:51.641,31.5,477.0,0.82,0.53,-0.02,3.27,3.0,4.22
2024-12-06 12:40:51.666,31.5,490.0,0.83,0.54,-0.01,3.15,2.02,3.55
2024-12-06 12:40:51.697,29.47,480.0,0.81,0.53,-0.01,3.09,2.81,3.37
2024-12-06 12:40:51.724,28.35,478.0,0.82,0.52,-0.0,2.24,3.36,3.43
2024-12-06 12:40:51.751,27.9,490.0,0.83,0.52,-0.0,1.5,3.18,1.17
2024-12-06 12:40:51.777,24.3,475.0,0.85,0.54,0.0,1.2,2.63,1.41
2024-12-06 12:40:51.818,20.92,489.0,0.83,0.51,0.01,1.08,3.18,0.99
2024-12-06 12:40:51.831,19.35,492.0,0.85,0.53,0.01,0.47,4.03,1.72
2024-12-06 12:40:51.860,20.48,489.0,0.84,0.53,0.0,-0.21,1.47,1.96
2024-12-06 12:40:51.888,17.77,485.0,0.83,0.53,-0.01,-0.63,3.3,0.07
2024-12-06 12:40:51.938,21.38,477.0,0.84,0.53,-0.03,-0.57,1.23,1.66
2024-12-06 12:40:51.953,18.0,478.0,0.82,0.52,-0.01,-0.02,1.16,0.01
2024-12-06 12:40:51.971,18.67,486.0,0.87,0.55,-0.0,-0.21,0.92,0.13
2024-12-06 12:40:52.33,15.52,493.0,0.85,0.54,-0.02,0.04,-0.97,2.51
2024-12-06 12:40:52.39,17.1,480.0,0.85,0.54,-0.02,0.1,-1.22,1.23
2024-12-06 12:40:52.55,13.05,496.0,0.84,0.54,-0.01,0.34,-1.15,1.84
2024-12-06 12:40:52.169,13.95,516.0,0.85,0.5,0.01,-0.69,-0.79,3.06
2024-12-06 12:40:52.198,12.38,481.0,0.85,0.49,0.02,-1.43,-0.85,1.41
2024-12-06 12:40:52.205,10.35,500.0,0.87,0.51,0.0,-1.3,0.19,3.18
2024-12-06 12:40:52.225,12.82,477.0,0.85,0.5,-0.0,-1.18,-0.24,3.86
2024-12-06 12:40:52.314,6.75,480.0,0.84,0.5,-0.01,-0.39,-1.89,3.61
2024-12-06 12:40:52.326,9.45,498.0,0.85,0.51,0.01,-0.88,-2.38,3.25
2024-12-06 12:40:52.354,1.8,491.0,0.84,0.51,-0.0,-1.12,-1.03,2.51
2024-12-06 12:40:52.383,4.72,478.0,0.85,0.5,-0.0,-1.3,-0.3,2.94
2024-12-06 12:40:52.413,3.6,485.0,0.87,0.5,-0.0,-1.73,-0.73,3.98
2024-12-06 12:40:53.724,0.45,492.0,0.87,0.48,0.0,0.28,-0.24,-1.15
2024-12-06 12:40:53.729,-2.47,477.0,0.87,0.48,0.0,0.34,-0.12,-1.03
2024-12-06 12:40:53.732,-1.8,489.0,0.87,0.48,0.0,0.34,0.13,-0.84
2024-12-06 12:40:53.739,3.82,482.0,0.87,0.48,-0.0,0.4,0.31,-0.66
2024-12-06 12:40:53.752,3.6,495.0,0.87,0.48,-0.0,0.4,0.43,-0.54
2024-12-06 12:40:53.759,4.5,491.0,0.86,0.47,-0.0,0.47,0.55,-0.48
2024-12-06 12:40:53.765,-0.9,477.0,0.86,0.47,-0.01,0.47,0.55,-0.48
2024-12-06 12:40:53.771,-0.9,472.0,0.86,0.47,-0.01,0.47,0.62,-0.36
2024-12-06 12:40:53.783,-2.02,477.0,0.86,0.47,-0.01,0.53,0.74,-0.29
2024-12-06 12:40:53.790,2.47,495.0,0.86,0.47,-0.01,0.59,0.8,-0.23
2024-12-06 12:40:53.800,-1.12,477.0,0.86,0.47,-0.01,0.65,0.86,-0.23
2024-12-06 12:40:53.804,1.12,478.0,0.87,0.47,-0.01,0.65,0.86,-0.23
2024-12-06 12:40:53.818,-1.8,479.0,0.87,0.47,-0.0,0.71,0.8,-0.23
2024-12-06 12:40:53.858,2.02,479.0,0.88,0.47,0.0,0.65,0.74,-0.48
2024-12-06 12:40:53.863,-0.9,558.0,0.88,0.47,0.0,0.65,0.68,-0.54
2024-12-06 12:40:53.872,-4.28,483.0,0.88,0.47,0.0,0.59,0.49,-0.6
2024-12-06 12:40:53.878,1.12,480.0,0.88,0.47,0.0,0.59,0.49,-0.6
2024-12-06 12:40:53.886,3.15,491.0,0.88,0.47,0.0,0.53,0.19,-0.6
2024-12-06 12:40:53.902,0.9,494.0,0.88,0.47,0.0,0.47,-0.06,-0.66
2024-12-06 12:40:53.905,-1.35,482.0,0.88,0.47,0.0,0.4,-0.24,-0.72
2024-12-06 12:40:53.909,-2.25,499.0,0.88,0.47,0.0,0.4,-0.36,-0.84
2024-12-06 12:40:53.917,2.47,488.0,0.87,0.47,0.0,0.4,-0.3,-0.91
2024-12-06 12:40:53.927,1.8,488.0,0.87,0.47,0.0,0.4,-0.3,-0.91
2024-12-06 12:40:53.957,3.38,474.0,0.85,0.47,-0.01,0.28,1.1,-1.94
2024-12-06 12:40:53.961,-3.6,484.0,0.88,0.48,0.0,0.28,1.1,-1.94
2024-12-06 12:40:53.969,2.25,489.0,0.89,0.48,0.01,0.28,0.49,-1.03
2024-12-06 12:40:53.977,1.35,491.0,0.88,0.48,-0.01,0.47,0.37,-0.23
2024-12-06 12:40:53.984,1.57,466.0,0.86,0.47,-0.01,0.59,0.74,-0.23
2024-12-06 12:40:53.996,2.25,476.0,0.86,0.47,-0.01,0.59,0.74,-0.6
2024-12-06 12:40:54.8,0.45,481.0,0.86,0.47,-0.01,0.59,0.8,-0.91
2024-12-06 12:40:54.15,-2.02,473.0,0.87,0.47,-0.0,0.47,0.8,-0.91
2024-12-06 12:40:54.18,1.57,494.0,0.88,0.47,0.0,0.47,0.62,-0.91
2024-12-06 12:40:54.23,1.8,483.0,0.88,0.48,-0.0,0.4,0.25,-0.72
2024-12-06 12:40:54.33,-3.15,479.0,0.88,0.48,-0.0,0.34,0.25,-0.66
2024-12-06 12:40:54.68,2.25,476.0,0.88,0.48,-0.0,0.4,0.25,-0.84
2024-12-06 12:40:54.73,2.25,492.0,0.88,0.47,0.0,0.4,0.19,-1.15
2024-12-06 12:40:54.78,2.02,480.0,0.88,0.47,0.0,0.34,-0.06,-1.15
2024-12-06 12:40:54.86,3.15,499.0,0.88,0.47,0.0,0.34,-0.06,-1.15
2024-12-06 12:40:54.91,-1.35,490.0,0.87,0.47,0.0,0.34,-0.12,-1.15
2024-12-06 12:40:54.104,3.15,483.0,0.87,0.47,0.0,0.28,-0.06,-1.15
2024-12-06 12:40:54.109,1.57,486.0,0.87,0.48,0.0,0.22,0.0,-1.21
2024-12-06 12:40:54.115,2.7,471.0,0.87,0.48,0.0,0.16,0.0,-1.09
2024-12-06 12:40:54.123,3.15,485.0,0.87,0.48,-0.0,0.16,0.0,-0.91
2024-12-06 12:40:54.133,-0.45,491.0,0.87,0.47,-0.0,0.22,0.07,-0.91
2024-12-06 12:40:54.141,0.9,496.0,0.87,0.47,-0.0,0.22,0.0,-0.78
2024-12-06 12:40:54.148,3.82,505.0,0.87,0.47,-0.0,0.28,0.07,-0.6
2024-12-06 12:40:54.185,1.8,478.0,0.87,0.47,-0.0,0.34,0.13,-0.6
2024-12-06 12:40:54.188,3.6,492.0,0.87,0.47,0.01,0.34,0.19,-0.78
2024-12-06 12:40:54.192,2.02,499.0,0.87,0.47,0.01,0.28,0.19,-0.97
2024-12-06 12:40:54.199,0.22,479.0,0.87,0.47,0.01,0.22,0.19,-1.09
2024-12-06 12:40:54.208,4.95,494.0,0.87,0.48,0.01,0.22,0.19,-1.09
2024-12-06 12:40:54.217,1.12,500.0,0.88,0.48,0.01,0.22,0.13,-1.15
