Timestamp,PosIsDeg,ForceIs,AccX,AccY,AccZ,GyroX,GyroY,GyroZ
2024-12-06 12:41:35.803,1.57,477.0,0.87,0.48,-0.02,0.53,-0.42,-1.15
2024-12-06 12:41:35.835,-1.12,461.0,0.86,0.48,-0.02,0.47,-0.48,-1.15
2024-12-06 12:41:35.856,0.9,457.0,0.85,0.48,-0.02,0.28,0.0,-1.7
2024-12-06 12:41:35.887,2.02,468.0,0.85,0.47,-0.02,0.4,0.43,-2.37
2024-12-06 12:41:35.921,1.8,483.0,0.8,0.45,-0.03,0.47,-1.03,-6.64
2024-12-06 12:41:35.951,-0.67,473.0,0.81,0.47,-0.03,0.71,-0.67,-10.73
2024-12-06 12:41:35.968,0.9,467.0,0.82,0.49,-0.02,0.53,-0.54,-12.2
2024-12-06 12:41:35.996,1.12,458.0,0.86,0.51,-0.02,0.89,1.65,-11.59
2024-12-06 12:41:36.21,7.88,458.0,0.88,0.52,-0.02,1.08,1.96,-10.61
2024-12-06 12:41:36.68,9.45,454.0,0.88,0.52,-0.03,1.32,-0.24,-9.82
2024-12-06 12:41:36.79,11.02,459.0,0.86,0.52,-0.01,1.08,-1.58,-10.37
2024-12-06 12:41:36.104,9.22,471.0,0.86,0.53,-0.02,1.99,-1.15,-8.47
2024-12-06 12:41:36.207,13.05,459.0,0.84,0.51,-0.04,2.97,1.9,-7.8
2024-12-06 12:41:36.209,13.5,461.0,0.81,0.5,-0.02,0.16,-1.28,-11.65
2024-12-06 12:41:36.215,13.27,465.0,0.79,0.5,0.0,-1.61,-1.4,-14.21
2024-12-06 12:41:36.243,16.88,472.0,0.79,0.52,-0.01,-1.06,1.41,-14.58
2024-12-06 12:41:36.286,18.23,473.0,0.78,0.54,-0.01,-1.0,2.69,-15.68
2024-12-06 12:41:36.306,15.97,480.0,0.82,0.57,-0.02,-1.79,3.18,-16.16
2024-12-06 12:41:36.325,17.32,502.0,0.85,0.58,-0.01,-3.38,0.68,-14.88
2024-12-06 12:41:36.354,22.27,495.0,0.83,0.55,-0.01,-4.54,-1.22,-15.37
2024-12-06 12:41:36.398,20.48,493.0,0.84,0.58,-0.03,-3.69,-0.79,-14.27
2024-12-06 12:41:36.408,21.82,482.0,0.83,0.59,-0.04,-1.85,0.98,-11.4
2024-12-06 12:41:36.437,25.2,498.0,0.83,0.61,-0.04,-1.18,1.04,-8.53
2024-12-06 12:41:36.464,23.17,507.0,0.83,0.61,-0.04,-0.94,0.13,-7.25
2024-12-06 12:41:36.513,29.47,491.0,0.83,0.62,-0.03,0.28,-1.09,-5.85
2024-12-06 12:41:36.521,25.65,483.0,0.81,0.61,-0.03,1.44,-0.42,-4.75
2024-12-06 12:41:36.550,25.65,492.0,0.8,0.61,-0.03,2.05,-1.15,-3.22
2024-12-06 12:41:36.582,28.8,482.0,0.79,0.6,-0.02,1.56,-0.42,-3.83
2024-12-06 12:41:36.606,31.72,507.0,0.79,0.6,-0.01,0.89,-0.18,-3.22
2024-12-06 12:41:36.650,31.72,492.0,0.76,0.58,0.01,0.1,0.13,-5.24
2024-12-06 12:41:36.661,35.33,494.0,0.77,0.58,-0.0,-0.39,0.19,-7.07
2024-12-06 12:41:36.687,34.88,493.0,0.78,0.59,-0.02,-0.39,-0.97,-7.19
2024-12-06 12:41:36.743,35.77,494.0,0.79,0.6,-0.02,-1.3,-1.34,-6.46
2024-12-06 12:41:36.745,37.12,487.0,0.77,0.61,-0.02,-2.83,-2.44,-5.73
2024-12-06 12:41:36.773,34.42,534.0,0.78,0.61,0.01,-4.23,-1.34,-5.97
2024-12-06 12:41:36.797,38.02,493.0,0.78,0.6,-0.01,-4.97,-0.97,-5.85
2024-12-06 12:41:36.827,32.85,489.0,0.8,0.6,-0.02,-4.36,-2.01,-6.15
2024-12-06 12:41:36.855,42.3,508.0,0.8,0.6,-0.02,-3.99,-2.01,-5.85
2024-12-06 12:41:36.880,34.42,488.0,0.78,0.61,-0.02,-3.44,-2.07,-5.42
2024-12-06 12:41:36.906,45.0,492.0,0.79,0.63,-0.02,-3.14,-2.5,-4.02
2024-12-06 12:41:36.964,44.1,491.0,0.77,0.62,-0.03,-3.2,-1.7,-4.08
2024-12-06 12:41:36.969,43.42,485.0,0.78,0.63,-0.02,-2.83,-2.31,-3.77
2024-12-06 12:41:36.989,42.75,504.0,0.78,0.62,-0.02,-2.16,-2.74,-3.22
2024-12-06 12:41:37.19,47.25,493.0,0.77,0.6,-0.02,-1.49,-2.44,-4.75
2024-12-06 12:41:37.47,49.72,484.0,0.79,0.62,-0.01,-1.24,-2.56,-3.22
2024-12-06 12:41:37.75,46.8,497.0,0.77,0.62,-0.02,-1.24,-1.83,-3.04
2024-12-06 12:41:37.99,47.25,482.0,0.78,0.63,-0.0,-2.28,-1.7,-2.68
2024-12-06 12:41:37.132,50.85,511.0,0.76,0.62,-0.0,-3.26,-2.19,-2.25
2024-12-06 12:41:37.156,50.85,498.0,0.78,0.62,-0.0,-3.62,-2.31,-2.8
2024-12-06 12:41:37.267,54.9,489.0,0.77,0.62,-0.0,-4.17,-2.07,-1.64
2024-12-06 12:41:37.276,55.12,498.0,0.78,0.63,-0.02,-3.2,-2.92,-1.7
2024-12-06 12:41:37.295,58.72,498.0,0.78,0.65,-0.02,-2.89,-2.86,-0.05
2024-12-06 12:41:37.322,58.27,513.0,0.76,0.64,-0.02,-3.07,-3.78,0.19
2024-12-06 12:41:37.350,58.27,507.0,0.78,0.66,-0.02,-3.26,-5.0,1.48
2024-12-06 12:41:37.379,57.15,504.0,0.77,0.66,-0.02,-3.01,-5.06,1.9
2024-12-06 12:41:37.402,60.75,499.0,0.77,0.64,-0.01,-2.16,-4.94,1.48
2024-12-06 12:41:37.429,58.5,508.0,0.77,0.63,-0.02,-1.43,-5.61,1.9
2024-12-06 12:41:37.470,65.92,509.0,0.76,0.61,-0.04,-0.69,-5.24,1.29
2024-12-06 12:41:37.487,64.35,511.0,0.78,0.62,-0.02,-0.27,-4.57,1.35
2024-12-06 12:41:37.515,62.77,516.0,0.78,0.63,-0.03,-0.21,-4.94,2.51
2024-12-06 12:41:37.541,64.57,526.0,0.77,0.62,-0.04,-0.51,-4.82,2.09
2024-12-06 12:41:37.568,65.25,524.0,0.77,0.6,-0.04,-1.0,-5.85,1.66
2024-12-06 12:41:37.596,66.15,522.0,0.76,0.6,-0.03,-1.3,-5.92,1.05
2024-12-06 12:41:37.635,68.85,539.0,0.76,0.59,-0.03,-1.37,-4.88,0.07
2024-12-06 12:41:37.654,69.07,535.0,0.77,0.6,-0.02,-1.24,-3.6,-0.72
2024-12-06 12:41:37.681,70.42,536.0,0.78,0.61,-0.03,-1.49,-3.78,-1.15
2024-12-06 12:41:37.709,68.4,550.0,0.79,0.62,-0.04,-2.04,-5.12,-0.6
2024-12-06 12:41:37.735,72.45,531.0,0.79,0.63,-0.03,-1.98,-6.1,0.32
2024-12-06 12:41:37.762,72.67,539.0,0.78,0.65,-0.03,-1.37,-5.37,1.11
2024-12-06 12:41:37.789,69.53,533.0,0.77,0.64,-0.04,-1.43,-4.15,2.63
2024-12-06 12:41:37.817,72.45,552.0,0.76,0.61,-0.06,-1.12,-2.68,3.12
2024-12-06 12:41:37.848,77.17,562.0,0.78,0.6,-0.04,-1.43,-3.23,3.43
2024-12-06 12:41:37.882,73.12,560.0,0.79,0.58,-0.05,-1.61,-4.02,1.54
2024-12-06 12:41:37.901,77.85,554.0,0.78,0.58,-0.05,-1.3,-6.04,-0.6
2024-12-06 12:41:37.929,81.0,556.0,0.78,0.6,-0.05,-1.06,-6.65,-1.58
2024-12-06 12:41:37.960,77.85,570.0,0.77,0.59,-0.05,-1.43,-6.28,-1.15
2024-12-06 12:41:37.985,75.38,564.0,0.77,0.6,-0.05,-2.22,-4.57,-0.54
2024-12-06 12:41:38.11,80.55,554.0,0.77,0.59,-0.05,-2.22,-4.33,-0.6
2024-12-06 12:41:38.38,78.3,574.0,0.78,0.6,-0.06,-2.34,-3.72,-1.27
2024-12-06 12:41:38.66,83.47,627.0,0.77,0.61,-0.05,-2.22,-3.47,-2.13
2024-12-06 12:41:38.98,83.92,574.0,0.77,0.62,-0.06,-1.73,-2.68,-2.31
2024-12-06 12:41:38.122,83.25,587.0,0.77,0.62,-0.06,-0.94,-1.34,-2.06
2024-12-06 12:41:38.150,84.38,564.0,0.77,0.63,-0.06,-0.21,-1.7,-1.76
2024-12-06 12:41:39.458,87.97,583.0,0.78,0.61,-0.07,0.71,-0.42,-1.09
2024-12-06 12:41:39.477,87.75,593.0,0.78,0.61,-0.07,0.77,-0.36,-1.15
2024-12-06 12:41:39.481,85.5,583.0,0.78,0.61,-0.07,0.89,-0.3,-1.09
2024-12-06 12:41:39.490,81.9,579.0,0.78,0.61,-0.07,0.95,-0.3,-1.09
2024-12-06 12:41:39.526,88.2,601.0,0.78,0.61,-0.06,0.89,-0.06,-1.03
2024-12-06 12:41:39.726,87.3,576.0,0.78,0.61,-0.06,0.71,0.0,-0.97
2024-12-06 12:41:39.737,86.85,584.0,0.78,0.61,-0.07,-0.21,0.25,-0.48
2024-12-06 12:41:39.756,89.77,583.0,0.78,0.61,-0.07,-0.08,0.25,-0.54
2024-12-06 12:41:39.767,82.35,593.0,0.78,0.61,-0.07,0.04,0.13,-0.6
2024-12-06 12:41:39.794,86.85,578.0,0.78,0.6,-0.07,0.22,-0.18,-0.6
2024-12-06 12:41:39.804,87.3,582.0,0.78,0.6,-0.07,0.28,-0.3,-0.6
2024-12-06 12:41:39.808,86.62,561.0,0.78,0.61,-0.07,0.34,-0.36,-0.54
2024-12-06 12:41:39.814,87.52,596.0,0.78,0.61,-0.07,0.34,-0.36,-0.54
2024-12-06 12:41:39.824,81.9,592.0,0.77,0.61,-0.06,0.4,-0.36,-0.6
2024-12-06 12:41:39.833,84.15,579.0,0.77,0.61,-0.06,0.4,-0.36,-0.72
2024-12-06 12:41:39.839,86.62,598.0,0.77,0.61,-0.06,0.4,-0.36,-0.72
2024-12-06 12:41:39.846,86.85,579.0,0.77,0.61,-0.06,0.4,-0.3,-0.84
2024-12-06 12:41:39.855,87.52,584.0,0.77,0.61,-0.06,0.34,-0.24,-0.97
2024-12-06 12:41:39.864,84.6,594.0,0.77,0.6,-0.07,0.34,-0.18,-1.03
2024-12-06 12:41:39.869,85.28,581.0,0.77,0.6,-0.07,0.28,-0.12,-1.09
2024-12-06 12:41:39.879,85.95,588.0,0.77,0.6,-0.07,0.16,-0.12,-1.09
2024-12-06 12:41:39.886,89.1,600.0,0.77,0.6,-0.06,0.16,-0.12,-1.09
2024-12-06 12:41:39.933,83.25,579.0,0.78,0.6,-0.07,-0.02,0.0,-1.03
2024-12-06 12:41:39.938,84.15,587.0,0.78,0.6,-0.07,-0.08,-0.06,-1.09
2024-12-06 12:41:39.945,87.97,592.0,0.78,0.6,-0.07,-0.21,-0.12,-1.03
2024-12-06 12:41:39.954,82.8,587.0,0.78,0.6,-0.07,-0.21,-0.18,-1.03
2024-12-06 12:41:39.961,86.17,594.0,0.78,0.6,-0.07,-0.21,-0.18,-0.97
2024-12-06 12:41:39.975,87.3,637.0,0.78,0.61,-0.07,-0.27,-0.18,-0.97
2024-12-06 12:41:39.980,83.92,592.0,0.78,0.61,-0.07,-0.27,-0.18,-0.97
2024-12-06 12:41:39.984,83.7,585.0,0.78,0.61,-0.06,-0.27,-0.12,-0.91
2024-12-06 12:41:40.14,87.52,581.0,0.78,0.6,-0.06,-0.21,0.19,-0.91
2024-12-06 12:41:40.16,87.52,598.0,0.78,0.6,-0.06,-0.21,0.25,-0.91
2024-12-06 12:41:40.21,87.97,587.0,0.78,0.61,-0.06,-0.21,0.31,-0.91
2024-12-06 12:41:40.35,88.88,599.0,0.78,0.61,-0.07,-0.21,0.31,-0.91
2024-12-06 12:41:40.40,82.12,592.0,0.78,0.61,-0.07,-0.21,0.31,-0.97
2024-12-06 12:41:40.45,85.72,563.0,0.78,0.6,-0.07,-0.21,0.31,-0.97
2024-12-06 12:41:40.54,84.6,582.0,0.78,0.6,-0.07,-0.27,0.25,-0.97
2024-12-06 12:41:40.67,86.62,580.0,0.78,0.6,-0.07,-0.39,0.25,-0.97
2024-12-06 12:41:40.78,87.52,569.0,0.78,0.6,-0.06,-0.39,0.25,-0.78
2024-12-06 12:41:40.85,82.8,578.0,0.78,0.6,-0.06,-0.33,0.19,-0.66
2024-12-06 12:41:40.91,86.62,587.0,0.78,0.6,-0.06,-0.33,0.19,-0.66
2024-12-06 12:41:40.101,83.47,587.0,0.78,0.61,-0.06,-0.33,0.25,-0.66
2024-12-06 12:41:40.134,82.57,580.0,0.78,0.61,-0.06,-0.39,0.43,-0.97
2024-12-06 12:41:40.136,90.45,581.0,0.78,0.61,-0.06,-0.39,0.37,-1.03
2024-12-06 12:41:40.148,87.75,578.0,0.78,0.61,-0.07,-0.33,0.25,-1.09
2024-12-06 12:41:40.154,88.2,589.0,0.78,0.6,-0.07,-0.33,0.07,-1.15
2024-12-06 12:41:40.162,86.85,579.0,0.78,0.6,-0.07,-0.27,-0.18,-1.21
2024-12-06 12:41:40.169,87.07,573.0,0.78,0.6,-0.07,-0.21,-0.36,-1.21
2024-12-06 12:41:40.190,87.3,576.0,0.78,0.6,-0.07,-0.21,-0.48,-1.09
2024-12-06 12:41:40.196,86.17,573.0,0.78,0.61,-0.06,-0.15,-0.48,-1.09
2024-12-06 12:41:40.202,87.3,579.0,0.78,0.61,-0.06,-0.27,-0.42,-1.09
2024-12-06 12:41:40.257,84.6,595.0,0.78,0.61,-0.06,-0.27,-0.42,-1.15
2024-12-06 12:41:40.260,83.47,581.0,0.78,0.61,-0.07,-0.27,-0.54,-1.33
2024-12-06 12:41:40.266,83.7,594.0,0.78,0.61,-0.07,-0.33,-0.42,-1.27
2024-12-06 12:41:40.283,84.15,576.0,0.78,0.61,-0.07,-0.39,-0.36,-1.09
2024-12-06 12:41:40.298,83.7,590.0,0.78,0.61,-0.06,-0.39,-0.36,-1.09
2024-12-06 12:41:40.302,86.62,580.0,0.78,0.61,-0.06,-0.39,-0.24,-1.03
2024-12-06 12:41:40.305,89.32,577.0,0.78,0.61,-0.06,-0.33,-0.12,-0.97
2024-12-06 12:41:40.404,83.03,578.0,0.78,0.61,-0.06,-0.33,-0.06,-0.91
2024-12-06 12:41:40.414,88.2,590.0,0.78,0.61,-0.06,-0.02,0.19,-0.6
2024-12-06 12:41:40.421,87.3,593.0,0.78,0.61,-0.06,-0.02,0.31,-0.48
2024-12-06 12:41:40.432,81.22,588.0,0.78,0.61,-0.06,-0.02,0.37,-0.42
2024-12-06 12:41:40.434,87.97,576.0,0.78,0.61,-0.06,-0.02,0.31,-0.29
2024-12-06 12:41:40.464,83.03,597.0,0.78,0.61,-0.06,0.16,0.19,-0.48
2024-12-06 12:41:40.479,88.42,582.0,0.78,0.61,-0.06,0.1,0.25,-0.6
2024-12-06 12:41:40.482,85.95,591.0,0.78,0.61,-0.06,0.1,0.25,-0.72
2024-12-06 12:41:40.488,86.62,585.0,0.78,0.61,-0.06,0.1,0.25,-0.72
2024-12-06 12:41:40.495,86.4,595.0,0.78,0.61,-0.06,0.16,0.31,-0.78
2024-12-06 12:41:40.503,82.8,586.0,0.78,0.61,-0.06,0.22,0.31,-0.78
2024-12-06 12:41:40.514,83.25,582.0,0.78,0.61,-0.07,0.16,0.31,-0.84
2024-12-06 12:41:40.520,87.07,579.0,0.78,0.61,-0.07,0.22,0.31,-0.97
2024-12-06 12:41:40.527,80.78,588.0,0.78,0.61,-0.07,0.28,0.25,-0.91
2024-12-06 12:41:40.534,87.07,592.0,0.78,0.61,-0.07,0.28,0.25,-0.91
2024-12-06 12:41:40.544,88.88,585.0,0.78,0.6,-0.07,0.34,0.13,-0.84
2024-12-06 12:41:40.581,89.55,588.0,0.78,0.61,-0.06,0.28,-0.06,-0.72
2024-12-06 12:41:40.584,89.1,584.0,0.78,0.61,-0.06,0.28,-0.06,-0.72
2024-12-06 12:41:40.590,84.6,595.0,0.78,0.61,-0.06,0.34,-0.12,-0.72
2024-12-06 12:41:40.597,83.47,582.0,0.78,0.61,-0.07,0.4,-0.18,-0.84
2024-12-06 12:41:40.606,87.07,593.0,0.78,0.61,-0.07,0.47,-0.18,-0.91
2024-12-06 12:41:40.615,86.4,584.0,0.78,0.61,-0.07,0.47,-0.24,-0.91
2024-12-06 12:41:40.625,84.38,599.0,0.78,0.6,-0.07,0.47,-0.24,-0.91
2024-12-06 12:41:40.632,87.3,580.0,0.78,0.6,-0.07,0.4,-0.18,-0.91
2024-12-06 12:41:40.636,86.4,573.0,0.78,0.6,-0.07,0.28,-0.24,-0.78
2024-12-06 12:41:40.695,85.5,569.0,0.78,0.6,-0.06,0.28,0.07,-0.78
2024-12-06 12:41:40.698,85.28,585.0,0.78,0.6,-0.06,0.28,0.07,-0.78
2024-12-06 12:41:40.708,88.2,579.0,0.78,0.61,-0.06,0.16,0.0,-0.84
2024-12-06 12:41:40.713,82.35,581.0,0.78,0.6,-0.06,0.1,0.0,-0.84
2024-12-06 12:41:40.720,86.4,597.0,0.78,0.6,-0.06,-0.02,-0.18,-0.84
2024-12-06 12:41:40.727,86.17,592.0,0.78,0.6,-0.03,0.16,-0.18,-0.84
2024-12-06 12:41:40.746,89.77,576.0,0.78,0.6,-0.06,0.16,-0.06,-0.84
2024-12-06 12:41:40.753,86.62,586.0,0.78,0.61,-0.06,0.1,0.13,-0.91
2024-12-06 12:41:40.757,84.82,572.0,0.78,0.6,-0.06,0.1,0.31,-0.84
2024-12-06 12:41:40.770,85.95,590.0,0.78,0.61,-0.06,0.16,0.31,-0.78
2024-12-06 12:41:40.775,89.1,574.0,0.78,0.61,-0.06,0.22,0.37,-0.72
2024-12-06 12:41:40.808,89.32,574.0,0.78,0.6,-0.07,0.1,0.07,-0.78
2024-12-06 12:41:40.862,87.52,569.0,0.78,0.6,-0.07,0.04,0.07,-0.78
2024-12-06 12:41:40.867,82.57,568.0,0.78,0.61,-0.06,0.1,0.31,-0.78
2024-12-06 12:41:40.871,87.07,580.0,0.78,0.61,-0.06,0.1,0.43,-0.78
2024-12-06 12:41:40.879,87.07,590.0,0.78,0.61,-0.07,0.22,0.43,-0.91
2024-12-06 12:41:40.894,89.55,580.0,0.78,0.61,-0.07,0.22,0.31,-0.97
2024-12-06 12:41:40.896,87.97,589.0,0.78,0.6,-0.07,0.22,0.31,-0.97
2024-12-06 12:41:40.906,87.07,587.0,0.78,0.6,-0.07,0.28,0.19,-0.97
2024-12-06 12:41:40.913,85.28,585.0,0.78,0.6,-0.07,0.28,0.0,-0.84
2024-12-06 12:41:40.917,87.3,588.0,0.78,0.6,-0.07,0.34,-0.24,-0.78
2024-12-06 12:41:40.956,87.3,588.0,0.78,0.6,-0.07,0.34,-0.36,-0.66
2024-12-06 12:41:40.969,85.95,573.0,0.78,0.61,-0.06,0.4,-0.36,-0.78
2024-12-06 12:41:40.971,88.42,588.0,0.78,0.61,-0.06,0.34,-0.24,-0.97
2024-12-06 12:41:40.978,87.3,582.0,0.78,0.61,-0.06,0.34,-0.24,-0.97
2024-12-06 12:41:40.991,87.75,579.0,0.78,0.6,-0.06,0.34,-0.18,-0.97
2024-12-06 12:41:40.994,87.97,576.0,0.78,0.6,-0.06,0.28,-0.24,-0.97
2024-12-06 12:41:41.1,85.95,571.0,0.78,0.6,-0.06,0.16,-0.24,-0.97
2024-12-06 12:41:41.9,86.85,575.0,0.78,0.6,-0.06,0.04,-0.24,-0.97
2024-12-06 12:41:41.18,84.15,593.0,0.78,0.6,-0.06,0.04,-0.24,-0.91
2024-12-06 12:41:41.26,86.85,576.0,0.78,0.61,-0.06,0.1,-0.24,-0.91
2024-12-06 12:41:41.33,83.25,582.0,0.78,0.61,-0.06,0.16,-0.18,-0.97
2024-12-06 12:41:41.45,84.15,569.0,0.78,0.61,-0.07,0.16,-0.24,-1.03
2024-12-06 12:41:41.56,86.4,590.0,0.78,0.6,-0.07,0.16,-0.24,-1.09
2024-12-06 12:41:41.59,87.52,599.0,0.78,0.6,-0.07,0.1,-0.24,-1.15
2024-12-06 12:41:41.64,87.07,585.0,0.78,0.61,-0.06,0.1,-0.24,-1.15
2024-12-06 12:41:41.75,83.47,583.0,0.78,0.61,-0.06,0.04,-0.24,-1.15
2024-12-06 12:41:41.81,85.72,595.0,0.78,0.61,-0.06,0.1,-0.18,-1.15
2024-12-06 12:41:41.87,87.07,577.0,0.78,0.61,-0.06,0.16,-0.06,-1.15
2024-12-06 12:41:41.100,84.82,577.0,0.78,0.61,-0.06,0.22,0.0,-1.09
2024-12-06 12:41:41.111,86.62,581.0,0.78,0.61,-0.06,0.28,0.07,-1.15
2024-12-06 12:41:41.114,84.6,579.0,0.78,0.61,-0.06,0.28,0.07,-1.15
2024-12-06 12:41:41.122,88.2,580.0,0.78,0.61,-0.07,0.34,0.13,-1.15
2024-12-06 12:41:41.153,88.2,598.0,0.78,0.61,-0.07,0.28,0.19,-1.09
2024-12-06 12:41:41.163,86.4,590.0,0.78,0.61,-0.07,0.34,0.13,-0.91
2024-12-06 12:41:41.172,87.97,574.0,0.78,0.6,-0.07,0.4,0.19,-0.78
2024-12-06 12:41:41.177,83.47,571.0,0.78,0.6,-0.07,0.4,0.19,-0.66
2024-12-06 12:41:41.180,90.0,586.0,0.78,0.6,-0.07,0.4,0.19,-0.6
2024-12-06 12:41:41.187,86.85,567.0,0.78,0.6,-0.07,0.4,0.19,-0.54
2024-12-06 12:41:41.198,85.72,580.0,0.78,0.6,-0.06,0.47,0.25,-0.54
2024-12-06 12:41:41.203,83.92,574.0,0.78,0.61,-0.06,0.47,0.25,-0.54
2024-12-06 12:41:41.212,86.62,574.0,0.78,0.61,-0.06,0.4,0.31,-0.66
2024-12-06 12:41:41.223,84.82,617.0,0.78,0.61,-0.06,0.4,0.37,-0.72
2024-12-06 12:41:41.231,88.88,581.0,0.78,0.61,-0.06,0.47,0.43,-0.84
2024-12-06 12:41:41.242,83.7,577.0,0.78,0.61,-0.06,0.47,0.43,-0.84
2024-12-06 12:41:41.245,82.8,573.0,0.78,0.61,-0.06,0.53,0.43,-0.91
2024-12-06 12:41:41.254,89.1,582.0,0.78,0.61,-0.06,0.59,0.43,-1.03
2024-12-06 12:41:41.258,86.85,593.0,0.78,0.6,-0.07,0.71,0.37,-1.09
2024-12-06 12:41:41.265,87.07,583.0,0.78,0.6,-0.07,0.77,0.25,-1.09
2024-12-06 12:41:41.275,88.88,581.0,0.78,0.6,-0.07,0.77,0.19,-0.97
2024-12-06 12:41:41.281,87.52,573.0,0.78,0.6,-0.07,0.77,0.19,-0.97
2024-12-06 12:41:41.290,86.85,575.0,0.78,0.6,-0.07,0.77,0.0,-0.91
2024-12-06 12:41:41.297,89.32,582.0,0.78,0.6,-0.07,0.71,-0.06,-0.84
2024-12-06 12:41:41.314,86.85,588.0,0.78,0.6,-0.07,0.65,-0.18,-0.78
2024-12-06 12:41:41.317,84.82,583.0,0.78,0.61,-0.06,0.65,-0.3,-0.84
2024-12-06 12:41:41.320,87.07,583.0,0.78,0.61,-0.06,0.65,-0.36,-0.91
2024-12-06 12:41:41.333,87.3,587.0,0.78,0.61,-0.06,0.65,-0.36,-0.97
2024-12-06 12:41:41.339,87.97,579.0,0.78,0.61,-0.07,0.59,-0.42,-0.97
2024-12-06 12:41:41.349,88.2,556.0,0.78,0.61,-0.07,0.59,-0.42,-1.09
2024-12-06 12:41:41.481,79.88,589.0,0.78,0.61,-0.06,0.28,0.0,-1.09
2024-12-06 12:41:41.486,85.5,635.0,0.78,0.61,-0.06,0.28,0.07,-1.09
2024-12-06 12:41:42.571,86.4,591.0,0.79,0.6,-0.07,0.65,-1.46,-0.29
2024-12-06 12:41:42.573,85.28,556.0,0.72,0.7,-0.07,-2.83,6.96,12.16
2024-12-06 12:41:42.582,75.6,546.0,0.79,0.59,-0.09,-6.86,4.46,13.5
2024-12-06 12:41:42.610,72.67,530.0,0.82,0.51,-0.05,-5.21,0.19,11.67
2024-12-06 12:41:42.647,75.38,542.0,0.84,0.51,-0.01,-0.94,0.19,4.71
2024-12-06 12:41:42.667,68.62,537.0,0.82,0.56,-0.03,0.89,-1.34,-0.91
2024-12-06 12:41:42.695,75.6,559.0,0.8,0.58,-0.05,0.34,-2.13,-2.74
2024-12-06 12:41:42.726,70.65,508.0,0.78,0.59,-0.06,0.04,0.37,0.68
2024-12-06 12:41:42.750,67.72,515.0,0.8,0.57,-0.07,0.65,3.48,4.22
2024-12-06 12:41:42.780,66.38,512.0,0.85,0.56,-0.07,1.26,4.46,6.05
2024-12-06 12:41:42.804,66.82,492.0,0.86,0.55,-0.07,3.21,3.61,6.18
2024-12-06 12:41:42.833,63.0,501.0,0.86,0.54,-0.06,4.74,0.31,3.86
2024-12-06 12:41:42.861,62.77,556.0,0.84,0.55,-0.06,4.68,-0.67,3.31
2024-12-06 12:41:42.889,67.05,496.0,0.79,0.55,-0.06,5.53,2.39,4.4
2024-12-06 12:41:42.916,60.3,485.0,0.81,0.55,-0.04,6.14,4.58,6.42
2024-12-06 12:41:42.961,63.67,491.0,0.79,0.55,-0.05,6.02,7.39,7.03
2024-12-06 12:41:42.982,62.1,490.0,0.81,0.55,-0.04,5.78,6.9,6.11
2024-12-06 12:41:42.999,61.88,485.0,0.83,0.54,-0.04,6.08,5.25,5.38
2024-12-06 12:41:43.28,60.75,471.0,0.81,0.54,-0.04,5.41,3.97,3.12
2024-12-06 12:41:43.54,60.97,478.0,0.81,0.54,-0.04,5.53,3.42,0.68
2024-12-06 12:41:43.85,58.05,472.0,0.82,0.56,-0.04,5.41,3.3,1.29
2024-12-06 12:41:43.113,54.0,475.0,0.81,0.54,-0.06,5.53,4.22,2.27
2024-12-06 12:41:43.136,56.47,487.0,0.83,0.53,-0.05,5.84,4.22,1.96
2024-12-06 12:41:43.184,52.88,496.0,0.82,0.51,-0.05,5.84,3.85,0.56
2024-12-06 12:41:43.203,52.65,470.0,0.83,0.52,-0.03,5.59,3.36,-3.71
2024-12-06 12:41:43.219,52.65,484.0,0.83,0.53,-0.02,5.16,3.24,-5.67
2024-12-06 12:41:43.249,51.52,486.0,0.81,0.54,-0.04,4.74,4.64,-6.15
2024-12-06 12:41:43.277,49.05,464.0,0.79,0.54,-0.04,4.55,8.24,-6.03
2024-12-06 12:41:43.302,46.57,479.0,0.8,0.56,-0.06,3.58,8.49,-4.02
2024-12-06 12:41:43.330,49.72,472.0,0.81,0.56,-0.05,3.33,7.21,-4.02
2024-12-06 12:41:43.358,47.92,475.0,0.85,0.59,-0.04,2.42,5.31,-1.82
2024-12-06 12:41:43.406,44.77,490.0,0.82,0.57,-0.05,1.99,4.22,-2.25
2024-12-06 12:41:43.416,45.22,490.0,0.82,0.56,-0.04,2.97,2.81,-3.41
2024-12-06 12:41:43.443,40.05,474.0,0.83,0.57,-0.03,3.7,4.28,-2.37
2024-12-06 12:41:43.567,41.62,479.0,0.83,0.57,-0.04,3.33,4.34,0.5
2024-12-06 12:41:43.571,39.83,478.0,0.81,0.56,-0.03,2.6,1.96,-0.78
2024-12-06 12:41:43.578,35.33,488.0,0.83,0.56,-0.03,2.97,3.06,0.13
2024-12-06 12:41:43.631,36.45,470.0,0.82,0.54,-0.03,2.66,3.06,1.66
2024-12-06 12:41:43.636,34.2,479.0,0.81,0.54,-0.03,2.3,2.02,0.01
2024-12-06 12:41:43.662,30.6,481.0,0.85,0.56,-0.03,2.24,2.57,2.39
2024-12-06 12:41:43.689,35.33,499.0,0.83,0.55,-0.02,2.3,3.36,3.55
2024-12-06 12:41:43.718,35.1,492.0,0.83,0.56,-0.0,1.75,2.2,2.82
2024-12-06 12:41:43.745,34.2,484.0,0.81,0.57,-0.02,1.08,0.98,2.15
2024-12-06 12:41:43.773,30.15,481.0,0.82,0.55,-0.03,-0.15,1.59,2.45
2024-12-06 12:41:43.800,26.32,518.0,0.82,0.52,-0.04,-1.24,2.39,4.47
2024-12-06 12:41:43.859,22.95,496.0,0.81,0.52,-0.04,-1.55,2.02,3.18
2024-12-06 12:41:43.861,25.88,484.0,0.84,0.54,-0.02,-1.37,0.13,1.96
2024-12-06 12:41:43.882,27.22,476.0,0.82,0.54,-0.01,-1.24,-0.54,1.17
2024-12-06 12:41:43.913,26.32,487.0,0.83,0.54,-0.0,-2.34,0.19,0.01
2024-12-06 12:41:43.938,26.77,474.0,0.84,0.54,-0.01,-3.26,0.68,1.11
2024-12-06 12:41:43.965,20.48,469.0,0.84,0.53,-0.01,-3.99,0.37,2.51
2024-12-06 12:41:43.993,25.65,469.0,0.83,0.53,0.01,-6.43,-4.21,0.62
2024-12-06 12:41:44.24,17.55,475.0,0.86,0.55,-0.02,-6.37,-3.05,0.8
2024-12-06 12:41:44.51,20.92,475.0,0.82,0.53,-0.02,-5.09,-2.68,0.74
2024-12-06 12:41:44.83,22.27,477.0,0.81,0.52,-0.04,-4.66,-1.28,-1.76
2024-12-06 12:41:44.104,20.7,478.0,0.84,0.54,-0.07,-2.22,-1.22,0.56
2024-12-06 12:41:44.139,15.52,479.0,0.84,0.55,-0.06,-0.76,0.19,1.29
2024-12-06 12:41:44.161,20.92,480.0,0.87,0.56,-0.04,0.16,0.92,3.67
2024-12-06 12:41:44.187,12.15,494.0,0.85,0.54,-0.03,0.47,0.49,5.99
2024-12-06 12:41:44.216,12.38,494.0,0.86,0.52,-0.03,1.14,0.37,4.59
2024-12-06 12:41:44.252,16.2,485.0,0.87,0.52,-0.02,1.69,0.49,7.33
2024-12-06 12:41:44.272,11.7,479.0,0.83,0.51,-0.01,1.5,0.86,6.85
2024-12-06 12:41:44.312,14.4,476.0,0.84,0.51,0.0,1.08,0.55,6.6
2024-12-06 12:41:44.325,9.68,478.0,0.83,0.5,-0.01,0.77,0.98,6.42
2024-12-06 12:41:44.354,9.45,481.0,0.84,0.5,-0.01,-0.08,0.31,5.14
2024-12-06 12:41:44.388,10.57,482.0,0.86,0.51,-0.0,-0.94,1.23,6.42
2024-12-06 12:41:44.411,8.77,492.0,0.83,0.5,-0.03,-0.76,1.41,6.91
2024-12-06 12:41:44.438,4.95,473.0,0.87,0.49,-0.01,-1.3,1.47,5.99
2024-12-06 12:41:44.466,4.72,481.0,0.86,0.49,0.0,-1.43,0.68,6.18
2024-12-06 12:41:44.491,2.25,495.0,0.84,0.48,-0.0,-1.37,0.31,3.31
2024-12-06 12:41:44.595,4.95,494.0,0.88,0.5,-0.01,-1.55,1.96,4.83
2024-12-06 12:41:44.603,1.12,484.0,0.87,0.49,-0.01,-1.61,0.07,5.93
2024-12-06 12:41:45.948,-1.57,470.0,0.88,0.48,-0.01,0.04,-0.3,-0.78
2024-12-06 12:41:45.963,0.67,478.0,0.86,0.46,-0.02,0.04,1.04,-0.54
2024-12-06 12:41:45.968,-2.47,471.0,0.86,0.46,-0.02,0.16,1.35,-0.54
2024-12-06 12:41:46.8,0.9,484.0,0.86,0.46,-0.02,0.4,1.41,-0.48
2024-12-06 12:41:46.11,-3.6,474.0,0.87,0.48,-0.01,0.22,1.1,-0.29
2024-12-06 12:41:46.17,0.9,477.0,0.87,0.48,0.0,0.1,0.98,-0.36
2024-12-06 12:41:46.22,2.02,477.0,0.87,0.48,0.01,0.04,0.86,-0.48
2024-12-06 12:41:46.29,3.6,471.0,0.87,0.48,0.01,0.1,0.98,-0.6
2024-12-06 12:41:46.37,-3.15,476.0,0.87,0.48,0.01,0.1,0.98,-0.6
2024-12-06 12:41:46.47,-2.25,469.0,0.88,0.48,0.02,0.22,1.23,-0.72
2024-12-06 12:41:46.65,3.6,497.0,0.88,0.47,0.02,0.28,1.35,-0.78
2024-12-06 12:41:46.68,3.15,488.0,0.87,0.47,0.02,0.4,0.49,-1.76
2024-12-06 12:41:46.75,2.02,472.0,0.85,0.46,-0.0,0.22,1.71,-2.49
2024-12-06 12:41:46.87,-4.28,475.0,0.87,0.47,-0.01,0.22,1.71,-2.49
2024-12-06 12:41:46.127,-1.35,469.0,0.85,0.46,-0.02,-0.69,0.43,-2.55
2024-12-06 12:41:46.133,3.38,490.0,0.85,0.47,0.0,-0.76,-1.15,-3.04
2024-12-06 12:41:46.136,4.95,468.0,0.86,0.47,-0.0,-0.82,1.41,-3.16
2024-12-06 12:41:46.147,2.92,467.0,0.86,0.47,-0.0,-0.45,0.43,-3.29
2024-12-06 12:41:46.175,3.38,476.0,0.87,0.47,-0.01,-0.21,1.04,-3.53
2024-12-06 12:41:46.182,-0.67,478.0,0.87,0.47,-0.01,-0.21,1.77,-3.59
2024-12-06 12:41:46.189,4.05,480.0,0.87,0.47,-0.01,-0.02,0.92,-3.77
2024-12-06 12:41:46.199,6.3,463.0,0.87,0.47,-0.01,-0.02,0.92,-3.77
2024-12-06 12:41:46.205,3.82,471.0,0.87,0.48,-0.01,0.04,0.68,-4.08
2024-12-06 12:41:46.213,3.82,476.0,0.87,0.47,0.0,-0.02,0.68,-4.45
2024-12-06 12:41:46.222,7.2,495.0,0.88,0.48,-0.01,0.22,-0.36,-4.63
2024-12-06 12:41:46.229,-0.22,484.0,0.88,0.48,-0.01,0.28,0.62,-4.63
2024-12-06 12:41:46.236,1.8,475.0,0.88,0.48,-0.01,0.59,-0.12,-4.57
2024-12-06 12:41:46.244,4.95,483.0,0.88,0.48,0.0,0.59,-0.12,-4.57
2024-12-06 12:41:46.254,5.85,478.0,0.87,0.48,-0.02,0.65,0.0,-4.51
2024-12-06 12:41:46.264,1.57,483.0,0.87,0.48,-0.01,0.89,0.74,-4.32
2024-12-06 12:41:46.268,5.17,487.0,0.87,0.47,-0.01,0.95,-0.12,-4.32
2024-12-06 12:41:46.278,5.17,493.0,0.87,0.47,-0.01,0.77,1.1,-4.14
2024-12-06 12:41:46.284,0.45,487.0,0.87,0.48,-0.0,0.83,-0.06,-4.02
2024-12-06 12:41:46.291,6.07,466.0,0.87,0.48,0.0,0.83,-0.06,-4.02
2024-12-06 12:41:46.299,9.0,467.0,0.87,0.48,-0.0,0.53,0.92,-4.02
2024-12-06 12:41:46.309,6.07,464.0,0.87,0.48,0.0,0.65,0.19,-4.08
2024-12-06 12:41:46.348,6.07,477.0,0.86,0.49,0.01,0.77,-0.18,-3.65
2024-12-06 12:41:46.354,6.52,479.0,0.86,0.48,-0.01,0.89,0.13,-4.2
2024-12-06 12:41:46.360,5.62,476.0,0.86,0.48,-0.01,0.83,0.62,-4.75
2024-12-06 12:41:46.368,7.65,472.0,0.85,0.48,-0.0,0.83,-0.12,-5.3
2024-12-06 12:41:46.377,5.17,478.0,0.86,0.48,0.0,0.83,-0.12,-5.3
2024-12-06 12:41:46.385,7.88,479.0,0.86,0.48,-0.0,0.53,0.0,-5.42
2024-12-06 12:41:46.392,7.42,478.0,0.86,0.48,0.0,0.65,-0.24,-5.6
2024-12-06 12:41:46.400,8.32,471.0,0.86,0.48,-0.0,0.4,-0.48,-5.6
2024-12-06 12:41:46.412,8.55,489.0,0.86,0.48,-0.0,0.47,-0.48,-5.85
2024-12-06 12:41:46.422,-1.57,477.0,0.85,0.48,-0.0,0.34,-0.36,-6.09
2024-12-06 12:41:46.433,10.35,492.0,0.85,0.48,-0.01,0.34,-0.36,-6.09
2024-12-06 12:41:46.436,5.4,474.0,0.85,0.49,0.0,0.28,0.25,-6.03
2024-12-06 12:41:46.439,7.42,477.0,0.86,0.49,0.0,0.28,-0.18,-5.91
2024-12-06 12:41:46.448,8.32,487.0,0.86,0.49,-0.0,0.28,1.04,-5.6
2024-12-06 12:41:46.464,4.72,463.0,0.86,0.49,0.0,-15.22,1.29,-5.54
2024-12-06 12:41:46.475,6.07,489.0,0.85,0.49,-0.0,0.34,1.29,-5.54
2024-12-06 12:41:46.480,3.82,486.0,0.86,0.49,0.0,0.28,1.04,-5.48
2024-12-06 12:41:46.485,8.32,523.0,0.86,0.5,0.0,0.1,0.86,-5.3
2024-12-06 12:41:46.493,6.07,486.0,0.86,0.5,-0.0,-0.02,0.37,-5.3
2024-12-06 12:41:46.504,10.12,471.0,0.86,0.5,-0.0,-0.27,0.49,-5.12
2024-12-06 12:41:46.509,12.6,487.0,0.86,0.5,0.0,-0.27,0.49,-5.12
2024-12-06 12:41:46.527,11.25,471.0,0.85,0.5,-0.0,-0.21,-0.61,-5.48
2024-12-06 12:41:46.531,4.05,470.0,0.85,0.5,-0.01,-0.27,0.31,-5.73
2024-12-06 12:41:46.533,9.68,477.0,0.86,0.5,0.0,-0.15,-0.06,-5.85
2024-12-06 12:41:46.540,8.1,469.0,0.86,0.5,0.0,-0.02,-0.3,-5.48
2024-12-06 12:41:46.572,9.22,487.0,0.85,0.51,-0.0,0.65,0.68,-5.6
2024-12-06 12:41:46.579,10.57,492.0,0.85,0.5,-0.01,1.14,0.07,-6.03
2024-12-06 12:41:46.585,9.9,495.0,0.85,0.5,-0.01,1.26,1.47,-6.4
2024-12-06 12:41:46.699,9.0,483.0,0.81,0.49,-0.01,0.47,1.35,-11.59
2024-12-06 12:41:46.708,9.0,483.0,0.81,0.5,0.01,0.4,-0.61,-12.07
2024-12-06 12:41:46.719,11.47,461.0,0.79,0.5,-0.01,0.28,-0.79,-13.11
2024-12-06 12:41:46.723,9.68,500.0,0.81,0.52,-0.02,0.71,2.14,-13.91
2024-12-06 12:41:46.729,9.9,491.0,0.81,0.52,-0.02,1.44,0.68,-13.84
2024-12-06 12:41:46.737,12.38,490.0,0.82,0.53,-0.02,1.44,0.68,-13.84
2024-12-06 12:41:46.744,15.07,478.0,0.84,0.55,-0.04,1.62,2.26,-13.36
2024-12-06 12:41:46.762,12.15,485.0,0.85,0.55,-0.03,1.99,2.32,-12.62
2024-12-06 12:41:46.766,14.17,496.0,0.84,0.55,-0.03,2.3,2.69,-11.77
2024-12-06 12:41:46.795,16.2,495.0,0.86,0.56,-0.01,1.81,2.57,-9.76
2024-12-06 12:41:46.800,11.7,483.0,0.87,0.56,-0.0,1.69,2.39,-8.84
2024-12-06 12:41:46.807,14.85,484.0,0.87,0.56,0.0,1.56,2.08,-7.92
2024-12-06 12:41:46.817,12.15,482.0,0.87,0.56,0.0,1.56,2.08,-7.25
2024-12-06 12:41:46.823,11.47,486.0,0.86,0.56,-0.0,1.56,1.96,-6.89
2024-12-06 12:41:46.831,14.4,486.0,0.86,0.55,0.0,1.56,1.96,-6.89
2024-12-06 12:41:46.838,11.02,481.0,0.85,0.55,0.01,1.56,1.65,-6.89
2024-12-06 12:41:46.847,18.0,504.0,0.85,0.55,0.02,1.5,1.71,-7.07
2024-12-06 12:41:46.853,18.23,495.0,0.85,0.55,0.01,1.69,1.47,-7.19
2024-12-06 12:41:46.861,16.2,486.0,0.85,0.55,0.01,2.11,1.47,-7.07
2024-12-06 12:41:46.872,14.4,479.0,0.85,0.56,0.0,2.78,1.35,-6.83
2024-12-06 12:41:46.881,20.7,483.0,0.85,0.56,-0.01,2.78,1.35,-6.83
2024-12-06 12:41:46.884,17.55,481.0,0.84,0.57,-0.02,3.58,0.8,-6.7
2024-12-06 12:41:46.892,14.17,494.0,0.84,0.57,-0.03,4.13,0.74,-6.7
2024-12-06 12:41:46.919,21.82,488.0,0.84,0.57,-0.02,4.55,0.62,-6.58
2024-12-06 12:41:46.924,16.2,502.0,0.84,0.57,-0.01,4.19,-0.67,-6.15
2024-12-06 12:41:46.929,16.42,494.0,0.82,0.57,-0.0,4.19,-0.67,-6.15
2024-12-06 12:41:46.932,18.0,491.0,0.81,0.57,0.0,3.88,-0.97,-6.28
2024-12-06 12:41:46.939,21.82,486.0,0.81,0.57,0.0,3.58,-0.48,-6.4
2024-12-06 12:41:46.950,14.4,482.0,0.82,0.58,0.0,3.64,-0.67,-6.28
2024-12-06 12:41:46.955,21.38,497.0,0.82,0.58,0.0,3.94,-0.36,-6.03
2024-12-06 12:41:46.966,22.5,478.0,0.82,0.57,-0.01,3.94,-0.36,-6.03
2024-12-06 12:41:46.979,22.05,474.0,0.81,0.57,-0.01,4.37,0.07,-6.03
2024-12-06 12:41:46.982,21.15,502.0,0.8,0.56,-0.0,4.8,0.55,-6.28
2024-12-06 12:41:46.987,25.42,486.0,0.81,0.56,0.01,4.8,1.04,-6.46
2024-12-06 12:41:47.22,24.07,497.0,0.81,0.56,0.01,4.8,0.98,-6.58
2024-12-06 12:41:47.25,19.57,480.0,0.81,0.55,-0.0,4.31,0.31,-7.62
2024-12-06 12:41:47.32,24.07,499.0,0.82,0.56,-0.01,4.13,-0.18,-7.44
2024-12-06 12:41:48.45,66.6,552.0,0.77,0.61,-0.03,-3.75,-4.08,-0.05
2024-12-06 12:41:48.68,64.8,550.0,0.77,0.61,-0.04,-3.32,-4.57,-0.17
2024-12-06 12:41:48.99,71.78,542.0,0.79,0.62,-0.03,-3.07,-5.49,0.99
2024-12-06 12:41:48.125,71.55,610.0,0.79,0.63,-0.03,-2.83,-5.43,1.35
2024-12-06 12:41:48.159,71.1,558.0,0.78,0.62,-0.03,-2.53,-4.94,1.6
2024-12-06 12:41:48.181,74.03,544.0,0.78,0.6,-0.03,-1.55,-4.57,0.8
2024-12-06 12:41:48.207,74.25,574.0,0.79,0.59,-0.03,-0.76,-4.15,0.5
2024-12-06 12:41:48.237,72.9,550.0,0.79,0.59,-0.04,-0.33,-3.11,0.5
2024-12-06 12:41:48.261,73.57,559.0,0.78,0.59,-0.04,0.22,-2.8,0.32
2024-12-06 12:41:48.292,72.0,571.0,0.78,0.6,-0.03,0.83,-2.38,0.56
2024-12-06 12:41:48.318,74.25,563.0,0.78,0.61,-0.03,0.53,-1.52,1.29
2024-12-06 12:41:48.346,78.75,566.0,0.78,0.58,-0.04,0.1,-2.5,1.17
2024-12-06 12:41:48.385,76.72,565.0,0.81,0.58,-0.04,-0.08,-4.15,1.05
2024-12-06 12:41:48.404,75.38,583.0,0.79,0.6,-0.03,0.04,-3.66,0.56
2024-12-06 12:41:48.428,79.65,568.0,0.78,0.61,-0.04,0.22,-4.76,0.13
2024-12-06 12:41:48.456,78.53,583.0,0.78,0.59,-0.04,-0.33,-5.18,0.19
2024-12-06 12:41:48.483,79.2,579.0,0.78,0.6,-0.04,-0.45,-4.27,0.5
2024-12-06 12:41:48.512,81.22,592.0,0.78,0.59,-0.04,-0.51,-2.68,-0.29
2024-12-06 12:41:48.548,85.28,575.0,0.78,0.6,-0.03,-0.21,-2.01,-1.09
2024-12-06 12:41:48.567,84.38,590.0,0.8,0.57,-0.05,0.59,-0.36,-1.82
2024-12-06 12:41:48.613,86.17,601.0,0.78,0.6,-0.04,2.17,0.31,-2.19
2024-12-06 12:41:49.904,88.42,581.0,0.79,0.59,-0.07,1.08,-0.67,-2.37
2024-12-06 12:41:49.914,85.95,582.0,0.79,0.59,-0.07,1.01,-0.79,-2.43
2024-12-06 12:41:49.918,87.97,581.0,0.79,0.59,-0.07,1.08,-0.85,-2.49
2024-12-06 12:41:49.928,82.57,592.0,0.79,0.59,-0.07,1.08,-0.85,-2.49
2024-12-06 12:41:49.968,83.92,580.0,0.78,0.59,-0.07,0.95,-0.79,-2.0
2024-12-06 12:41:49.975,85.28,607.0,0.78,0.59,-0.06,0.95,-0.79,-2.0
2024-12-06 12:41:49.986,83.47,595.0,0.78,0.59,-0.06,0.77,-0.54,-1.94
2024-12-06 12:41:49.988,85.95,597.0,0.78,0.59,-0.06,0.65,-0.36,-1.82
2024-12-06 12:41:50.1,87.3,589.0,0.78,0.59,-0.06,0.53,-0.24,-1.76
2024-12-06 12:41:50.9,82.12,598.0,0.78,0.59,-0.06,0.4,-0.24,-1.7
2024-12-06 12:41:50.13,87.07,601.0,0.78,0.59,-0.06,0.28,-0.18,-1.58
2024-12-06 12:41:50.27,85.72,582.0,0.78,0.59,-0.06,0.28,-0.18,-1.58
2024-12-06 12:41:50.29,87.3,594.0,0.78,0.59,-0.06,0.16,-0.18,-1.45
2024-12-06 12:41:50.35,83.7,597.0,0.78,0.59,-0.06,0.04,-0.12,-1.33
2024-12-06 12:41:50.44,87.52,574.0,0.78,0.59,-0.06,0.04,-0.06,-1.27
2024-12-06 12:41:50.52,88.42,586.0,0.78,0.59,-0.06,-0.02,0.0,-1.15
2024-12-06 12:41:50.61,88.2,580.0,0.79,0.59,-0.06,-0.02,0.07,-1.03
2024-12-06 12:41:50.67,86.4,590.0,0.79,0.59,-0.06,-0.02,0.07,-1.03
2024-12-06 12:41:50.74,86.17,589.0,0.79,0.59,-0.06,-0.08,0.07,-0.91
2024-12-06 12:41:50.86,86.62,586.0,0.79,0.59,-0.07,-0.08,-0.06,-0.72
2024-12-06 12:41:50.90,82.8,578.0,0.79,0.6,-0.07,-0.15,-0.18,-0.6
2024-12-06 12:41:50.101,86.4,601.0,0.79,0.6,-0.07,-0.21,-0.36,-0.48
2024-12-06 12:41:50.129,88.2,589.0,0.79,0.6,-0.07,-0.21,0.37,-0.17
2024-12-06 12:41:50.131,87.52,608.0,0.78,0.62,-0.07,-0.15,1.29,1.29
2024-12-06 12:41:50.144,85.05,589.0,0.78,0.62,-0.07,-0.08,3.12,1.9
2024-12-06 12:41:50.149,83.25,580.0,0.78,0.61,-0.07,0.1,2.69,2.57
2024-12-06 12:41:50.153,87.07,597.0,0.78,0.61,-0.07,0.1,2.69,2.57
2024-12-06 12:41:50.161,85.72,586.0,0.78,0.6,-0.07,-0.21,3.91,3.18
2024-12-06 12:41:50.167,85.72,580.0,0.78,0.59,-0.06,-0.08,3.91,3.43
2024-12-06 12:41:50.199,81.67,578.0,0.8,0.59,-0.05,-0.08,2.51,3.06
2024-12-06 12:41:50.216,81.9,594.0,0.8,0.59,-0.06,-0.15,1.77,2.51
2024-12-06 12:41:50.219,84.82,644.0,0.8,0.59,-0.05,-0.33,1.53,1.9
2024-12-06 12:41:50.224,84.38,582.0,0.8,0.59,-0.05,-0.39,0.43,1.29
2024-12-06 12:41:50.230,84.6,580.0,0.8,0.59,-0.05,-0.51,0.0,0.68
2024-12-06 12:41:50.248,82.12,596.0,0.79,0.58,-0.05,-0.51,0.0,-0.11
2024-12-06 12:41:50.255,87.52,579.0,0.78,0.57,-0.05,-0.45,-0.73,-0.11
2024-12-06 12:41:50.257,79.65,602.0,0.79,0.56,-0.06,-0.33,-0.73,-0.78
2024-12-06 12:41:50.260,84.38,580.0,0.79,0.59,-0.06,-0.51,-0.42,-0.97
2024-12-06 12:41:50.272,80.32,600.0,0.79,0.62,-0.05,-0.63,-0.73,-0.91
2024-12-06 12:41:50.277,81.0,571.0,0.78,0.6,-0.05,-0.27,-0.67,-1.21
2024-12-06 12:41:50.284,83.47,576.0,0.76,0.58,-0.05,-0.27,-0.67,-1.21
2024-12-06 12:41:50.303,84.15,580.0,0.77,0.58,-0.06,0.04,-0.79,-1.64
2024-12-06 12:41:50.313,83.03,573.0,0.79,0.58,-0.06,-0.08,-0.73,-1.76
2024-12-06 12:41:50.315,81.45,577.0,0.79,0.59,-0.06,-0.69,-0.18,-2.06
2024-12-06 12:41:50.324,82.35,594.0,0.78,0.59,-0.06,-0.57,-0.18,-2.13
2024-12-06 12:41:50.333,84.38,584.0,0.78,0.6,-0.06,-0.57,-0.18,-2.13
2024-12-06 12:41:50.340,84.82,581.0,0.78,0.6,-0.06,-0.45,-0.36,-2.06
2024-12-06 12:41:50.351,86.4,581.0,0.78,0.59,-0.06,-0.63,-0.42,-2.0
2024-12-06 12:41:50.370,85.5,583.0,0.79,0.59,-0.06,-0.82,-0.54,-1.94
2024-12-06 12:41:50.376,82.8,579.0,0.79,0.58,-0.05,-0.82,-0.54,-1.88
2024-12-06 12:41:50.379,83.7,594.0,0.79,0.59,-0.06,-0.82,-0.54,-1.88
2024-12-06 12:41:50.386,80.78,586.0,0.79,0.59,-0.06,-0.82,-0.36,-2.0
2024-12-06 12:41:50.424,85.5,591.0,0.79,0.59,-0.06,-0.51,0.0,-1.82
2024-12-06 12:41:50.428,83.25,576.0,0.79,0.59,-0.06,-0.45,0.0,-1.82
2024-12-06 12:41:50.432,83.7,582.0,0.79,0.59,-0.06,-0.45,0.07,-1.76
2024-12-06 12:41:50.440,85.05,579.0,0.79,0.59,-0.06,-0.33,0.07,-1.64
2024-12-06 12:41:50.450,84.15,582.0,0.79,0.59,-0.07,-0.21,0.13,-1.52
2024-12-06 12:41:50.460,84.38,654.0,0.79,0.59,-0.07,-0.02,0.25,-1.33
2024-12-06 12:41:50.464,86.62,581.0,0.79,0.59,-0.07,-0.02,0.25,-1.33
2024-12-06 12:41:50.471,81.0,589.0,0.79,0.6,-0.07,0.1,0.37,-1.15
2024-12-06 12:41:50.479,84.15,576.0,0.79,0.6,-0.07,0.28,0.43,-0.97
2024-12-06 12:41:50.488,81.22,569.0,0.79,0.6,-0.06,0.34,0.62,-0.84
2024-12-06 12:41:50.496,84.38,580.0,0.79,0.6,-0.06,0.4,0.68,-0.78
2024-12-06 12:41:50.503,82.12,590.0,0.79,0.6,-0.07,0.47,0.68,-0.66
2024-12-06 12:41:50.510,86.85,580.0,0.79,0.59,-0.07,0.47,0.68,-0.66
2024-12-06 12:41:50.520,81.67,584.0,0.79,0.59,-0.06,0.53,0.68,-0.6
2024-12-06 12:41:50.534,86.17,583.0,0.79,0.59,-0.06,0.59,0.68,-0.54
2024-12-06 12:41:50.541,85.28,601.0,0.79,0.59,-0.06,0.65,0.74,-0.6
2024-12-06 12:41:50.544,82.57,601.0,0.79,0.59,-0.06,0.71,0.8,-0.66
2024-12-06 12:41:50.551,82.35,594.0,0.79,0.59,-0.06,0.77,0.8,-0.72
2024-12-06 12:41:50.562,81.22,586.0,0.79,0.6,-0.06,0.77,0.8,-0.72
2024-12-06 12:41:50.565,81.22,570.0,0.79,0.6,-0.06,0.89,0.86,-0.78
2024-12-06 12:41:50.572,81.9,581.0,0.79,0.6,-0.06,0.83,0.8,-0.78
2024-12-06 12:41:50.580,81.9,567.0,0.79,0.6,-0.06,0.83,0.74,-0.91
2024-12-06 12:41:50.592,84.82,590.0,0.79,0.6,-0.06,0.71,0.62,-0.91
2024-12-06 12:41:50.596,81.0,582.0,0.79,0.59,-0.06,0.71,0.62,-0.91
2024-12-06 12:41:50.603,85.05,576.0,0.79,0.59,-0.06,0.65,0.43,-0.91
2024-12-06 12:41:50.646,80.55,585.0,0.79,0.59,-0.06,0.65,0.25,-0.91
2024-12-06 12:41:50.649,85.95,579.0,0.79,0.59,-0.06,0.4,-0.18,-1.21
2024-12-06 12:41:50.657,87.97,585.0,0.79,0.59,-0.06,0.34,-0.18,-1.33
2024-12-06 12:41:50.668,85.05,581.0,0.79,0.59,-0.06,0.22,-0.18,-1.52
2024-12-06 12:41:50.678,82.12,589.0,0.79,0.59,-0.06,0.16,-0.18,-1.64
2024-12-06 12:41:50.690,79.2,597.0,0.79,0.59,-0.06,0.16,-0.18,-1.64
2024-12-06 12:41:50.693,86.4,576.0,0.79,0.59,-0.06,0.16,-0.12,-1.76
2024-12-06 12:41:50.697,85.5,585.0,0.79,0.59,-0.06,0.1,-0.12,-1.76
2024-12-06 12:41:50.705,80.55,605.0,0.79,0.59,-0.06,-0.02,-0.12,-1.7
2024-12-06 12:41:50.711,84.15,574.0,0.79,0.59,-0.06,-0.21,-0.12,-1.58
2024-12-06 12:41:50.719,81.45,565.0,0.79,0.59,-0.06,-0.33,-0.06,-1.45
2024-12-06 12:41:50.730,84.15,577.0,0.79,0.59,-0.06,-0.33,-0.06,-1.45
2024-12-06 12:41:50.736,82.57,587.0,0.79,0.59,-0.06,-0.45,0.07,-1.39
2024-12-06 12:41:50.751,84.82,574.0,0.79,0.59,-0.05,-0.51,0.19,-1.27
2024-12-06 12:41:50.759,82.12,582.0,0.79,0.59,-0.05,-0.51,0.25,-1.27
2024-12-06 12:41:50.773,84.15,569.0,0.79,0.59,-0.05,-0.51,0.31,-1.27
2024-12-06 12:41:50.777,85.95,571.0,0.79,0.59,-0.05,-0.51,0.37,-1.27
2024-12-06 12:41:50.784,86.4,588.0,0.79,0.59,-0.06,-0.51,0.43,-1.27
2024-12-06 12:41:50.789,81.67,590.0,0.79,0.6,-0.06,-0.45,0.43,-1.27
2024-12-06 12:41:50.797,79.65,593.0,0.79,0.6,-0.06,-0.39,0.49,-1.27
2024-12-06 12:41:50.905,86.62,602.0,0.79,0.59,-0.06,0.34,0.25,-0.84
2024-12-06 12:41:50.915,83.7,576.0,0.79,0.59,-0.06,0.34,0.31,-0.72
2024-12-06 12:41:50.921,84.6,589.0,0.79,0.59,-0.05,0.4,0.37,-0.78
2024-12-06 12:41:50.926,84.38,588.0,0.79,0.59,-0.05,0.4,0.37,-0.78
2024-12-06 12:41:50.934,86.17,594.0,0.79,0.59,-0.05,0.34,0.37,-0.78
2024-12-06 12:41:50.944,85.72,587.0,0.79,0.59,-0.06,0.28,0.31,-0.84
2024-12-06 12:41:50.951,81.22,580.0,0.79,0.59,-0.06,0.28,0.13,-0.91
2024-12-06 12:41:50.960,86.85,579.0,0.79,0.59,-0.06,0.22,0.0,-0.97
2024-12-06 12:41:50.984,85.28,570.0,0.79,0.59,-0.06,0.22,-0.12,-0.91
2024-12-06 12:41:51.13,85.5,588.0,0.79,0.59,-0.06,0.28,-0.06,-0.84
2024-12-06 12:41:51.16,84.38,603.0,0.79,0.59,-0.06,0.4,-0.12,-0.78
2024-12-06 12:41:51.18,85.72,599.0,0.79,0.59,-0.06,0.34,-0.24,-0.78
2024-12-06 12:41:51.28,84.15,573.0,0.79,0.59,-0.06,0.16,-0.24,-0.97
2024-12-06 12:41:51.33,81.45,583.0,0.78,0.59,-0.05,0.1,-0.36,-1.15
2024-12-06 12:41:51.41,83.25,579.0,0.78,0.59,-0.05,0.16,-0.36,-1.33
2024-12-06 12:41:51.49,84.38,583.0,0.78,0.59,-0.05,0.16,-0.42,-1.45
2024-12-06 12:41:51.59,85.72,595.0,0.78,0.6,-0.05,0.16,-0.42,-1.45
2024-12-06 12:41:51.93,80.1,582.0,0.78,0.59,-0.05,0.1,-0.36,-1.58
2024-12-06 12:41:51.102,86.4,576.0,0.78,0.59,-0.06,-0.02,-0.18,-1.64
2024-12-06 12:41:51.110,84.38,578.0,0.78,0.59,-0.06,-0.02,0.0,-1.58
2024-12-06 12:41:51.113,82.35,593.0,0.78,0.6,-0.05,-0.02,0.19,-1.58
2024-12-06 12:41:51.118,83.03,573.0,0.78,0.6,-0.05,0.04,0.37,-1.58
2024-12-06 12:41:51.126,81.67,576.0,0.78,0.6,-0.05,-0.02,0.49,-1.64
2024-12-06 12:41:51.136,87.52,576.0,0.79,0.6,-0.05,-0.02,0.37,-1.7
2024-12-06 12:41:51.142,85.05,589.0,0.79,0.6,-0.05,-0.02,0.37,-1.7
2024-12-06 12:41:51.159,85.95,593.0,0.79,0.59,-0.06,-0.08,0.31,-1.76
2024-12-06 12:41:51.163,82.12,571.0,0.79,0.6,-0.06,-0.15,0.19,-1.82
2024-12-06 12:41:51.166,80.78,584.0,0.79,0.6,-0.06,-0.15,0.07,-1.88
2024-12-06 12:41:51.174,86.4,582.0,0.79,0.6,-0.06,-0.02,0.07,-1.88
2024-12-06 12:41:51.181,84.15,596.0,0.79,0.6,-0.06,0.1,0.19,-1.82
2024-12-06 12:41:51.193,83.92,587.0,0.79,0.6,-0.06,0.1,0.19,-1.82
2024-12-06 12:41:51.202,82.57,577.0,0.79,0.6,-0.06,0.1,0.31,-1.76
2024-12-06 12:41:51.210,84.38,573.0,0.79,0.59,-0.06,-0.02,0.43,-1.7
2024-12-06 12:41:51.218,81.45,589.0,0.79,0.59,-0.06,-0.02,0.49,-1.52
2024-12-06 12:41:51.224,85.28,568.0,0.79,0.59,-0.06,-0.02,0.43,-1.33
2024-12-06 12:41:51.229,83.03,573.0,0.79,0.6,-0.06,-0.02,0.31,-1.21
2024-12-06 12:41:51.240,80.55,574.0,0.79,0.6,-0.06,-0.02,0.31,-1.21
2024-12-06 12:41:51.245,88.2,586.0,0.79,0.6,-0.06,0.04,0.19,-1.09
2024-12-06 12:41:51.254,83.47,581.0,0.79,0.59,-0.06,0.04,0.0,-0.97
2024-12-06 12:41:51.266,80.32,574.0,0.79,0.59,-0.06,-0.02,-0.12,-0.91
2024-12-06 12:41:51.268,84.82,569.0,0.79,0.59,-0.06,-0.08,-0.24,-0.97
2024-12-06 12:41:51.285,83.25,595.0,0.79,0.59,-0.06,-0.21,-0.3,-1.03
2024-12-06 12:41:51.333,81.0,576.0,0.79,0.59,-0.06,-0.21,-0.3,-1.03
2024-12-06 12:41:51.335,84.82,576.0,0.78,0.6,-0.06,0.04,0.43,-1.58
2024-12-06 12:41:51.337,86.4,564.0,0.78,0.6,-0.06,-0.08,0.43,-1.64
2024-12-06 12:41:51.345,86.17,574.0,0.79,0.6,-0.06,-0.27,0.37,-1.7
2024-12-06 12:41:51.352,83.92,572.0,0.79,0.6,-0.06,-0.33,0.31,-1.64
2024-12-06 12:41:51.360,84.82,576.0,0.79,0.6,-0.06,-0.21,0.25,-1.58
2024-12-06 12:41:51.370,86.4,578.0,0.79,0.6,-0.06,-0.21,0.25,-1.58
2024-12-06 12:41:51.380,85.05,595.0,0.79,0.6,-0.06,-0.08,0.19,-1.52
2024-12-06 12:41:51.385,80.1,580.0,0.79,0.6,-0.06,0.04,0.13,-1.45
2024-12-06 12:41:51.395,80.55,592.0,0.79,0.6,-0.06,0.1,0.0,-1.39
2024-12-06 12:41:51.400,81.0,581.0,0.79,0.6,-0.06,0.1,-0.06,-1.33
2024-12-06 12:41:51.407,86.62,591.0,0.79,0.6,-0.06,0.1,-0.06,-1.33
2024-12-06 12:41:51.416,84.82,592.0,0.79,0.6,-0.06,0.04,-0.06,-1.33
2024-12-06 12:41:51.426,84.15,641.0,0.79,0.6,-0.05,0.04,0.0,-1.39
2024-12-06 12:41:51.431,81.45,577.0,0.79,0.6,-0.05,0.16,0.0,-1.45
2024-12-06 12:41:51.439,81.0,570.0,0.79,0.6,-0.05,0.22,0.0,-1.52
2024-12-06 12:41:51.447,79.42,570.0,0.79,0.6,-0.05,0.28,0.0,-1.52
2024-12-06 12:41:51.454,82.35,582.0,0.79,0.6,-0.06,0.28,0.0,-1.39
2024-12-06 12:41:51.463,86.62,573.0,0.79,0.6,-0.06,0.22,-0.06,-1.39
2024-12-06 12:41:51.474,81.67,566.0,0.78,0.6,-0.06,0.1,-0.12,-1.27
2024-12-06 12:41:51.479,81.9,574.0,0.78,0.6,-0.06,0.04,-0.12,-1.15
2024-12-06 12:41:51.486,81.22,570.0,0.78,0.6,-0.05,0.04,-0.06,-1.03
2024-12-06 12:41:51.494,82.35,576.0,0.78,0.6,-0.05,0.1,0.19,-1.03
2024-12-06 12:41:51.502,85.5,602.0,0.78,0.6,-0.05,0.1,0.19,-0.97
2024-12-06 12:41:51.511,81.0,581.0,0.78,0.6,-0.05,0.16,0.43,-0.97
2024-12-06 12:41:51.546,82.12,569.0,0.78,0.6,-0.06,0.04,0.25,-0.97
2024-12-06 12:41:51.553,84.82,589.0,0.78,0.6,-0.06,0.04,0.25,-0.97
2024-12-06 12:41:51.557,79.65,573.0,0.78,0.6,-0.05,0.04,0.13,-1.09
2024-12-06 12:41:51.563,81.45,564.0,0.78,0.6,-0.05,0.1,0.13,-1.09
2024-12-06 12:41:51.571,80.78,581.0,0.78,0.6,-0.05,0.16,0.13,-1.15
2024-12-06 12:41:51.582,83.7,574.0,0.78,0.6,-0.05,0.28,0.13,-1.15
2024-12-06 12:41:51.587,86.85,578.0,0.79,0.6,-0.06,0.28,0.13,-1.15
2024-12-06 12:41:51.595,85.72,594.0,0.79,0.6,-0.06,0.28,0.19,-1.15
2024-12-06 12:41:51.606,83.47,587.0,0.79,0.6,-0.06,0.22,0.13,-1.09
2024-12-06 12:41:51.622,82.12,551.0,0.79,0.6,-0.06,0.16,0.07,-0.78
2024-12-06 12:41:51.627,82.8,578.0,0.79,0.6,-0.06,0.16,-0.06,-0.66
2024-12-06 12:41:51.634,83.92,604.0,0.79,0.6,-0.06,0.16,-0.06,-0.66
2024-12-06 12:41:51.641,84.82,579.0,0.79,0.59,-0.05,0.16,-0.18,-0.48
2024-12-06 12:41:51.649,86.4,568.0,0.79,0.59,-0.05,0.16,-0.3,-0.42
2024-12-06 12:41:51.662,80.78,579.0,0.79,0.59,-0.05,0.1,-0.3,-0.36
2024-12-06 12:41:51.668,81.45,584.0,0.79,0.6,-0.05,0.04,-0.24,-0.54
2024-12-06 12:41:51.673,84.38,583.0,0.79,0.6,-0.05,0.04,-0.06,-0.6
2024-12-06 12:41:51.688,84.15,576.0,0.78,0.6,-0.05,0.04,-0.06,-0.78
2024-12-06 12:41:51.690,86.62,580.0,0.78,0.6,-0.05,0.1,0.13,-0.78
2024-12-06 12:41:51.712,83.7,584.0,0.78,0.6,-0.05,0.1,0.25,-0.84
2024-12-06 12:41:51.719,84.38,590.0,0.78,0.6,-0.05,0.16,0.25,-0.97
2024-12-06 12:41:51.736,87.07,576.0,0.79,0.6,-0.06,0.1,0.13,-0.91
2024-12-06 12:41:51.742,84.82,575.0,0.79,0.6,-0.06,0.22,-0.18,-0.78
2024-12-06 12:41:51.778,81.9,568.0,0.79,0.6,-0.06,0.34,-0.3,-0.78
2024-12-06 12:41:51.780,81.67,579.0,0.78,0.6,-0.06,0.47,-0.42,-0.84
2024-12-06 12:41:51.786,83.92,570.0,0.78,0.6,-0.06,0.47,-0.36,-0.91
2024-12-06 12:41:51.791,81.0,598.0,0.78,0.6,-0.05,0.47,-0.3,-1.03
2024-12-06 12:41:51.797,81.45,583.0,0.78,0.6,-0.05,0.4,-0.18,-1.15
2024-12-06 12:41:51.804,84.6,586.0,0.78,0.6,-0.05,0.47,-0.12,-1.21
2024-12-06 12:41:51.814,85.95,592.0,0.78,0.6,-0.05,0.47,-0.12,-1.21
2024-12-06 12:41:51.823,83.7,574.0,0.78,0.6,-0.06,0.53,-0.06,-1.21
2024-12-06 12:41:51.833,82.57,586.0,0.78,0.6,-0.06,0.59,-0.12,-1.21
2024-12-06 12:41:51.841,85.5,575.0,0.78,0.59,-0.06,0.53,-0.12,-1.21
2024-12-06 12:41:51.845,82.57,569.0,0.78,0.59,-0.06,0.4,-0.12,-1.21
2024-12-06 12:41:51.968,83.03,576.0,0.78,0.59,-0.06,0.34,-0.06,-1.21
2024-12-06 12:41:53.27,84.6,576.0,0.78,0.6,-0.06,0.1,0.13,-0.84
2024-12-06 12:41:53.31,79.65,585.0,0.74,0.75,-0.06,-1.37,5.01,3.98
2024-12-06 12:41:53.48,80.1,553.0,0.73,0.73,-0.07,-3.75,5.44,9.59
2024-12-06 12:41:53.80,72.67,530.0,0.78,0.58,-0.05,-6.86,3.67,12.4
2024-12-06 12:41:53.128,73.12,541.0,0.82,0.49,-0.04,-4.72,3.61,9.41
2024-12-06 12:41:53.135,72.9,534.0,0.85,0.53,-0.02,-0.21,0.8,4.47
2024-12-06 12:41:53.162,75.82,519.0,0.81,0.56,-0.02,0.59,-0.06,0.25
2024-12-06 12:41:53.186,72.45,511.0,0.79,0.56,-0.05,-0.27,-1.15,-0.36
2024-12-06 12:41:53.218,70.2,512.0,0.8,0.58,-0.05,1.01,1.96,2.45
2024-12-06 12:41:53.241,69.75,497.0,0.82,0.55,-0.05,3.09,7.08,5.75
2024-12-06 12:41:53.274,68.85,496.0,0.84,0.53,-0.05,4.43,6.78,5.81
2024-12-06 12:41:53.301,67.72,498.0,0.84,0.55,-0.04,4.62,4.89,3.79
2024-12-06 12:41:53.327,62.55,504.0,0.83,0.56,-0.05,5.96,3.67,2.45
2024-12-06 12:41:53.357,59.85,481.0,0.81,0.58,-0.04,5.84,3.97,4.16
2024-12-06 12:41:53.380,63.67,466.0,0.77,0.57,-0.04,5.71,6.9,5.14
2024-12-06 12:41:53.411,59.85,479.0,0.81,0.57,-0.04,6.08,8.12,5.56
2024-12-06 12:41:53.434,60.97,482.0,0.81,0.54,-0.04,6.75,7.82,5.99
2024-12-06 12:41:53.463,59.17,481.0,0.84,0.55,-0.04,6.93,6.47,4.28
2024-12-06 12:41:53.490,60.07,485.0,0.83,0.56,-0.04,6.87,4.16,4.28
2024-12-06 12:41:53.517,57.6,484.0,0.8,0.56,-0.03,6.2,3.12,4.4
2024-12-06 12:41:53.550,52.65,481.0,0.8,0.55,-0.02,6.26,3.79,3.98
2024-12-06 12:41:53.579,54.22,478.0,0.81,0.54,-0.01,6.08,4.52,4.16
2024-12-06 12:41:53.603,51.75,480.0,0.78,0.51,-0.01,5.16,4.64,3.06
2024-12-06 12:41:53.630,53.1,480.0,0.79,0.53,-0.01,4.43,5.31,-0.54
2024-12-06 12:41:53.660,53.32,477.0,0.81,0.54,-0.01,4.37,6.11,-1.09
2024-12-06 12:41:53.683,53.55,474.0,0.8,0.54,-0.03,4.43,6.23,-2.98
2024-12-06 12:41:53.713,48.38,492.0,0.82,0.56,-0.01,2.97,7.15,-3.22
2024-12-06 12:41:53.741,46.57,490.0,0.81,0.57,-0.01,1.81,6.9,-3.04
2024-12-06 12:41:53.766,50.4,479.0,0.8,0.57,-0.02,1.56,6.54,-4.51
2024-12-06 12:41:53.806,47.47,488.0,0.84,0.58,-0.03,1.99,4.22,-3.41
2024-12-06 12:41:53.823,44.32,471.0,0.8,0.56,-0.03,1.38,3.48,-4.2
2024-12-06 12:41:53.851,44.1,475.0,0.8,0.55,-0.03,0.83,2.08,-6.15
2024-12-06 12:41:53.878,43.2,539.0,0.82,0.56,-0.02,0.65,3.42,-3.9
2024-12-06 12:41:53.908,44.77,494.0,0.83,0.57,-0.03,0.83,4.95,-2.0
2024-12-06 12:41:53.933,38.25,480.0,0.84,0.58,-0.02,1.01,4.09,-0.72
2024-12-06 12:41:54.32,41.17,480.0,0.83,0.57,-0.01,0.89,2.32,-1.21
2024-12-06 12:41:54.34,38.02,483.0,0.81,0.56,-0.0,1.44,1.53,-0.91
2024-12-06 12:41:54.47,38.47,478.0,0.81,0.55,0.0,1.32,2.26,-0.42
2024-12-06 12:41:54.70,36.45,492.0,0.84,0.55,0.01,0.71,2.45,1.05
2024-12-06 12:41:54.108,31.95,490.0,0.84,0.56,-0.0,0.89,1.96,1.9
2024-12-06 12:41:54.125,33.52,488.0,0.83,0.56,-0.0,1.08,1.77,1.29
2024-12-06 12:41:54.153,33.08,480.0,0.84,0.57,0.01,1.14,0.62,2.51
2024-12-06 12:41:54.188,32.17,481.0,0.82,0.57,0.0,0.89,0.07,3.0
2024-12-06 12:41:54.210,31.05,482.0,0.84,0.57,0.01,0.16,-0.36,2.09
2024-12-06 12:41:54.268,27.0,498.0,0.83,0.54,-0.01,-0.57,-1.4,4.16
2024-12-06 12:41:54.271,31.27,496.0,0.8,0.54,-0.01,-1.06,-0.67,2.27
2024-12-06 12:41:54.292,25.65,484.0,0.82,0.55,-0.01,-1.92,0.13,2.88
2024-12-06 12:41:54.319,29.02,493.0,0.82,0.55,-0.01,-1.73,0.98,4.04
2024-12-06 12:41:54.370,22.95,516.0,0.83,0.54,0.01,-2.77,1.16,2.45
2024-12-06 12:41:54.377,24.97,481.0,0.84,0.53,0.0,-3.56,0.19,2.76
2024-12-06 12:41:54.402,24.3,505.0,0.84,0.53,0.01,-3.69,-0.42,2.82
2024-12-06 12:41:54.430,19.57,481.0,0.84,0.54,-0.03,-3.32,-0.36,3.31
2024-12-06 12:41:54.489,23.17,475.0,0.83,0.54,-0.02,-1.73,-0.18,2.88
2024-12-06 12:41:54.492,22.05,493.0,0.82,0.55,-0.02,-1.0,-0.97,1.23
2024-12-06 12:41:54.512,21.15,492.0,0.81,0.55,-0.01,-0.69,-0.67,0.32
2024-12-06 12:41:54.542,19.35,476.0,0.82,0.57,-0.01,-0.51,0.07,1.48
2024-12-06 12:41:54.572,13.27,473.0,0.84,0.55,0.01,-0.69,1.1,2.15
2024-12-06 12:41:54.596,15.52,473.0,0.88,0.55,0.01,-1.12,1.41,4.65
2024-12-06 12:41:54.626,16.42,483.0,0.85,0.52,-0.0,-1.12,-0.18,4.59
2024-12-06 12:41:54.675,11.47,480.0,0.87,0.52,0.01,-1.12,-1.22,4.95
2024-12-06 12:41:54.711,15.3,477.0,0.85,0.51,0.02,-0.51,-0.79,7.46
2024-12-06 12:41:54.734,13.95,494.0,0.85,0.51,0.01,-1.98,-1.52,6.79
2024-12-06 12:41:54.764,7.88,471.0,0.83,0.51,-0.04,-0.63,-0.42,6.36
2024-12-06 12:41:54.789,8.1,479.0,0.84,0.52,0.01,0.65,0.0,5.87
2024-12-06 12:41:54.843,10.12,500.0,0.84,0.52,-0.01,0.34,0.13,5.99
2024-12-06 12:41:54.846,6.3,492.0,0.83,0.51,-0.0,0.65,0.49,4.22
2024-12-06 12:41:54.874,4.28,477.0,0.87,0.51,0.01,0.71,1.53,5.26
2024-12-06 12:41:54.900,4.95,488.0,0.85,0.47,0.02,0.16,-0.36,5.69
2024-12-06 12:41:54.941,6.75,492.0,0.84,0.47,0.01,-0.63,-0.67,1.78
2024-12-06 12:41:54.959,3.82,489.0,0.88,0.48,0.01,-1.06,1.04,3.61
2024-12-06 12:41:54.983,2.25,496.0,0.87,0.48,0.02,-2.28,0.98,6.91
2024-12-06 12:41:56.392,2.92,493.0,0.87,0.47,0.0,-0.15,-0.67,-0.54
2024-12-06 12:41:56.402,0.45,459.0,0.88,0.47,0.01,0.1,-0.18,-0.6
2024-12-06 12:41:56.411,2.7,483.0,0.87,0.47,0.01,0.1,-0.18,-0.6
2024-12-06 12:41:56.418,3.6,467.0,0.87,0.47,0.01,0.16,-0.42,-0.66
2024-12-06 12:41:56.428,2.02,458.0,0.87,0.47,0.01,0.16,-0.06,-0.78
2024-12-06 12:41:56.432,1.12,465.0,0.87,0.47,0.01,0.22,0.07,-0.84
2024-12-06 12:41:56.440,5.4,470.0,0.87,0.47,0.01,0.22,0.43,-0.91
2024-12-06 12:41:56.448,-1.57,486.0,0.87,0.47,0.01,0.22,0.62,-0.78
2024-12-06 12:41:56.455,2.25,470.0,0.87,0.46,0.01,0.22,0.62,-0.78
2024-12-06 12:41:56.470,1.8,464.0,0.87,0.46,0.01,0.22,0.68,-0.72
2024-12-06 12:41:56.473,-1.57,468.0,0.87,0.46,0.01,0.22,0.68,-0.66
2024-12-06 12:41:56.478,1.35,468.0,0.88,0.46,0.01,0.22,0.55,-0.66
2024-12-06 12:41:56.487,1.35,465.0,0.88,0.46,0.01,0.28,0.43,-0.72
2024-12-06 12:41:56.496,1.57,470.0,0.87,0.46,0.01,0.28,0.43,-0.72
2024-12-06 12:41:56.502,-0.22,467.0,0.87,0.46,0.01,0.4,0.0,-1.15
2024-12-06 12:41:56.532,1.57,460.0,0.9,0.47,0.02,0.47,0.37,-1.39
2024-12-06 12:41:56.539,1.8,470.0,0.89,0.47,0.01,0.53,0.37,-0.91
2024-12-06 12:41:56.550,2.02,469.0,0.88,0.47,0.01,0.53,0.55,-0.91
2024-12-06 12:41:56.555,1.35,466.0,0.88,0.46,0.01,0.59,0.55,-1.15
2024-12-06 12:41:56.567,2.7,478.0,0.88,0.46,0.01,0.53,0.49,-1.15
2024-12-06 12:41:56.571,-1.12,470.0,0.88,0.46,0.01,0.65,0.19,-1.09
2024-12-06 12:41:56.580,0.9,466.0,0.89,0.46,0.01,0.65,0.19,-1.09
2024-12-06 12:41:56.596,-1.8,473.0,0.88,0.47,0.0,0.65,-0.18,-1.09
2024-12-06 12:41:56.601,1.8,467.0,0.88,0.47,0.0,0.65,-0.42,-1.21
2024-12-06 12:41:56.605,1.8,470.0,0.88,0.47,0.0,0.71,-0.54,-1.33
2024-12-06 12:41:56.613,-2.7,491.0,0.88,0.47,0.0,0.83,-0.67,-1.45
2024-12-06 12:41:56.620,-1.12,478.0,0.88,0.47,0.01,0.95,-0.73,-1.52
2024-12-06 12:41:56.625,-1.57,470.0,0.88,0.47,0.0,0.95,-0.73,-1.52
2024-12-06 12:41:56.634,1.57,465.0,0.87,0.47,0.0,1.08,-0.73,-1.52
2024-12-06 12:41:56.643,3.38,484.0,0.87,0.47,0.01,1.01,-0.67,-1.52
2024-12-06 12:41:56.649,1.8,477.0,0.87,0.47,0.0,1.08,-0.54,-1.52
2024-12-06 12:41:56.659,0.67,473.0,0.87,0.47,0.0,0.95,-0.36,-1.45
2024-12-06 12:41:56.664,-1.8,456.0,0.87,0.47,0.0,0.95,-0.24,-1.33
2024-12-06 12:41:56.674,3.15,469.0,0.87,0.47,0.0,0.83,-0.24,-1.33
2024-12-06 12:41:56.680,2.02,480.0,0.87,0.47,0.0,0.71,-0.18,-1.09
2024-12-06 12:41:56.691,-1.8,478.0,0.87,0.47,0.0,0.65,-0.06,-0.91
2024-12-06 12:41:56.703,1.8,466.0,0.87,0.47,0.01,0.59,0.0,-0.84
2024-12-06 12:41:56.706,1.35,465.0,0.87,0.47,0.01,0.47,0.07,-0.84
2024-12-06 12:41:56.713,2.02,470.0,0.87,0.47,0.01,0.47,0.07,-0.84
2024-12-06 12:41:56.718,0.22,465.0,0.87,0.47,0.01,0.47,0.19,-0.97
2024-12-06 12:41:56.753,-0.9,466.0,0.87,0.47,0.01,0.47,0.25,-1.15
2024-12-06 12:41:56.760,2.25,465.0,0.88,0.47,0.01,0.53,-0.06,-1.15
2024-12-06 12:41:56.765,1.12,461.0,0.88,0.47,0.01,0.53,-0.18,-1.09
2024-12-06 12:41:56.774,1.12,480.0,0.88,0.47,0.01,0.53,-0.24,-1.03
2024-12-06 12:41:56.782,1.35,463.0,0.88,0.47,0.01,0.47,-0.3,-1.09
2024-12-06 12:41:56.789,-1.57,490.0,0.88,0.47,0.01,0.47,-0.3,-1.09
2024-12-06 12:41:56.807,-0.45,455.0,0.87,0.47,0.01,0.4,-0.36,-1.09
2024-12-06 12:41:56.811,3.15,463.0,0.87,0.47,0.01,0.34,-0.36,-1.15
2024-12-06 12:41:56.813,1.12,484.0,0.87,0.47,0.0,0.34,-0.42,-1.15
2024-12-06 12:41:56.818,-2.7,472.0,0.87,0.47,0.0,0.34,-0.48,-1.09
2024-12-06 12:41:56.830,0.9,461.0,0.87,0.47,0.0,0.4,-0.42,-1.03
2024-12-06 12:41:56.836,3.38,454.0,0.87,0.47,0.0,0.4,-0.42,-1.03
2024-12-06 12:41:56.843,1.57,488.0,0.87,0.47,-0.0,0.47,-0.36,-1.03
2024-12-06 12:41:56.849,-2.25,459.0,0.86,0.47,0.0,0.53,-0.24,-1.15
2024-12-06 12:41:56.858,7.2,474.0,0.86,0.46,0.0,0.59,-0.12,-1.27
2024-12-06 12:41:56.863,0.45,485.0,0.86,0.46,0.0,0.59,0.0,-1.33
2024-12-06 12:41:56.881,4.28,477.0,0.87,0.47,0.01,0.59,0.0,-1.33
2024-12-06 12:41:56.890,1.57,453.0,0.87,0.47,0.01,0.59,0.19,-1.39
2024-12-06 12:41:56.893,1.35,472.0,0.87,0.47,0.01,0.59,0.37,-1.45
2024-12-06 12:41:56.897,1.12,467.0,0.87,0.47,0.01,0.53,0.55,-1.45
2024-12-06 12:41:56.907,-6.3,462.0,0.87,0.47,0.01,0.53,0.62,-1.39
2024-12-06 12:41:56.912,3.38,477.0,0.88,0.47,0.01,0.53,0.68,-1.27
2024-12-06 12:41:56.917,0.0,468.0,0.88,0.47,0.0,0.53,0.68,-1.27
2024-12-06 12:41:56.932,3.38,470.0,0.88,0.46,0.0,0.53,0.55,-1.27
2024-12-06 12:41:56.937,1.35,485.0,0.88,0.46,0.0,0.4,0.31,-1.21
2024-12-06 12:41:56.940,-1.8,471.0,0.88,0.46,0.0,0.34,0.0,-1.15
2024-12-06 12:41:56.980,1.35,464.0,0.87,0.47,0.0,0.16,-0.06,-1.45
2024-12-06 12:41:56.984,-1.35,464.0,0.87,0.47,0.0,0.16,0.19,-1.58
2024-12-06 12:41:56.987,2.7,476.0,0.87,0.47,0.0,0.16,0.49,-1.7
2024-12-06 12:41:56.993,1.12,456.0,0.87,0.47,0.0,0.16,0.49,-1.7
2024-12-06 12:41:57.2,1.8,471.0,0.87,0.47,-0.0,0.1,0.74,-1.64
2024-12-06 12:41:57.20,1.35,472.0,0.88,0.46,-0.0,-0.02,0.68,-1.52
2024-12-06 12:41:57.26,0.67,458.0,0.88,0.46,0.0,-0.33,0.37,-1.09
2024-12-06 12:41:57.33,0.9,486.0,0.88,0.46,0.0,-0.33,0.37,-1.09
2024-12-06 12:41:57.40,-0.67,471.0,0.88,0.47,0.0,-0.45,0.19,-0.97
2024-12-06 12:41:57.47,-1.12,464.0,0.88,0.47,0.0,-0.51,0.0,-0.91
2024-12-06 12:41:57.54,0.22,485.0,0.87,0.48,0.0,-0.51,-0.12,-0.91
2024-12-06 12:41:57.64,2.02,481.0,0.87,0.48,0.0,-0.33,-0.06,-0.78
2024-12-06 12:41:57.70,0.67,457.0,0.87,0.48,0.01,-0.33,-0.06,-0.78
2024-12-06 12:41:57.78,4.28,482.0,0.87,0.48,0.01,-0.21,0.07,-0.78
2024-12-06 12:41:57.86,-1.8,474.0,0.87,0.48,0.0,-0.02,0.25,-0.78
2024-12-06 12:41:57.185,-1.57,466.0,0.87,0.48,0.0,0.04,0.43,-0.66
2024-12-06 12:41:57.191,2.02,462.0,0.88,0.47,0.01,0.04,0.62,-0.48
2024-12-06 12:41:57.198,-4.05,466.0,0.88,0.47,0.01,0.04,0.37,-0.48
2024-12-06 12:41:57.205,1.8,465.0,0.87,0.47,0.01,0.04,0.07,-0.54
2024-12-06 12:41:57.218,0.22,465.0,0.87,0.47,0.01,0.1,-0.12,-0.66
2024-12-06 12:41:57.223,-3.6,483.0,0.87,0.47,0.01,0.1,-0.12,-0.66
2024-12-06 12:41:57.228,1.57,475.0,0.87,0.47,0.01,0.16,-0.24,-0.78
2024-12-06 12:41:57.237,-4.5,463.0,0.87,0.47,0.02,0.16,-0.3,-0.84
2024-12-06 12:41:57.247,-0.45,475.0,0.87,0.47,0.02,0.16,-0.18,-0.91
2024-12-06 12:41:57.252,-1.8,463.0,0.87,0.47,0.02,0.22,0.07,-0.91
2024-12-06 12:41:57.262,2.25,473.0,0.87,0.47,0.02,0.28,0.25,-0.84
2024-12-06 12:41:57.267,-0.67,471.0,0.87,0.47,0.02,0.28,0.25,-0.84
2024-12-06 12:41:57.275,1.12,455.0,0.88,0.47,0.01,0.28,0.49,-0.78
2024-12-06 12:41:57.282,1.35,459.0,0.88,0.47,0.01,0.28,0.62,-0.72
2024-12-06 12:41:57.290,2.7,480.0,0.88,0.47,0.01,0.4,0.37,-0.6
2024-12-06 12:41:57.299,1.57,473.0,0.88,0.47,0.01,0.4,0.55,-0.6
2024-12-06 12:41:57.308,-2.02,462.0,0.88,0.47,0.01,0.34,0.43,-0.72
2024-12-06 12:41:57.314,3.38,465.0,0.88,0.47,0.01,0.34,0.43,-0.72
2024-12-06 12:41:57.321,1.12,469.0,0.88,0.47,0.01,0.28,0.13,-0.78
2024-12-06 12:41:57.332,0.67,462.0,0.88,0.47,0.0,0.28,-0.06,-0.84
2024-12-06 12:41:57.340,1.12,462.0,0.88,0.47,0.0,0.34,-0.3,-1.03
2024-12-06 12:41:57.348,2.47,479.0,0.88,0.47,0.0,0.34,-0.36,-1.15
2024-12-06 12:41:57.352,2.02,475.0,0.88,0.47,0.01,0.34,-0.36,-1.15
2024-12-06 12:41:57.361,3.6,458.0,0.88,0.47,0.01,0.4,-0.3,-1.33
2024-12-06 12:41:57.369,-1.12,464.0,0.88,0.47,0.01,0.53,-0.18,-1.39
2024-12-06 12:41:57.381,4.05,476.0,0.88,0.47,0.0,0.71,0.0,-1.33
2024-12-06 12:41:57.392,3.82,466.0,0.87,0.46,-0.0,0.77,0.25,-1.27
2024-12-06 12:41:57.422,-2.92,479.0,0.87,0.46,-0.0,0.77,0.25,-1.27
2024-12-06 12:41:57.424,-3.82,471.0,0.87,0.47,-0.0,0.53,0.31,-1.27
2024-12-06 12:41:57.429,0.67,469.0,0.87,0.47,-0.0,0.53,0.25,-1.21
2024-12-06 12:41:57.437,3.6,465.0,0.88,0.47,-0.0,0.53,0.25,-1.21
2024-12-06 12:41:57.451,-1.35,462.0,0.88,0.47,-0.0,0.59,0.13,-1.21
2024-12-06 12:41:57.456,-1.12,478.0,0.88,0.47,0.0,0.65,0.07,-1.21
2024-12-06 12:41:57.460,2.02,477.0,0.88,0.47,0.0,0.71,0.0,-1.21
2024-12-06 12:41:57.468,1.35,468.0,0.88,0.47,0.0,0.65,-0.12,-1.21
2024-12-06 12:41:57.478,-0.45,461.0,0.87,0.47,0.01,0.65,-0.18,-1.27
2024-12-06 12:41:57.484,3.38,478.0,0.87,0.47,0.01,0.59,-0.18,-1.27
2024-12-06 12:41:57.491,-1.12,465.0,0.87,0.47,0.01,0.47,-0.18,-1.27
2024-12-06 12:41:57.499,0.22,481.0,0.87,0.48,0.01,0.4,-0.18,-1.21
2024-12-06 12:41:57.507,2.47,478.0,0.87,0.47,0.01,0.28,-0.06,-1.21
2024-12-06 12:41:57.523,-2.47,475.0,0.87,0.47,0.01,0.28,0.07,-1.09
2024-12-06 12:41:57.528,2.25,465.0,0.87,0.47,0.01,0.28,0.07,-1.09
2024-12-06 12:41:57.531,1.8,464.0,0.87,0.47,0.01,0.28,0.07,-1.03
2024-12-06 12:41:57.547,4.5,486.0,0.87,0.47,0.01,0.28,0.07,-0.97
2024-12-06 12:41:57.554,-2.25,458.0,0.87,0.47,0.01,0.34,0.13,-1.09
2024-12-06 12:41:57.557,-0.45,474.0,0.87,0.47,0.01,0.34,0.13,-1.03
2024-12-06 12:41:57.562,1.35,458.0,0.87,0.47,0.01,15.97,0.07,-1.09
2024-12-06 12:41:57.578,1.35,471.0,0.87,0.47,0.0,0.4,0.07,-1.09
2024-12-06 12:41:57.581,-1.12,459.0,0.87,0.47,0.01,0.4,-0.06,-1.03
2024-12-06 12:41:57.588,-0.45,466.0,0.87,0.47,0.01,0.47,-0.18,-1.03
2024-12-06 12:41:57.593,-0.67,455.0,0.87,0.47,0.01,0.59,-0.06,-1.03
2024-12-06 12:41:57.601,1.57,460.0,0.87,0.47,0.01,0.65,0.07,-1.15
2024-12-06 12:41:57.608,5.4,466.0,0.87,0.47,0.01,0.65,0.07,-1.15
2024-12-06 12:41:57.618,5.17,462.0,0.87,0.47,0.01,0.65,0.19,-1.15
2024-12-06 12:41:57.626,1.35,482.0,0.87,0.47,0.01,0.65,0.37,-1.15
2024-12-06 12:41:57.630,1.57,460.0,0.87,0.47,0.01,0.65,0.49,-1.09
2024-12-06 12:41:57.638,3.38,480.0,0.87,0.47,0.01,0.59,0.49,-1.03
2024-12-06 12:41:57.646,-1.12,478.0,0.88,0.47,0.01,0.53,0.43,-0.91
2024-12-06 12:41:57.658,2.02,472.0,0.88,0.47,0.01,0.53,0.43,-0.91
2024-12-06 12:41:57.662,-2.25,455.0,0.88,0.47,0.01,0.34,0.25,-0.91
2024-12-06 12:41:57.719,2.7,453.0,0.88,0.47,0.01,0.22,0.0,-0.84
2024-12-06 12:41:57.724,6.3,457.0,0.87,0.47,-0.0,0.59,-0.12,-1.39
2024-12-06 12:41:57.729,1.57,478.0,0.87,0.47,-0.0,0.59,-0.12,-1.39
2024-12-06 12:41:58.737,-6.97,484.0,0.87,0.48,0.0,0.16,0.13,-1.21
2024-12-06 12:41:58.805,-1.8,463.0,0.9,0.49,-0.01,0.04,0.8,-0.78
2024-12-06 12:41:58.808,-0.45,465.0,0.97,0.52,0.0,-0.21,1.41,9.53
2024-12-06 12:41:58.819,-2.47,463.0,0.8,0.45,-0.01,0.04,-1.46,5.32
2024-12-06 12:41:58.849,-3.38,469.0,0.81,0.46,0.0,0.71,-4.39,-3.1
2024-12-06 12:41:58.876,-6.3,469.0,0.84,0.48,-0.01,2.91,-0.3,-4.14
2024-12-06 12:41:58.905,-4.28,469.0,0.81,0.47,-0.05,4.74,2.69,-5.24
2024-12-06 12:41:58.931,-4.05,500.0,0.85,0.47,-0.01,3.21,0.8,-6.15
2024-12-06 12:41:58.957,-1.35,479.0,0.85,0.47,0.01,1.5,-0.73,-8.41
2024-12-06 12:41:59.9,-1.57,485.0,0.82,0.46,0.0,2.05,-1.09,-11.77
2024-12-06 12:41:59.17,5.4,484.0,0.85,0.48,-0.01,3.88,0.31,-13.97
2024-12-06 12:41:59.43,-0.45,489.0,0.84,0.5,-0.01,3.52,1.35,-12.5
2024-12-06 12:41:59.71,5.85,476.0,0.88,0.53,-0.01,3.15,2.51,-10.37
2024-12-06 12:41:59.95,7.2,479.0,0.86,0.52,0.0,3.64,2.87,-7.86
2024-12-06 12:41:59.123,6.3,485.0,0.88,0.52,0.01,3.52,2.51,-8.84
2024-12-06 12:41:59.151,6.52,490.0,0.87,0.51,0.0,3.33,0.19,-8.23
2024-12-06 12:41:59.178,9.68,476.0,0.83,0.51,0.0,2.36,-0.91,-8.9
2024-12-06 12:41:59.277,7.88,480.0,0.83,0.52,-0.0,2.11,0.68,-7.92
2024-12-06 12:41:59.281,11.02,480.0,0.83,0.52,-0.02,0.89,1.9,-6.22
2024-12-06 12:41:59.297,14.85,486.0,0.83,0.52,0.0,0.34,0.8,-7.56
2024-12-06 12:41:59.316,12.82,482.0,0.84,0.54,0.01,0.4,0.68,-7.19
2024-12-06 12:41:59.343,16.2,481.0,0.83,0.54,-0.01,0.65,0.8,-7.31
2024-12-06 12:41:59.371,18.0,482.0,0.84,0.54,-0.01,0.89,0.98,-6.52
2024-12-06 12:41:59.400,18.0,474.0,0.84,0.54,-0.02,1.2,0.86,-5.3
2024-12-06 12:41:59.426,15.07,490.0,0.85,0.55,-0.01,1.62,0.37,-4.81
2024-12-06 12:41:59.459,19.35,490.0,0.85,0.56,-0.0,1.62,-0.24,-2.8
2024-12-06 12:41:59.482,15.3,495.0,0.83,0.55,-0.0,1.62,-0.48,-3.47
2024-12-06 12:41:59.509,20.25,484.0,0.82,0.53,0.01,1.44,-0.97,-4.51
2024-12-06 12:41:59.539,20.7,495.0,0.8,0.53,0.0,0.59,-1.28,-5.67
2024-12-06 12:41:59.566,23.85,505.0,0.81,0.54,0.0,-0.21,-1.22,-7.13
2024-12-06 12:41:59.594,23.62,476.0,0.81,0.54,-0.02,-0.15,-0.85,-7.86
2024-12-06 12:41:59.620,23.85,484.0,0.82,0.56,-0.01,-0.02,-0.18,-7.8
2024-12-06 12:41:59.648,29.92,477.0,0.82,0.56,-0.02,-0.02,-0.79,-7.25
2024-12-06 12:41:59.684,27.67,487.0,0.83,0.57,-0.01,-0.15,-0.36,-5.97
2024-12-06 12:41:59.707,26.32,498.0,0.82,0.57,-0.02,0.53,-0.91,-5.24
2024-12-06 12:41:59.732,29.92,476.0,0.83,0.56,-0.0,0.47,-0.18,-5.91
2024-12-06 12:41:59.759,27.45,490.0,0.83,0.57,-0.02,0.53,-0.24,-4.26
2024-12-06 12:41:59.786,33.3,483.0,0.81,0.56,-0.01,0.47,-0.67,-4.99
2024-12-06 12:41:59.814,33.3,479.0,0.82,0.57,-0.0,-0.02,-1.09,-4.38
2024-12-06 12:41:59.842,32.85,502.0,0.79,0.57,-0.01,0.28,-0.79,-4.75
2024-12-06 12:41:59.869,32.17,506.0,0.82,0.58,-0.01,0.1,-0.42,-4.69
2024-12-06 12:41:59.908,35.55,480.0,0.8,0.58,-0.01,-0.45,-0.42,-3.22
2024-12-06 12:41:59.925,37.12,478.0,0.79,0.57,-0.0,-1.49,-1.83,-4.69
2024-12-06 12:41:59.957,36.67,480.0,0.8,0.58,-0.01,-1.67,-1.83,-5.42
2024-12-06 12:41:59.984,34.65,509.0,0.78,0.57,-0.01,-1.55,-1.58,-5.91
2024-12-06 12:42:00.12,39.38,500.0,0.8,0.58,-0.01,-1.98,-1.7,-6.76
2024-12-06 12:42:00.35,41.62,497.0,0.81,0.59,-0.01,-2.34,-1.95,-5.54
2024-12-06 12:42:00.67,43.42,480.0,0.8,0.59,-0.01,-3.01,-2.25,-5.42
2024-12-06 12:42:00.91,41.17,497.0,0.8,0.59,-0.01,-3.07,-1.83,-4.81
2024-12-06 12:42:00.135,42.52,493.0,0.8,0.59,-0.01,-2.77,-1.89,-4.38
2024-12-06 12:42:00.146,45.0,490.0,0.8,0.59,-0.01,-2.59,-2.01,-4.57
2024-12-06 12:42:00.177,46.12,489.0,0.79,0.58,-0.01,-2.34,-2.74,-5.73
2024-12-06 12:42:00.206,46.8,500.0,0.81,0.6,-0.0,-2.4,-2.74,-5.54
2024-12-06 12:42:00.229,46.57,488.0,0.79,0.61,-0.02,-1.85,-1.7,-4.38
2024-12-06 12:42:00.326,52.42,490.0,0.8,0.62,-0.01,-2.71,-2.31,-2.37
2024-12-06 12:42:00.336,48.38,490.0,0.8,0.6,-0.02,-3.26,-3.96,-1.7
2024-12-06 12:42:00.340,51.97,496.0,0.79,0.6,-0.01,-3.14,-3.41,-0.91
2024-12-06 12:42:00.367,55.57,490.0,0.78,0.59,-0.01,-2.71,-2.68,-2.06
2024-12-06 12:42:00.410,53.77,497.0,0.8,0.61,-0.02,-2.4,-2.92,-1.21
2024-12-06 12:42:00.423,55.57,500.0,0.78,0.57,-0.02,-2.65,-3.6,-1.45
2024-12-06 12:42:00.452,53.1,512.0,0.79,0.6,-0.02,-2.71,-4.27,-1.94
2024-12-06 12:42:00.488,57.6,498.0,0.8,0.62,-0.02,-2.28,-3.35,0.74
2024-12-06 12:42:00.506,56.47,514.0,0.78,0.61,-0.02,-2.22,-2.68,0.93
2024-12-06 12:42:00.535,61.65,510.0,0.79,0.6,-0.01,-2.04,-3.66,1.6
2024-12-06 12:42:00.586,57.38,514.0,0.79,0.6,-0.02,-2.4,-3.72,1.35
2024-12-06 12:42:00.601,61.65,518.0,0.79,0.59,-0.01,-1.98,-4.02,0.19
2024-12-06 12:42:00.637,61.65,512.0,0.79,0.6,-0.02,-1.98,-4.27,0.25
2024-12-06 12:42:00.651,62.32,536.0,0.78,0.59,-0.02,-1.73,-4.15,-0.72
2024-12-06 12:42:00.678,64.8,537.0,0.79,0.61,-0.02,-1.67,-6.04,-0.97
2024-12-06 12:42:00.699,63.9,529.0,0.78,0.6,-0.03,-2.28,-5.85,-0.72
2024-12-06 12:42:00.727,65.03,529.0,0.79,0.61,-0.03,-2.46,-5.79,-1.09
2024-12-06 12:42:00.755,64.12,576.0,0.78,0.6,-0.03,-2.04,-5.0,-0.48
2024-12-06 12:42:00.786,66.6,562.0,0.78,0.59,-0.04,-1.92,-4.15,-1.27
2024-12-06 12:42:00.811,68.4,544.0,0.79,0.59,-0.03,-1.3,-3.54,-1.03
2024-12-06 12:42:00.862,69.3,542.0,0.79,0.62,-0.03,-1.37,-3.47,-1.45
2024-12-06 12:42:00.872,70.42,557.0,0.79,0.6,-0.02,-1.18,-2.86,-1.76
2024-12-06 12:42:00.894,69.3,581.0,0.79,0.6,-0.03,-1.49,-2.62,-1.09
2024-12-06 12:42:00.921,71.78,585.0,0.79,0.6,-0.03,-1.61,-1.52,-0.66
2024-12-06 12:42:00.951,68.85,552.0,0.78,0.6,-0.02,-1.79,-2.68,-0.48
2024-12-06 12:42:00.980,71.1,553.0,0.79,0.6,-0.04,-2.1,-2.86,-0.36
2024-12-06 12:42:01.4,76.72,553.0,0.8,0.58,-0.03,-1.61,-2.92,-0.29
2024-12-06 12:42:01.44,71.32,575.0,0.79,0.58,-0.03,-1.24,-2.25,-0.91
2024-12-06 12:42:01.59,77.17,564.0,0.8,0.61,-0.03,-1.18,-4.08,-1.58
2024-12-06 12:42:01.86,72.9,573.0,0.79,0.6,-0.05,-1.55,-4.08,-1.76
2024-12-06 12:42:01.114,76.5,578.0,0.78,0.61,-0.04,-1.12,-3.54,-0.84
2024-12-06 12:42:01.143,80.1,581.0,0.77,0.61,-0.03,-0.82,-2.25,0.19
2024-12-06 12:42:01.170,77.62,581.0,0.78,0.6,-0.04,-0.94,-2.74,0.19
2024-12-06 12:42:01.197,81.22,583.0,0.79,0.61,-0.04,-1.0,-4.33,-0.48
2024-12-06 12:42:01.226,78.53,551.0,0.79,0.58,-0.05,-0.15,-4.02,-0.97
2024-12-06 12:42:01.267,84.82,583.0,0.78,0.57,-0.05,0.53,-4.27,-2.25
2024-12-06 12:42:01.281,87.75,597.0,0.78,0.59,-0.05,0.34,-2.92,-2.25
2024-12-06 12:42:01.389,86.85,588.0,0.78,0.61,-0.05,0.34,-2.5,-1.03
2024-12-06 12:42:02.639,85.95,607.0,0.79,0.6,-0.06,-0.21,-0.3,-1.09
2024-12-06 12:42:02.642,87.97,598.0,0.79,0.6,-0.06,0.04,-0.3,-0.72
2024-12-06 12:42:02.649,85.28,618.0,0.79,0.6,-0.06,0.04,-0.3,-0.72
2024-12-06 12:42:02.659,86.17,585.0,0.78,0.6,-0.06,0.04,-0.3,-0.66
2024-12-06 12:42:02.667,88.88,592.0,0.78,0.6,-0.06,0.1,-0.3,-0.72
2024-12-06 12:42:02.678,82.8,592.0,0.78,0.6,-0.06,0.16,-0.3,-0.78
2024-12-06 12:42:02.687,82.35,592.0,0.78,0.6,-0.06,0.28,-0.3,-0.84
2024-12-06 12:42:02.690,83.7,604.0,0.78,0.6,-0.06,0.34,-0.24,-0.91
2024-12-06 12:42:02.694,87.07,617.0,0.78,0.6,-0.06,0.34,-0.24,-0.91
2024-12-06 12:42:02.707,81.0,590.0,0.78,0.61,-0.05,0.34,-0.18,-0.91
2024-12-06 12:42:02.716,86.4,585.0,0.78,0.6,-0.05,0.28,-0.06,-0.91
2024-12-06 12:42:02.719,82.57,611.0,0.78,0.6,-0.05,0.22,-0.06,-0.84
2024-12-06 12:42:02.726,83.03,586.0,0.78,0.6,-0.05,0.16,0.0,-0.72
2024-12-06 12:42:02.737,88.42,585.0,0.78,0.6,-0.05,0.16,0.07,-0.66
2024-12-06 12:42:02.745,90.0,601.0,0.78,0.6,-0.05,0.16,0.07,-0.6
2024-12-06 12:42:02.750,83.7,590.0,0.78,0.6,-0.05,0.1,0.13,-0.6
2024-12-06 12:42:02.757,86.62,589.0,0.78,0.6,-0.05,0.1,0.25,-0.72
2024-12-06 12:42:02.765,86.85,600.0,0.78,0.6,-0.05,0.1,0.37,-0.84
2024-12-06 12:42:02.775,85.5,589.0,0.78,0.6,-0.05,0.1,0.43,-0.97
2024-12-06 12:42:02.782,87.3,589.0,0.78,0.6,-0.05,0.04,0.43,-1.15
2024-12-06 12:42:02.788,87.3,592.0,0.78,0.6,-0.05,0.04,0.43,-1.15
2024-12-06 12:42:02.797,83.47,590.0,0.78,0.6,-0.05,0.04,0.43,-1.27
2024-12-06 12:42:02.804,83.92,603.0,0.79,0.6,-0.06,0.04,0.37,-1.33
2024-12-06 12:42:02.812,83.92,593.0,0.79,0.6,-0.06,0.16,0.37,-1.33
2024-12-06 12:42:02.821,88.88,584.0,0.79,0.6,-0.06,0.28,0.25,-1.21
2024-12-06 12:42:02.829,88.2,593.0,0.79,0.6,-0.06,0.28,0.74,-1.03
2024-12-06 12:42:02.886,85.72,577.0,0.79,0.61,-0.07,0.28,0.74,-1.03
2024-12-06 12:42:02.890,86.4,576.0,0.79,0.6,-0.05,-0.02,-0.3,-0.78
2024-12-06 12:42:02.898,87.3,586.0,0.79,0.61,-0.05,0.1,-0.36,-1.21
2024-12-06 12:42:02.905,86.85,579.0,0.79,0.61,-0.05,0.34,-0.48,-1.45
2024-12-06 12:42:02.913,83.47,600.0,0.79,0.61,-0.05,0.34,-0.73,-1.39
2024-12-06 12:42:02.920,89.1,618.0,0.78,0.6,-0.06,0.47,-0.73,-1.39
2024-12-06 12:42:02.928,85.95,586.0,0.78,0.6,-0.06,0.34,-0.79,-1.27
2024-12-06 12:42:02.936,83.7,593.0,0.78,0.6,-0.06,0.1,-0.67,-1.09
2024-12-06 12:42:02.949,88.65,606.0,0.78,0.6,-0.05,0.04,-0.48,-0.91
2024-12-06 12:42:02.952,88.42,608.0,0.78,0.6,-0.05,0.1,-0.24,-0.72
2024-12-06 12:42:02.959,86.85,584.0,0.78,0.6,-0.05,0.16,0.07,-0.6
2024-12-06 12:42:02.968,88.2,587.0,0.78,0.61,-0.05,0.16,0.07,-0.6
2024-12-06 12:42:02.981,83.92,601.0,0.78,0.61,-0.06,0.34,0.25,-0.48
2024-12-06 12:42:02.983,81.67,599.0,0.78,0.6,-0.06,0.47,0.19,-0.42
2024-12-06 12:42:02.995,83.25,614.0,0.79,0.6,-0.06,0.4,0.07,-0.42
2024-12-06 12:42:02.999,87.52,591.0,0.79,0.6,-0.06,0.28,-0.12,-0.54
2024-12-06 12:42:03.10,89.1,587.0,0.79,0.6,-0.06,0.28,-0.18,-0.6
2024-12-06 12:42:03.17,86.85,583.0,0.78,0.6,-0.05,0.28,-0.18,-0.6
2024-12-06 12:42:03.24,85.95,616.0,0.78,0.6,-0.05,0.4,-0.12,-0.78
2024-12-06 12:42:03.37,88.42,589.0,0.78,0.61,-0.05,0.53,-0.06,-0.91
2024-12-06 12:42:03.43,87.3,588.0,0.78,0.6,-0.05,0.65,0.07,-0.97
2024-12-06 12:42:03.48,85.72,584.0,0.78,0.6,-0.05,0.65,0.13,-0.84
2024-12-06 12:42:03.56,83.03,583.0,0.78,0.6,-0.05,0.65,0.13,-0.84
2024-12-06 12:42:03.92,87.52,583.0,0.78,0.6,-0.05,0.34,0.07,-0.6
2024-12-06 12:42:03.96,89.1,607.0,0.78,0.6,-0.05,0.34,0.07,-0.6
2024-12-06 12:42:03.101,83.92,581.0,0.78,0.6,-0.05,0.4,0.0,-0.6
2024-12-06 12:42:03.108,86.17,595.0,0.78,0.6,-0.05,0.34,0.07,-0.6
2024-12-06 12:42:03.118,89.1,583.0,0.78,0.59,-0.05,0.28,0.07,-0.6
2024-12-06 12:42:03.154,86.17,612.0,0.78,0.6,-0.05,0.1,0.31,-0.84
2024-12-06 12:42:03.159,81.67,610.0,0.78,0.6,-0.05,0.04,0.49,-0.97
2024-12-06 12:42:03.163,86.17,600.0,0.78,0.6,-0.05,0.1,0.43,-1.09
2024-12-06 12:42:03.175,81.9,598.0,0.78,0.6,-0.05,0.1,0.43,-1.21
2024-12-06 12:42:03.180,84.15,587.0,0.78,0.6,-0.06,0.1,0.43,-1.21
2024-12-06 12:42:03.186,85.95,586.0,0.78,0.6,-0.06,0.04,0.31,-1.27
2024-12-06 12:42:03.190,81.0,624.0,0.79,0.6,-0.06,-0.02,0.25,-1.27
2024-12-06 12:42:03.198,83.7,598.0,0.79,0.6,-0.06,0.04,0.13,-1.21
2024-12-06 12:42:03.206,89.1,577.0,0.79,0.6,-0.06,0.1,-0.06,-1.09
2024-12-06 12:42:03.213,87.3,580.0,0.79,0.6,-0.06,0.1,-0.06,-1.09
2024-12-06 12:42:03.222,81.9,588.0,0.79,0.6,-0.06,0.16,-0.24,-1.03
2024-12-06 12:42:03.230,82.57,591.0,0.79,0.6,-0.06,0.22,-0.3,-1.03
2024-12-06 12:42:03.240,88.65,598.0,0.78,0.6,-0.06,0.22,-0.42,-1.03
2024-12-06 12:42:03.247,83.92,590.0,0.78,0.6,-0.06,0.16,-0.48,-1.09
2024-12-06 12:42:03.253,76.28,588.0,0.78,0.6,-0.06,0.16,-0.48,-1.21
2024-12-06 12:42:03.262,83.25,590.0,0.78,0.6,-0.06,0.22,-0.48,-1.27
2024-12-06 12:42:03.280,84.82,584.0,0.78,0.6,-0.06,0.22,-0.48,-1.27
2024-12-06 12:42:03.304,85.72,581.0,0.78,0.6,-0.06,0.1,-0.42,-1.21
2024-12-06 12:42:03.309,85.05,584.0,0.78,0.6,-0.06,0.1,-0.42,-1.21
2024-12-06 12:42:03.315,83.25,596.0,0.78,0.6,-0.05,0.1,-0.36,-1.21
2024-12-06 12:42:03.327,87.07,576.0,0.78,0.6,-0.05,0.22,-0.24,-1.15
2024-12-06 12:42:03.332,85.28,587.0,0.78,0.6,-0.05,0.28,-0.12,-1.15
2024-12-06 12:42:03.339,89.1,599.0,0.78,0.6,-0.05,0.28,0.0,-1.15
2024-12-06 12:42:03.348,86.4,595.0,0.78,0.6,-0.05,0.1,0.0,-1.21
2024-12-06 12:42:03.356,84.6,600.0,0.78,0.6,-0.05,0.1,0.0,-1.21
2024-12-06 12:42:03.363,83.03,565.0,0.78,0.6,-0.05,0.04,-0.06,-1.15
2024-12-06 12:42:03.375,85.95,575.0,0.78,0.6,-0.05,-0.02,-0.06,-1.09
2024-12-06 12:42:03.377,88.88,580.0,0.78,0.6,-0.06,0.1,-0.18,-1.03
2024-12-06 12:42:03.474,84.38,586.0,0.78,0.6,-0.06,0.16,-0.18,-1.09
2024-12-06 12:42:03.483,83.47,599.0,0.78,0.6,-0.05,0.1,0.13,-0.72
2024-12-06 12:42:03.498,87.07,580.0,0.78,0.6,-0.05,0.1,0.19,-0.78
2024-12-06 12:42:03.527,85.95,591.0,0.78,0.6,-0.05,0.04,0.31,-0.91
2024-12-06 12:42:03.532,87.07,576.0,0.78,0.61,-0.05,0.04,0.37,-1.09
2024-12-06 12:42:03.539,88.88,588.0,0.78,0.61,-0.06,0.04,0.31,-1.09
2024-12-06 12:42:03.545,85.95,585.0,0.79,0.6,-0.06,-0.02,0.25,-1.03
2024-12-06 12:42:03.552,84.82,585.0,0.79,0.6,-0.06,-0.02,0.25,-1.03
2024-12-06 12:42:03.567,86.85,602.0,0.79,0.6,-0.06,0.04,0.19,-0.97
2024-12-06 12:42:03.576,85.28,585.0,0.79,0.6,-0.06,0.16,0.0,-0.84
2024-12-06 12:42:03.578,86.17,583.0,0.79,0.6,-0.06,0.22,-0.12,-0.66
2024-12-06 12:42:03.584,84.38,616.0,0.79,0.6,-0.06,0.34,-0.24,-0.54
2024-12-06 12:42:03.593,84.6,586.0,0.79,0.6,-0.06,0.34,-0.36,-0.54
2024-12-06 12:42:03.604,83.03,581.0,0.79,0.6,-0.06,0.34,-0.36,-0.54
2024-12-06 12:42:03.615,85.95,596.0,0.78,0.6,-0.06,0.34,-0.48,-0.6
2024-12-06 12:42:03.619,84.15,592.0,0.78,0.6,-0.05,0.34,-0.48,-0.66
2024-12-06 12:42:03.623,88.42,603.0,0.78,0.61,-0.05,0.4,-0.48,-0.78
2024-12-06 12:42:04.790,88.42,577.0,0.78,0.61,-0.05,-0.02,0.13,-1.52
2024-12-06 12:42:04.794,83.25,543.0,0.83,0.51,-0.04,-4.66,1.41,7.4
2024-12-06 12:42:04.797,76.28,517.0,0.84,0.53,-0.02,-0.51,-1.28,1.72
2024-12-06 12:42:04.825,75.82,523.0,0.79,0.58,-0.03,0.65,-1.46,-1.64
2024-12-06 12:42:04.852,74.7,519.0,0.78,0.57,-0.04,-0.02,-0.79,-1.64
2024-12-06 12:42:04.887,73.35,513.0,0.78,0.6,-0.04,-0.02,1.96,1.96
2024-12-06 12:42:04.910,71.1,500.0,0.79,0.58,-0.04,0.4,5.99,3.98
2024-12-06 12:42:04.933,71.32,501.0,0.83,0.56,-0.04,1.14,5.74,4.4
2024-12-06 12:42:04.962,70.65,494.0,0.83,0.56,-0.05,0.95,3.12,3.18
2024-12-06 12:42:04.989,68.62,490.0,0.84,0.57,-0.04,1.62,0.31,2.57
2024-12-06 12:42:05.18,63.0,507.0,0.82,0.58,-0.04,2.72,1.96,3.25
2024-12-06 12:42:05.45,66.15,501.0,0.79,0.55,-0.05,3.09,3.0,3.61
2024-12-06 12:42:05.73,63.45,490.0,0.81,0.56,-0.03,3.64,4.77,4.28
2024-12-06 12:42:05.119,63.22,487.0,0.8,0.57,-0.04,3.64,5.5,5.26
2024-12-06 12:42:05.131,63.67,483.0,0.82,0.57,-0.03,3.64,5.68,3.67
2024-12-06 12:42:05.156,64.35,480.0,0.81,0.57,-0.04,4.01,4.64,3.92
2024-12-06 12:42:05.186,60.3,481.0,0.8,0.57,-0.04,4.07,4.09,3.92
2024-12-06 12:42:05.213,60.52,476.0,0.81,0.56,-0.03,4.74,3.79,2.88
2024-12-06 12:42:05.238,63.22,504.0,0.82,0.57,-0.02,4.37,3.24,2.63
2024-12-06 12:42:05.267,55.12,497.0,0.79,0.55,-0.02,3.94,3.97,2.57
2024-12-06 12:42:05.301,53.77,472.0,0.81,0.55,-0.02,3.58,3.61,1.35
2024-12-06 12:42:05.334,53.55,476.0,0.8,0.54,-0.02,3.46,4.16,0.86
2024-12-06 12:42:05.352,50.17,471.0,0.81,0.54,-0.02,3.52,4.03,-2.0
2024-12-06 12:42:05.382,51.3,474.0,0.83,0.55,-0.02,3.27,3.85,-2.06
2024-12-06 12:42:05.406,52.65,475.0,0.8,0.54,-0.03,3.27,4.03,-3.47
2024-12-06 12:42:05.432,54.9,474.0,0.82,0.54,-0.02,3.39,3.0,-3.83
2024-12-06 12:42:05.462,54.45,489.0,0.82,0.55,-0.02,3.21,3.85,-3.04
2024-12-06 12:42:05.566,50.62,483.0,0.81,0.55,-0.03,3.33,3.97,-3.71
2024-12-06 12:42:05.569,48.15,482.0,0.83,0.58,-0.03,3.39,3.12,-0.97
2024-12-06 12:42:05.588,48.82,487.0,0.83,0.57,-0.02,2.72,2.32,-0.29
2024-12-06 12:42:05.598,43.65,489.0,0.82,0.57,-0.02,3.09,2.57,0.13
2024-12-06 12:42:05.625,45.45,474.0,0.8,0.56,-0.02,3.09,2.32,1.05
2024-12-06 12:42:05.656,39.83,482.0,0.82,0.56,-0.01,2.91,2.39,-1.27
2024-12-06 12:42:05.681,45.22,490.0,0.83,0.57,-0.01,2.3,2.81,0.74
2024-12-06 12:42:05.712,42.3,493.0,0.8,0.55,-0.01,1.75,2.39,0.01
2024-12-06 12:42:05.736,40.5,475.0,0.83,0.56,-0.01,1.44,2.45,0.01
2024-12-06 12:42:05.791,40.27,474.0,0.82,0.56,-0.01,1.2,3.0,0.32
2024-12-06 12:42:05.794,39.38,476.0,0.8,0.56,-0.03,1.44,2.87,-2.13
2024-12-06 12:42:05.819,34.42,486.0,0.84,0.57,-0.02,1.38,3.3,0.01
2024-12-06 12:42:05.848,34.88,487.0,0.8,0.56,-0.03,1.44,3.36,-1.09
2024-12-06 12:42:05.874,35.55,485.0,0.83,0.57,-0.02,1.99,3.48,-0.66
2024-12-06 12:42:05.902,34.42,472.0,0.82,0.56,-0.03,2.78,3.54,0.38
2024-12-06 12:42:05.932,36.22,497.0,0.82,0.56,-0.02,3.09,2.93,-1.03
2024-12-06 12:42:05.959,32.85,480.0,0.83,0.56,-0.01,3.15,2.87,-0.72
2024-12-06 12:42:05.986,28.8,475.0,0.81,0.55,-0.01,2.97,2.69,-0.54
2024-12-06 12:42:06.22,33.08,493.0,0.81,0.55,-0.01,2.6,2.69,-1.09
2024-12-06 12:42:06.40,29.7,481.0,0.81,0.54,-0.02,2.6,2.57,-0.78
2024-12-06 12:42:06.70,27.9,482.0,0.84,0.55,-0.01,2.6,1.84,-0.66
2024-12-06 12:42:06.106,30.82,491.0,0.82,0.56,-0.0,1.44,2.02,-0.17
2024-12-06 12:42:06.124,24.3,478.0,0.83,0.56,-0.0,0.89,2.93,1.11
2024-12-06 12:42:06.153,23.17,498.0,0.83,0.55,-0.0,0.95,3.18,1.72
2024-12-06 12:42:06.180,18.67,481.0,0.85,0.56,-0.0,0.65,2.69,3.25
2024-12-06 12:42:06.209,23.62,476.0,0.83,0.55,-0.01,0.71,0.86,3.31
2024-12-06 12:42:06.258,21.82,479.0,0.83,0.56,0.01,0.34,-0.06,2.57
2024-12-06 12:42:06.262,22.5,478.0,0.82,0.55,0.0,0.65,0.0,2.88
2024-12-06 12:42:06.289,16.42,494.0,0.81,0.54,0.0,0.65,0.74,1.35
2024-12-06 12:42:06.318,18.67,492.0,0.84,0.55,0.0,-0.15,0.74,2.02
2024-12-06 12:42:06.345,19.8,481.0,0.84,0.55,-0.01,-0.51,0.74,4.59
2024-12-06 12:42:06.372,18.67,479.0,0.84,0.55,0.01,-1.3,-0.12,5.08
2024-12-06 12:42:06.402,16.65,482.0,0.83,0.53,-0.0,-1.3,-0.79,5.08
2024-12-06 12:42:06.430,10.8,497.0,0.82,0.53,-0.01,-0.69,-1.15,3.67
2024-12-06 12:42:06.466,14.85,481.0,0.83,0.54,-0.01,-0.27,-1.34,2.7
2024-12-06 12:42:06.483,9.9,492.0,0.8,0.53,-0.01,0.47,-1.09,1.78
2024-12-06 12:42:06.512,10.8,508.0,0.82,0.55,-0.01,0.28,0.13,0.19
2024-12-06 12:42:06.614,11.02,534.0,0.84,0.55,-0.01,0.04,0.37,1.72
2024-12-06 12:42:06.617,11.92,477.0,0.85,0.53,0.01,-1.49,-1.15,1.54
2024-12-06 12:42:06.624,7.88,482.0,0.86,0.52,0.01,-2.1,15.02,3.37
2024-12-06 12:42:06.651,9.22,480.0,0.88,0.54,0.0,-1.18,1.04,5.93
2024-12-06 12:42:06.693,-2.7,472.0,0.89,0.54,-0.02,-0.82,0.86,9.35
2024-12-06 12:42:06.704,2.92,474.0,0.86,0.51,-0.0,-0.82,-1.64,10.02
2024-12-06 12:42:06.739,5.4,484.0,0.86,0.51,0.0,-0.45,-2.99,6.97
2024-12-06 12:42:06.759,-0.67,484.0,0.87,0.52,-0.01,0.59,-1.22,10.14
