Timestamp,PosIsDeg,ForceIs,AccX,AccY,AccZ,GyroX,GyroY,GyroZ
2024-12-06 13:22:47.806,31.72,526.0,0.09,0.98,-0.02,0.65,1.11,4.32
2024-12-06 13:22:47.808,26.55,519.0,0.11,0.99,-0.03,-0.02,4.22,6.15
2024-12-06 13:22:47.814,21.6,532.0,0.17,1.06,-0.03,-0.51,9.47,17.01
2024-12-06 13:22:47.842,20.48,522.0,0.12,1.02,-0.06,-0.7,13.86,20.67
2024-12-06 13:22:47.874,17.55,528.0,0.08,0.96,-0.08,1.99,12.89,20.98
2024-12-06 13:22:47.926,19.35,515.0,0.12,0.96,0.06,1.26,10.93,20.25
2024-12-06 13:22:47.960,14.62,521.0,0.13,0.97,-0.0,-0.51,1.66,12.56
2024-12-06 13:22:47.984,11.92,519.0,0.12,0.97,-0.0,0.46,1.23,8.22
2024-12-06 13:22:48.7,12.82,539.0,0.13,0.97,-0.0,1.75,1.9,2.55
2024-12-06 13:22:48.58,14.62,513.0,0.13,0.97,-0.02,2.48,2.21,-0.08
2024-12-06 13:22:48.73,13.27,515.0,0.16,0.99,-0.02,1.62,1.17,2.61
2024-12-06 13:22:48.91,11.25,513.0,0.14,0.99,-0.04,-0.08,-0.24,6.76
2024-12-06 13:22:48.120,8.55,512.0,0.13,0.99,-0.03,-0.76,1.84,9.57
2024-12-06 13:22:48.172,11.92,504.0,0.14,0.98,-0.02,0.1,8.8,11.15
2024-12-06 13:22:48.177,8.1,518.0,0.14,0.98,-0.01,0.46,12.09,10.97
2024-12-06 13:22:48.201,4.28,509.0,0.16,0.98,-0.01,0.53,12.52,10.85
2024-12-06 13:22:48.230,0.67,517.0,0.16,0.98,-0.01,0.59,10.02,10.42
2024-12-06 13:22:48.256,6.97,510.0,0.16,0.97,-0.01,0.77,7.21,8.28
2024-12-06 13:22:48.306,3.15,509.0,0.18,0.97,-0.03,1.62,6.78,7.73
2024-12-06 13:22:48.312,-0.9,499.0,0.15,0.97,-0.03,2.6,6.05,7.92
2024-12-06 13:22:49.638,2.7,522.0,0.15,0.96,-0.04,3.64,11.73,5.29
2024-12-06 13:22:49.644,-1.8,516.0,0.19,0.94,-0.06,4.74,12.22,6.21
2024-12-06 13:22:49.651,0.9,533.0,0.19,0.95,-0.06,4.98,12.4,6.21
2024-12-06 13:22:49.668,0.9,527.0,0.2,0.95,-0.05,5.47,12.34,5.66
2024-12-06 13:22:49.673,1.57,511.0,0.2,0.96,-0.04,5.47,12.34,5.66
2024-12-06 13:22:49.697,-4.95,517.0,0.2,0.98,-0.01,5.77,11.79,4.93
2024-12-06 13:22:49.711,0.0,520.0,0.21,0.99,0.01,5.04,11.85,4.5
2024-12-06 13:22:49.715,2.7,515.0,0.22,1.0,0.01,5.04,11.85,4.5
2024-12-06 13:22:49.725,0.67,523.0,0.23,1.0,0.0,4.68,12.09,4.74
2024-12-06 13:22:49.730,-2.7,514.0,0.23,1.0,-0.01,4.13,12.58,5.23
2024-12-06 13:22:49.734,3.82,511.0,0.24,1.0,-0.01,3.39,13.38,6.03
2024-12-06 13:22:49.768,0.9,527.0,0.24,1.0,-0.01,2.6,13.8,7.06
2024-12-06 13:22:49.784,2.92,514.0,0.26,0.95,-0.02,0.83,9.71,12.37
2024-12-06 13:22:49.791,0.67,536.0,0.25,0.94,-0.02,0.83,9.71,12.92
2024-12-06 13:22:49.797,0.0,532.0,0.24,0.93,-0.02,0.16,8.0,12.92
2024-12-06 13:22:49.802,1.12,539.0,0.24,0.92,-0.0,-0.57,5.68,12.98
2024-12-06 13:22:49.902,0.67,536.0,0.23,0.92,0.01,-1.49,2.21,12.49
2024-12-06 13:22:49.910,0.22,519.0,0.2,0.96,0.0,0.16,-22.09,3.89
2024-12-06 13:22:49.923,2.47,525.0,0.19,0.98,-0.01,-0.08,-21.84,2.55
2024-12-06 13:22:49.927,3.6,532.0,0.19,0.99,-0.02,-0.45,-20.87,1.63
2024-12-06 13:22:49.936,-1.12,506.0,0.18,0.99,-0.03,-0.63,-19.22,1.26
2024-12-06 13:22:49.949,-4.72,517.0,0.18,0.99,-0.06,-0.82,-16.65,1.14
2024-12-06 13:22:49.952,-2.47,516.0,0.17,0.97,-0.04,-0.94,-13.3,1.14
2024-12-06 13:22:49.960,-4.72,509.0,0.15,0.95,-0.04,-0.94,-13.3,1.14
2024-12-06 13:22:49.991,-3.38,532.0,0.14,0.92,-0.05,-1.67,-1.76,2.12
2024-12-06 13:22:49.996,2.47,515.0,0.14,0.94,-0.06,-1.67,-1.76,2.12
2024-12-06 13:22:50.3,0.67,522.0,0.15,0.95,-0.06,-1.98,0.8,2.42
2024-12-06 13:22:50.8,3.15,516.0,0.15,0.97,-0.06,-2.34,3.18,2.85
2024-12-06 13:22:50.16,0.0,517.0,0.15,0.97,-0.06,-2.65,5.07,3.52
2024-12-06 13:22:50.24,-1.35,516.0,0.15,0.97,-0.06,-2.95,7.09,4.19
2024-12-06 13:22:50.32,2.25,515.0,0.14,0.97,-0.06,-3.26,9.16,4.8
2024-12-06 13:22:50.40,1.35,509.0,0.14,0.97,-0.05,-3.26,9.16,4.8
2024-12-06 13:22:50.53,0.9,516.0,0.16,0.97,-0.05,-3.44,10.93,5.72
2024-12-06 13:22:50.56,-2.02,530.0,0.18,0.98,-0.05,-3.5,11.3,6.94
2024-12-06 13:22:50.89,0.9,559.0,0.2,1.0,-0.03,-3.69,11.24,8.28
2024-12-06 13:22:50.94,-4.95,540.0,0.21,0.99,-0.04,-3.75,9.9,8.53
2024-12-06 13:22:50.101,0.45,510.0,0.23,0.97,-0.03,-3.87,7.58,8.47
2024-12-06 13:22:50.109,1.57,528.0,0.23,0.97,-0.02,-3.99,4.04,8.89
2024-12-06 13:22:50.118,0.22,524.0,0.25,0.96,-0.02,-4.11,1.72,9.02
2024-12-06 13:22:50.128,1.12,514.0,0.26,0.94,-0.02,-4.11,1.72,9.02
2024-12-06 13:22:50.134,2.7,528.0,0.27,0.94,-0.02,-3.93,-0.97,9.14
2024-12-06 13:22:50.144,3.15,538.0,0.28,0.95,-0.03,-3.56,-2.74,9.38
2024-12-06 13:22:50.150,1.12,517.0,0.28,0.98,-0.04,-2.65,-3.53,9.93
2024-12-06 13:22:50.164,-2.7,553.0,0.28,0.98,-0.03,-1.49,-4.33,10.36
2024-12-06 13:22:50.167,0.67,525.0,0.27,0.98,-0.03,-0.27,-5.36,10.3
2024-12-06 13:22:50.172,2.92,511.0,0.25,0.97,-0.0,-0.27,-5.36,10.3
2024-12-06 13:22:50.210,2.25,517.0,0.24,0.96,0.0,0.95,-6.71,9.81
2024-12-06 13:22:50.213,0.67,512.0,0.24,0.94,-0.03,2.91,-7.38,6.64
2024-12-06 13:22:50.219,0.45,526.0,0.23,0.95,-0.03,3.39,-7.5,6.39
2024-12-06 13:22:50.225,0.0,521.0,0.23,0.97,-0.03,3.58,-7.56,6.45
2024-12-06 13:22:50.233,-2.25,515.0,0.22,0.98,-0.02,3.27,-6.28,6.82
2024-12-06 13:22:50.241,-3.15,510.0,0.22,0.98,-0.02,2.97,-6.1,7.49
2024-12-06 13:22:50.255,-1.8,525.0,0.21,0.98,-0.01,2.6,-6.95,8.04
2024-12-06 13:22:50.258,-2.47,530.0,0.19,0.98,-0.01,2.6,-6.95,8.04
2024-12-06 13:22:50.265,-0.67,511.0,0.19,0.98,-0.01,2.17,-7.01,8.34
2024-12-06 13:22:50.275,-7.88,513.0,0.19,0.98,-0.02,1.81,-5.97,8.65
2024-12-06 13:22:50.280,-4.28,517.0,0.19,0.97,-0.03,1.26,-4.94,8.89
2024-12-06 13:22:50.293,-0.67,518.0,0.19,0.97,-0.03,0.77,-3.29,9.02
2024-12-06 13:22:50.319,-1.12,532.0,0.2,0.96,-0.02,-0.15,1.11,9.08
2024-12-06 13:22:50.323,2.47,529.0,0.21,0.96,-0.01,-0.7,3.37,9.5
2024-12-06 13:22:50.326,2.47,530.0,0.21,0.96,-0.01,-1.06,5.62,10.05
2024-12-06 13:22:50.333,1.57,515.0,0.21,0.96,-0.0,-1.06,6.36,10.54
2024-12-06 13:22:50.343,1.57,515.0,0.21,0.95,0.01,-1.18,6.36,10.54
2024-12-06 13:22:50.352,1.35,512.0,0.21,0.95,0.01,-1.06,6.3,10.66
2024-12-06 13:22:50.358,-1.8,529.0,0.22,0.95,-0.01,-1.18,6.05,10.48
2024-12-06 13:22:50.367,-3.15,522.0,0.23,0.95,-0.02,-1.49,5.99,9.93
2024-12-06 13:22:50.378,-2.92,516.0,0.23,0.95,-0.02,-1.85,5.75,9.26
2024-12-06 13:22:50.382,0.9,518.0,0.24,0.95,-0.02,-2.28,4.16,8.77
2024-12-06 13:22:50.391,-1.12,512.0,0.26,0.96,-0.01,-2.28,4.16,8.77
2024-12-06 13:22:50.402,-1.35,511.0,0.27,0.97,-0.01,-2.65,2.45,8.47
2024-12-06 13:22:50.433,-0.45,516.0,0.26,0.97,-0.0,-3.87,-2.37,7.49
2024-12-06 13:22:50.435,3.38,524.0,0.25,0.97,-0.0,-3.99,-4.02,6.57
2024-12-06 13:22:50.447,1.8,522.0,0.26,0.98,-0.01,-3.93,-5.48,5.96
2024-12-06 13:22:50.453,-0.9,533.0,0.26,0.98,-0.02,-3.32,-6.1,5.6
2024-12-06 13:22:50.465,0.45,516.0,0.26,0.98,-0.02,-3.14,-7.32,5.17
2024-12-06 13:22:50.472,-0.45,527.0,0.25,0.99,-0.01,-3.14,-8.66,4.62
2024-12-06 13:22:50.478,0.0,518.0,0.24,0.98,-0.03,-2.83,-9.45,3.89
2024-12-06 13:22:50.486,-4.28,521.0,0.23,0.98,-0.0,-2.47,-9.94,3.34
2024-12-06 13:22:50.494,2.7,521.0,0.22,0.97,-0.01,-2.47,-9.94,3.34
2024-12-06 13:22:50.503,1.8,520.0,0.21,0.96,-0.02,-2.4,-9.64,2.85
2024-12-06 13:22:50.510,1.12,525.0,0.21,0.94,-0.02,-2.1,-8.66,2.55
2024-12-06 13:22:50.518,1.8,509.0,0.2,0.94,-0.02,-1.73,-6.71,2.61
2024-12-06 13:22:50.526,3.15,521.0,0.2,0.94,-0.02,-1.43,-5.3,3.28
2024-12-06 13:22:50.532,2.02,520.0,0.21,0.94,-0.01,-1.12,-4.2,4.38
2024-12-06 13:22:50.542,0.45,528.0,0.22,0.95,-0.02,-1.12,-4.2,4.38
2024-12-06 13:22:50.549,-2.47,529.0,0.23,0.97,-0.02,-0.88,-2.68,5.84
2024-12-06 13:22:50.556,1.35,516.0,0.24,0.98,-0.02,-0.82,-2.13,7.25
2024-12-06 13:22:50.564,0.9,537.0,0.24,0.99,-0.02,-1.18,-1.82,8.28
2024-12-06 13:22:50.572,0.67,525.0,0.24,0.99,-0.02,-1.49,-1.82,9.08
2024-12-06 13:22:50.585,-0.9,527.0,0.25,0.99,-0.02,-1.85,-2.8,9.75
2024-12-06 13:22:50.596,-0.9,542.0,0.25,0.98,-0.01,-1.85,-2.8,10.18
2024-12-06 13:22:50.631,0.45,507.0,0.25,0.94,-0.01,-2.53,-4.2,10.54
2024-12-06 13:22:50.662,2.92,513.0,0.26,0.95,0.01,-3.2,-3.78,10.54
2024-12-06 13:22:50.665,0.0,517.0,0.26,0.95,0.0,-3.2,-3.78,10.54
2024-12-06 13:22:50.677,1.12,515.0,0.27,0.95,0.0,-3.32,-3.71,11.03
2024-12-06 13:22:50.680,4.28,508.0,0.27,0.95,0.01,-3.38,-3.29,11.58
2024-12-06 13:22:50.687,-1.57,523.0,0.27,0.94,0.01,-3.56,-3.04,11.88
2024-12-06 13:22:50.696,2.02,521.0,0.27,0.94,0.01,-4.11,-2.86,12.01
2024-12-06 13:22:50.703,1.8,549.0,0.27,0.94,0.01,-4.66,-1.82,12.25
2024-12-06 13:22:50.713,-0.67,519.0,0.27,0.94,0.01,-4.66,-1.82,12.98
2024-12-06 13:22:50.719,0.67,497.0,0.28,0.95,0.0,-4.85,-0.42,12.98
2024-12-06 13:22:50.735,-1.8,514.0,0.28,0.96,0.0,-5.03,1.05,13.9
2024-12-06 13:22:50.740,-1.8,531.0,0.28,0.96,-0.01,-5.33,2.39,14.69
2024-12-06 13:22:50.744,-0.45,552.0,0.28,0.96,-0.01,-5.39,4.46,15.24
2024-12-06 13:22:50.751,1.35,519.0,0.27,0.96,-0.01,-5.39,5.68,15.36
2024-12-06 13:22:50.758,2.47,519.0,0.25,0.96,0.01,-5.39,5.68,15.36
2024-12-06 13:22:50.767,-1.35,530.0,0.23,0.95,0.02,-5.27,4.83,14.94
2024-12-06 13:22:50.774,2.25,515.0,0.22,0.94,0.02,-4.91,2.94,13.41
2024-12-06 13:22:50.782,1.57,536.0,0.22,0.94,0.02,-4.66,2.82,11.03
2024-12-06 13:22:50.790,-0.67,528.0,0.23,0.94,0.02,-4.24,1.9,8.28
2024-12-06 13:22:50.803,5.17,523.0,0.23,0.94,0.02,-3.69,1.23,5.41
2024-12-06 13:22:50.807,5.62,524.0,0.25,0.94,0.01,-3.69,1.23,3.22
2024-12-06 13:22:50.816,4.95,532.0,0.27,0.94,0.01,-3.01,2.33,3.22
2024-12-06 13:22:50.821,4.05,556.0,0.26,0.93,0.03,-2.1,2.14,1.2
2024-12-06 13:22:50.830,0.0,540.0,0.25,0.93,0.03,-1.06,1.05,-1.36
2024-12-06 13:22:50.856,6.75,527.0,0.25,0.93,0.01,-0.15,2.51,-3.62
2024-12-06 13:22:50.957,22.05,535.0,0.29,0.99,0.01,2.42,-5.48,-5.57
2024-12-06 13:22:50.971,25.42,570.0,0.29,1.0,-0.0,2.48,-4.69,-4.05
2024-12-06 13:22:50.976,22.5,543.0,0.28,0.98,-0.01,2.42,-4.39,-2.34
2024-12-06 13:22:50.979,27.0,598.0,0.25,0.96,-0.01,2.23,-5.24,-1.48
2024-12-06 13:22:50.987,28.12,538.0,0.25,0.96,-0.02,1.75,-4.51,-1.73
2024-12-06 13:22:50.995,29.47,536.0,0.24,0.96,-0.02,0.53,-2.13,-1.24
2024-12-06 13:22:51.7,29.25,553.0,0.27,0.97,-0.0,0.53,-2.13,-1.24
2024-12-06 13:22:51.10,26.32,544.0,0.28,0.98,0.01,0.22,-2.37,-0.2
2024-12-06 13:22:51.20,29.25,539.0,0.28,0.98,0.0,0.22,-1.88,1.26
2024-12-06 13:22:51.31,30.82,545.0,0.26,0.97,0.01,0.4,-1.58,2.55
2024-12-06 13:22:51.36,30.82,548.0,0.26,0.97,0.01,0.59,-0.66,3.4
2024-12-06 13:22:51.41,32.85,565.0,0.26,0.98,0.02,0.59,0.68,4.74
2024-12-06 13:22:51.51,33.08,566.0,0.27,0.98,0.02,0.53,0.68,4.74
2024-12-06 13:22:51.57,33.08,547.0,0.25,0.97,0.01,0.89,0.56,5.41
2024-12-06 13:22:51.65,33.52,549.0,0.27,0.97,-0.0,0.77,2.63,6.27
2024-12-06 13:22:51.74,33.97,558.0,0.27,0.97,-0.0,0.34,2.76,7.73
2024-12-06 13:22:51.104,33.75,538.0,0.27,0.99,-0.02,-0.45,0.07,10.24
2024-12-06 13:22:51.111,35.1,545.0,0.25,0.99,-0.02,-0.7,-1.21,11.46
2024-12-06 13:22:51.122,36.0,546.0,0.25,0.99,-0.02,-0.88,-1.82,12.19
2024-12-06 13:22:51.144,36.22,547.0,0.24,0.98,-0.02,-1.24,-1.76,12.74
2024-12-06 13:22:51.147,34.2,553.0,0.24,0.98,-0.02,-1.37,-1.27,13.29
2024-12-06 13:22:51.150,36.22,554.0,0.25,0.97,-0.01,-1.24,-1.21,14.08
2024-12-06 13:22:51.162,33.75,540.0,0.24,0.96,-0.01,-0.88,-1.58,14.45
2024-12-06 13:22:51.173,38.25,546.0,0.24,0.96,-0.01,-0.7,-1.46,14.33
2024-12-06 13:22:51.178,38.02,552.0,0.25,0.95,-0.01,-0.57,-1.7,13.9
2024-12-06 13:22:51.191,35.1,558.0,0.25,0.95,-0.01,-0.57,-1.7,13.9
2024-12-06 13:22:51.201,35.55,544.0,0.25,0.95,-0.0,-0.51,-2.01,12.07
2024-12-06 13:22:51.205,41.85,573.0,0.25,0.95,-0.0,-0.51,-1.58,10.91
2024-12-06 13:22:51.217,36.67,569.0,0.24,0.95,-0.0,-0.39,-0.85,9.75
2024-12-06 13:22:51.225,40.05,555.0,0.23,0.95,0.0,-0.39,-0.85,8.77
2024-12-06 13:22:51.231,39.38,540.0,0.22,0.95,0.0,-0.08,0.19,8.77
2024-12-06 13:22:51.237,38.02,567.0,0.22,0.95,0.0,0.28,1.17,8.04
2024-12-06 13:22:51.244,37.12,551.0,0.22,0.95,-0.0,0.65,1.66,7.86
2024-12-06 13:22:51.252,41.62,569.0,0.23,0.95,-0.01,0.77,1.96,8.04
2024-12-06 13:22:51.259,41.85,550.0,0.23,0.95,-0.01,0.71,2.88,8.04
2024-12-06 13:22:51.268,41.85,558.0,0.22,0.95,-0.01,0.71,2.88,8.04
2024-12-06 13:22:51.276,38.25,556.0,0.22,0.95,-0.01,0.53,3.12,7.86
2024-12-06 13:22:51.287,43.2,560.0,0.23,0.95,-0.02,0.28,3.37,7.61
2024-12-06 13:22:51.333,38.92,565.0,0.24,0.95,-0.01,0.16,3.18,7.43
2024-12-06 13:22:51.339,42.75,560.0,0.26,0.94,0.0,0.04,4.22,6.03
2024-12-06 13:22:51.343,44.55,564.0,0.27,0.95,0.0,0.04,4.22,6.03
2024-12-06 13:22:51.350,43.2,574.0,0.27,0.96,0.01,0.1,4.28,6.21
2024-12-06 13:22:51.358,46.35,569.0,0.27,0.96,0.01,0.28,4.16,6.21
2024-12-06 13:22:51.367,41.17,565.0,0.27,0.95,0.01,0.53,4.04,5.9
2024-12-06 13:22:51.374,47.92,572.0,0.27,0.95,-0.03,0.34,4.16,5.35
2024-12-06 13:22:51.383,45.45,569.0,0.27,0.96,-0.0,0.1,4.16,5.23
2024-12-06 13:22:51.391,44.77,569.0,0.28,0.96,-0.0,0.1,4.16,5.23
2024-12-06 13:22:51.400,47.47,582.0,0.29,0.97,0.01,-0.15,3.91,5.78
2024-12-06 13:22:51.407,48.38,566.0,0.28,0.97,0.01,-0.33,3.61,6.45
2024-12-06 13:22:51.414,46.8,561.0,0.28,0.96,0.0,-0.57,3.55,7.0
2024-12-06 13:22:51.421,51.3,562.0,0.28,0.97,-0.0,-1.12,4.1,7.73
2024-12-06 13:22:51.430,48.82,559.0,0.28,0.97,-0.0,-1.61,3.98,8.83
2024-12-06 13:22:51.437,48.38,586.0,0.29,0.97,0.0,-1.61,3.98,8.83
2024-12-06 13:22:51.446,50.4,577.0,0.28,0.97,0.0,-1.61,3.85,9.87
2024-12-06 13:22:51.466,51.52,578.0,0.29,0.96,0.0,-2.04,4.16,10.91
2024-12-06 13:22:51.472,52.88,582.0,0.29,0.96,0.0,-2.34,4.71,11.52
2024-12-06 13:22:51.476,50.17,583.0,0.3,0.96,0.01,-2.4,4.46,12.25
2024-12-06 13:22:51.486,51.52,566.0,0.3,0.96,0.01,-2.4,4.46,12.25
2024-12-06 13:22:51.493,52.2,571.0,0.3,0.95,0.01,-2.4,3.98,12.86
2024-12-06 13:22:51.501,54.67,571.0,0.3,0.94,0.0,-2.34,3.61,13.17
2024-12-06 13:22:51.511,50.62,596.0,0.3,0.95,-0.0,-2.34,3.43,13.29
2024-12-06 13:22:51.516,53.77,585.0,0.3,0.95,0.0,-2.34,3.0,13.59
2024-12-06 13:22:51.524,50.85,571.0,0.31,0.95,0.0,-2.28,2.57,13.9
2024-12-06 13:22:51.532,53.77,585.0,0.31,0.95,0.01,-2.28,2.57,13.96
2024-12-06 13:22:51.557,55.12,576.0,0.29,0.95,0.01,-2.47,3.24,13.47
2024-12-06 13:22:51.564,56.02,572.0,0.29,0.95,0.01,-2.34,3.91,13.41
2024-12-06 13:22:51.576,54.22,582.0,0.29,0.95,0.01,-2.04,4.28,13.59
2024-12-06 13:22:51.584,59.4,576.0,0.28,0.94,0.01,-2.04,4.28,13.59
2024-12-06 13:22:51.589,56.7,612.0,0.27,0.92,0.01,-1.61,4.83,13.41
2024-12-06 13:22:51.598,58.27,585.0,0.28,0.91,0.01,-1.49,5.44,13.11
2024-12-06 13:22:51.614,56.92,580.0,0.29,0.92,0.01,-1.79,6.91,13.23
2024-12-06 13:22:51.619,53.77,571.0,0.29,0.93,0.01,-1.49,6.42,13.41
2024-12-06 13:22:51.627,59.62,583.0,0.29,0.93,0.0,-1.49,6.42,13.29
2024-12-06 13:22:51.645,63.0,579.0,0.29,0.93,-0.0,-1.18,6.11,13.29
2024-12-06 13:22:51.647,58.95,647.0,0.29,0.93,0.0,-1.0,6.05,12.68
2024-12-06 13:22:51.650,56.25,574.0,0.31,0.93,0.01,-0.88,6.48,12.01
2024-12-06 13:22:51.658,63.22,593.0,0.31,0.93,0.01,-0.57,6.23,11.46
2024-12-06 13:22:51.665,59.85,594.0,0.31,0.93,0.01,0.1,5.81,10.91
2024-12-06 13:22:51.680,60.75,583.0,0.31,0.93,0.02,0.1,5.81,10.11
2024-12-06 13:22:51.683,62.55,592.0,0.31,0.93,0.02,0.65,5.87,10.11
2024-12-06 13:22:51.696,65.92,591.0,0.31,0.94,0.02,0.89,6.23,9.26
2024-12-06 13:22:51.718,59.85,578.0,0.31,0.96,0.03,1.2,5.81,8.47
2024-12-06 13:22:51.722,65.7,616.0,0.3,0.95,0.01,1.5,5.01,8.1
2024-12-06 13:22:51.727,61.42,595.0,0.29,0.94,0.01,1.75,4.28,7.18
2024-12-06 13:22:51.741,62.32,580.0,0.3,0.94,0.01,1.56,3.98,6.45
2024-12-06 13:22:51.744,65.7,586.0,0.3,0.95,0.01,1.32,3.73,6.45
2024-12-06 13:22:51.754,66.6,596.0,0.31,0.95,0.01,1.32,3.18,6.88
2024-12-06 13:22:51.788,64.8,586.0,0.29,0.94,0.02,1.38,3.79,6.76
2024-12-06 13:22:51.796,67.05,656.0,0.29,0.94,0.02,1.14,3.79,6.64
2024-12-06 13:22:51.799,64.8,602.0,0.3,0.94,0.03,1.14,3.79,6.64
2024-12-06 13:22:51.803,67.72,598.0,0.31,0.94,0.03,1.08,3.73,6.64
2024-12-06 13:22:51.813,71.32,596.0,0.31,0.93,0.02,1.01,3.55,6.57
2024-12-06 13:22:51.822,69.3,604.0,0.31,0.92,0.02,0.95,3.3,6.21
2024-12-06 13:22:51.827,72.22,608.0,0.31,0.92,0.02,0.89,2.82,5.48
2024-12-06 13:22:51.834,65.25,592.0,0.32,0.91,0.02,0.71,2.51,4.68
2024-12-06 13:22:51.842,70.88,597.0,0.33,0.91,0.03,0.71,2.51,4.68
2024-12-06 13:22:51.850,70.2,613.0,0.34,0.92,0.03,0.34,1.84,4.13
2024-12-06 13:22:51.858,66.6,597.0,0.33,0.93,0.03,-0.21,1.78,3.77
2024-12-06 13:22:51.896,73.35,598.0,0.31,0.92,0.02,-1.98,2.63,2.91
2024-12-06 13:22:51.899,73.35,593.0,0.32,0.92,0.02,-2.22,2.21,2.97
2024-12-06 13:22:51.997,74.25,603.0,0.33,0.92,0.03,-3.56,1.72,3.28
2024-12-06 13:22:52.33,74.03,622.0,0.3,0.99,0.06,-4.36,-0.05,2.12
2024-12-06 13:22:52.36,81.22,620.0,0.32,0.97,0.04,-3.81,-0.72,2.0
2024-12-06 13:22:52.40,76.05,613.0,0.32,0.96,0.03,-3.32,-1.76,1.81
2024-12-06 13:22:52.46,79.65,624.0,0.32,0.94,0.03,-2.95,-2.68,1.57
2024-12-06 13:22:52.56,79.65,619.0,0.32,0.94,0.03,-2.95,-3.35,1.45
2024-12-06 13:22:52.61,80.1,622.0,0.32,0.94,0.03,-3.14,-4.26,1.87
2024-12-06 13:22:52.73,79.65,632.0,0.33,0.95,0.03,-3.14,-4.26,1.87
2024-12-06 13:22:52.79,81.45,636.0,0.32,0.95,0.03,-3.14,-4.87,2.55
2024-12-06 13:22:52.85,79.88,640.0,0.31,0.93,0.02,-2.95,-4.81,2.97
2024-12-06 13:22:52.94,79.88,629.0,0.31,0.92,0.03,-3.26,-4.08,2.91
2024-12-06 13:22:52.127,83.03,644.0,0.32,0.94,0.04,-2.4,-3.41,3.89
2024-12-06 13:22:52.142,83.7,637.0,0.33,0.94,0.04,-1.73,-2.86,3.83
2024-12-06 13:22:52.149,84.6,628.0,0.34,0.95,0.05,-1.37,-2.56,4.44
2024-12-06 13:22:52.155,82.12,658.0,0.34,0.96,0.05,-1.37,-2.56,4.44
2024-12-06 13:22:52.161,86.4,635.0,0.33,0.95,0.04,-1.31,-2.86,4.87
2024-12-06 13:22:52.171,85.28,626.0,0.33,0.95,0.04,-1.55,-3.23,5.35
2024-12-06 13:22:52.183,86.85,630.0,0.33,0.95,0.04,-1.98,-3.53,6.03
2024-12-06 13:22:52.194,84.6,643.0,0.33,0.95,0.04,-2.16,-3.84,6.94
2024-12-06 13:22:52.196,87.52,630.0,0.33,0.95,0.04,-2.16,-3.84,7.49
2024-12-06 13:22:52.204,85.05,635.0,0.33,0.94,0.04,-2.53,-3.53,7.49
2024-12-06 13:22:52.243,91.12,659.0,0.32,0.95,0.05,-2.53,-4.69,8.53
2024-12-06 13:22:52.249,92.7,651.0,0.32,0.94,0.04,-2.4,-4.75,8.41
2024-12-06 13:22:52.255,92.92,651.0,0.32,0.93,0.04,-2.16,-4.33,8.1
2024-12-06 13:22:52.267,92.47,640.0,0.33,0.92,0.04,-1.92,-4.08,7.8
2024-12-06 13:22:52.270,92.47,650.0,0.33,0.92,0.04,-1.92,-4.45,7.98
2024-12-06 13:22:52.398,93.82,657.0,0.33,0.93,0.04,-1.61,-4.87,8.34
2024-12-06 13:22:52.408,93.15,672.0,0.32,0.9,0.04,-2.28,-5.79,3.22
2024-12-06 13:22:52.417,93.38,657.0,0.32,0.9,0.04,-2.34,-5.3,3.03
2024-12-06 13:22:52.421,97.88,680.0,0.32,0.9,0.04,-2.34,-4.75,3.1
2024-12-06 13:22:52.430,99.9,666.0,0.32,0.91,0.04,-2.53,-4.14,3.1
2024-12-06 13:22:52.464,94.05,667.0,0.32,0.92,0.04,-2.53,-4.14,3.1
2024-12-06 13:22:52.468,94.5,680.0,0.34,0.92,0.05,-2.22,-3.65,2.0
2024-12-06 13:22:52.470,96.07,685.0,0.34,0.92,0.05,-1.79,-4.08,1.63
2024-12-06 13:22:52.475,99.67,715.0,0.35,0.91,0.04,-1.79,-4.08,1.63
2024-12-06 13:22:52.485,95.62,679.0,0.34,0.91,0.03,-1.49,-3.84,1.45
2024-12-06 13:22:52.491,96.3,667.0,0.33,0.91,0.04,-1.0,-4.08,1.33
2024-12-06 13:22:52.499,94.95,690.0,0.33,0.93,0.03,-0.88,-4.51,1.39
2024-12-06 13:22:52.602,99.22,675.0,0.33,0.95,0.02,-1.24,-3.29,1.94
2024-12-06 13:22:52.621,101.47,676.0,0.36,0.94,0.05,2.05,-1.03,7.43
2024-12-06 13:22:52.635,101.47,670.0,0.36,0.94,0.05,2.66,-2.19,6.7
2024-12-06 13:22:52.638,97.42,673.0,0.36,0.92,0.04,2.66,-2.19,5.9
2024-12-06 13:22:52.644,103.95,689.0,0.36,0.91,0.02,2.6,-3.41,5.9
2024-12-06 13:22:52.652,104.17,676.0,0.36,0.9,0.01,1.87,-3.47,4.99
2024-12-06 13:22:52.687,100.57,678.0,0.32,0.9,0.03,0.1,-4.2,9.5
2024-12-06 13:22:52.692,100.12,680.0,0.34,0.89,0.04,0.16,-3.84,10.91
2024-12-06 13:22:52.698,103.95,708.0,0.35,0.9,0.05,0.04,-3.59,11.52
2024-12-06 13:22:52.706,101.92,663.0,0.35,0.91,0.05,-0.21,-3.29,11.27
2024-12-06 13:22:52.726,98.55,691.0,0.36,0.91,0.05,-0.88,-2.98,8.59
2024-12-06 13:22:52.730,99.9,671.0,0.37,0.91,0.05,-0.88,-2.98,8.59
2024-12-06 13:22:52.737,101.92,678.0,0.37,0.91,0.04,-1.06,-3.23,6.94
2024-12-06 13:22:52.745,99.45,667.0,0.35,0.92,0.04,-1.12,-3.65,5.72
2024-12-06 13:22:52.754,99.9,683.0,0.33,0.93,0.04,-1.31,-3.78,5.05
2024-12-06 13:22:52.762,100.57,669.0,0.33,0.93,0.04,-1.37,-3.71,4.8
2024-12-06 13:22:52.778,101.02,669.0,0.32,0.91,0.04,-1.06,-3.65,4.74
2024-12-06 13:22:52.791,97.42,676.0,0.32,0.91,0.04,-0.76,-3.35,4.74
2024-12-06 13:22:52.793,101.92,667.0,0.33,0.91,0.03,-0.57,-2.56,4.68
2024-12-06 13:22:52.801,102.38,693.0,0.33,0.91,0.03,-0.33,-1.58,4.44
2024-12-06 13:22:52.809,101.47,680.0,0.33,0.91,0.03,-0.02,-0.54,4.26
2024-12-06 13:22:52.819,99.45,670.0,0.32,0.91,0.03,-0.08,0.19,3.89
2024-12-06 13:22:52.829,99.67,663.0,0.32,0.91,0.02,-0.08,0.19,3.89
2024-12-06 13:22:52.832,101.92,657.0,0.32,0.92,0.02,-0.21,0.68,3.4
2024-12-06 13:22:52.841,102.15,658.0,0.32,0.93,0.02,-0.39,1.23,3.03
2024-12-06 13:22:52.860,102.38,681.0,0.32,0.95,0.02,-0.45,1.9,2.73
2024-12-06 13:22:52.879,98.55,670.0,0.32,0.95,0.02,-0.15,3.24,2.42
2024-12-06 13:22:52.883,103.27,686.0,0.32,0.95,0.02,0.04,3.49,2.18
2024-12-06 13:22:52.914,96.75,668.0,0.33,0.95,0.03,0.59,3.12,1.26
2024-12-06 13:22:52.917,103.05,680.0,0.33,0.94,0.03,0.71,2.94,1.33
2024-12-06 13:22:52.923,99.45,711.0,0.34,0.94,0.03,0.65,2.76,1.57
2024-12-06 13:22:52.931,103.05,683.0,0.34,0.94,0.03,0.59,2.45,1.94
2024-12-06 13:22:52.939,102.15,675.0,0.34,0.94,0.04,0.65,2.14,2.24
2024-12-06 13:22:52.948,101.7,691.0,0.34,0.94,0.04,0.65,2.14,2.24
2024-12-06 13:22:52.955,101.7,676.0,0.35,0.94,0.05,0.77,1.66,2.61
2024-12-06 13:22:52.962,102.15,676.0,0.35,0.94,0.05,0.95,1.23,3.03
2024-12-06 13:22:52.970,102.15,695.0,0.34,0.93,0.05,1.08,0.86,3.4
2024-12-06 13:22:52.978,101.7,693.0,0.34,0.93,0.05,1.01,0.56,3.83
2024-12-06 13:22:52.994,101.02,667.0,0.34,0.93,0.05,0.89,0.31,4.19
2024-12-06 13:22:52.996,93.6,668.0,0.34,0.93,0.04,0.89,0.31,4.19
2024-12-06 13:22:53.2,96.07,671.0,0.34,0.93,0.04,0.59,0.31,4.62
2024-12-06 13:22:53.15,100.57,667.0,0.34,0.92,0.05,0.34,0.37,4.87
2024-12-06 13:22:53.23,96.52,664.0,0.35,0.92,0.05,0.22,0.44,5.17
2024-12-06 13:22:53.29,99.0,700.0,0.35,0.92,0.05,0.1,0.44,5.35
2024-12-06 13:22:53.33,104.62,676.0,0.35,0.93,0.05,0.1,0.44,5.35
2024-12-06 13:22:53.42,99.9,681.0,0.35,0.93,0.05,-0.08,0.31,5.41
2024-12-06 13:22:53.48,100.35,667.0,0.34,0.93,0.04,-0.08,0.01,5.41
2024-12-06 13:22:53.55,102.6,667.0,0.34,0.94,0.04,-0.02,-0.42,5.35
2024-12-06 13:22:53.64,102.38,669.0,0.34,0.94,0.04,-0.02,-0.48,5.35
2024-12-06 13:22:53.72,97.2,661.0,0.33,0.94,0.04,-0.02,-0.36,5.35
2024-12-06 13:22:53.83,91.8,655.0,0.33,0.94,0.04,-0.02,-0.36,5.35
2024-12-06 13:22:53.88,104.4,666.0,0.33,0.94,0.03,-0.08,-0.24,5.35
2024-12-06 13:22:53.95,103.05,662.0,0.33,0.93,0.03,-0.21,-0.17,5.23
2024-12-06 13:22:53.104,104.17,666.0,0.33,0.93,0.03,-0.39,-0.17,5.11
2024-12-06 13:22:53.140,101.25,674.0,0.33,0.93,0.03,-0.08,-0.72,4.44
2024-12-06 13:22:53.143,104.62,676.0,0.33,0.93,0.03,0.1,-0.78,4.32
2024-12-06 13:22:53.158,102.15,675.0,0.33,0.94,0.03,0.22,-0.54,4.26
2024-12-06 13:22:53.160,104.85,684.0,0.33,0.94,0.03,0.4,-0.17,4.19
2024-12-06 13:22:53.165,99.0,659.0,0.33,0.94,0.04,0.4,-0.17,4.19
2024-12-06 13:22:53.173,100.8,662.0,0.33,0.94,0.04,0.77,0.13,4.13
2024-12-06 13:22:53.180,103.5,683.0,0.33,0.94,0.03,0.95,0.5,4.07
2024-12-06 13:22:53.188,101.25,681.0,0.33,0.93,0.03,1.01,0.8,3.89
2024-12-06 13:22:53.196,101.7,658.0,0.33,0.93,0.03,1.14,0.74,3.71
2024-12-06 13:22:53.205,100.35,665.0,0.34,0.93,0.03,1.26,0.56,3.64
2024-12-06 13:22:53.213,102.15,680.0,0.33,0.93,0.03,1.26,0.56,3.64
2024-12-06 13:22:53.219,100.8,685.0,0.33,0.93,0.03,1.32,0.5,3.58
2024-12-06 13:22:53.233,101.7,670.0,0.33,0.93,0.03,1.32,0.5,3.71
2024-12-06 13:22:53.242,101.25,656.0,0.33,0.93,0.03,1.44,0.62,3.83
2024-12-06 13:22:53.249,101.7,664.0,0.33,0.93,0.03,1.62,0.8,3.77
2024-12-06 13:22:53.252,102.15,673.0,0.33,0.94,0.03,1.62,1.11,3.52
2024-12-06 13:22:53.279,102.15,674.0,0.33,0.94,0.03,1.75,1.11,3.52
2024-12-06 13:22:53.281,101.7,657.0,0.33,0.93,0.03,1.69,1.53,3.16
2024-12-06 13:22:53.282,102.15,668.0,0.33,0.93,0.03,1.69,2.33,2.73
2024-12-06 13:22:53.292,102.6,704.0,0.33,0.92,0.03,1.75,2.76,2.67
2024-12-06 13:22:53.297,101.7,661.0,0.32,0.93,0.03,1.75,2.76,2.67
2024-12-06 13:22:53.319,103.5,634.0,0.33,0.93,0.03,1.87,3.18,2.73
2024-12-06 13:22:53.330,99.9,674.0,0.33,0.93,0.03,2.05,3.73,2.67
2024-12-06 13:22:53.336,103.27,681.0,0.33,0.93,0.03,2.23,3.91,2.67
2024-12-06 13:22:53.368,101.02,656.0,0.35,0.92,0.03,3.03,2.39,1.94
2024-12-06 13:22:53.371,102.6,661.0,0.36,0.92,0.02,3.03,2.39,1.94
2024-12-06 13:22:53.381,102.38,655.0,0.38,0.92,0.02,3.46,1.9,0.53
2024-12-06 13:22:53.387,101.02,653.0,0.38,0.93,0.02,3.58,1.66,-1.67
2024-12-06 13:22:53.398,97.65,662.0,0.37,0.94,0.02,3.7,1.53,-3.92
2024-12-06 13:22:53.402,102.6,647.0,0.37,0.94,0.02,3.7,1.41,-5.57
2024-12-06 13:22:53.411,100.8,655.0,0.35,0.95,0.03,3.52,1.53,-6.3
2024-12-06 13:22:53.434,102.15,661.0,0.33,0.94,0.04,3.52,1.53,-6.3
2024-12-06 13:22:53.446,100.57,647.0,0.31,0.91,0.05,3.03,2.02,-5.94
2024-12-06 13:22:53.453,100.12,647.0,0.26,0.92,0.04,2.36,2.33,-3.37
2024-12-06 13:22:53.461,101.92,649.0,0.26,0.92,0.04,2.3,1.66,-0.2
2024-12-06 13:22:53.463,101.25,650.0,0.26,0.93,0.03,2.3,1.66,-0.2
2024-12-06 13:22:53.468,103.72,642.0,0.3,0.91,0.02,2.42,1.72,1.26
2024-12-06 13:22:53.477,99.67,669.0,0.31,0.91,0.02,2.66,2.57,1.51
2024-12-06 13:22:53.484,104.17,669.0,0.33,0.9,0.03,2.66,3.85,0.53
2024-12-06 13:22:53.489,100.57,649.0,0.34,0.94,0.02,2.17,4.53,-1.54
2024-12-06 13:22:53.497,104.17,648.0,0.34,0.94,0.02,1.87,5.14,-0.75
2024-12-06 13:22:53.506,98.32,646.0,0.29,0.96,0.03,1.87,4.83,-0.14
2024-12-06 13:22:53.517,103.95,645.0,0.3,0.93,0.03,2.42,4.83,-0.14
2024-12-06 13:22:53.521,101.02,657.0,0.33,0.93,0.03,2.97,4.28,0.17
2024-12-06 13:22:53.528,102.6,645.0,0.32,0.94,0.03,3.7,3.12,0.41
2024-12-06 13:22:53.540,102.82,664.0,0.32,0.95,0.02,4.0,2.08,0.1
2024-12-06 13:22:53.548,101.92,670.0,0.32,0.95,0.02,3.88,1.05,-0.26
2024-12-06 13:22:53.551,101.92,654.0,0.31,0.96,0.01,3.88,1.05,-0.57
2024-12-06 13:22:53.561,101.7,641.0,0.31,0.96,0.01,3.33,0.19,-0.57
2024-12-06 13:22:53.674,94.72,629.0,0.34,0.93,0.03,0.28,-9.02,10.24
2024-12-06 13:22:53.682,92.25,627.0,0.33,0.91,0.02,0.59,-8.96,9.99
2024-12-06 13:22:53.700,95.85,630.0,0.33,0.91,0.02,0.95,-8.72,9.5
2024-12-06 13:22:53.702,95.85,621.0,0.33,0.92,0.01,1.14,-8.05,9.26
2024-12-06 13:22:53.710,96.07,645.0,0.33,0.92,0.01,1.14,-7.25,9.2
2024-12-06 13:22:53.712,91.8,627.0,0.32,0.93,0.01,1.14,-7.25,9.2
2024-12-06 13:22:53.719,94.27,624.0,0.31,0.92,0.01,1.2,-7.01,9.32
2024-12-06 13:22:53.745,94.05,621.0,0.31,0.92,0.0,1.5,-4.87,8.95
2024-12-06 13:22:53.756,88.2,613.0,0.31,0.94,-0.0,1.62,-4.69,8.77
2024-12-06 13:22:53.760,92.02,632.0,0.3,0.94,-0.0,1.62,-4.69,8.77
2024-12-06 13:22:53.773,88.88,657.0,0.31,0.93,-0.0,2.17,-4.02,8.1
2024-12-06 13:22:53.776,91.12,639.0,0.31,0.93,-0.0,2.6,-3.17,7.18
2024-12-06 13:22:53.781,88.42,607.0,0.31,0.93,0.01,2.72,-2.8,6.51
2024-12-06 13:22:53.792,92.47,613.0,0.33,0.93,0.01,3.03,-3.04,6.15
2024-12-06 13:22:53.797,90.45,589.0,0.33,0.94,0.01,3.03,-3.04,6.15
2024-12-06 13:22:53.805,87.3,612.0,0.32,0.94,0.01,3.33,-3.1,5.96
2024-12-06 13:22:53.812,83.7,613.0,0.3,0.94,0.01,3.58,-2.74,5.48
2024-12-06 13:22:53.820,88.65,594.0,0.28,0.94,0.0,3.58,-2.01,4.56
2024-12-06 13:22:53.828,88.42,602.0,0.29,0.95,-0.0,3.21,-0.36,4.01
2024-12-06 13:22:53.863,87.52,602.0,0.31,0.9,0.0,3.7,1.41,3.1
2024-12-06 13:22:53.866,83.47,598.0,0.31,0.93,0.0,3.64,1.53,2.79
2024-12-06 13:22:53.873,88.42,595.0,0.32,0.91,0.0,3.52,1.35,2.67
2024-12-06 13:22:53.881,83.47,606.0,0.32,0.92,0.0,3.52,1.35,2.67
2024-12-06 13:22:53.890,87.52,602.0,0.32,0.93,0.01,3.46,0.92,2.67
2024-12-06 13:22:53.899,85.05,600.0,0.31,0.92,0.01,3.33,0.25,2.49
2024-12-06 13:22:53.908,84.82,603.0,0.31,0.91,0.0,3.33,0.5,1.87
2024-12-06 13:22:53.912,83.47,600.0,0.31,0.91,0.0,3.03,0.92,1.39
2024-12-06 13:22:53.921,81.45,597.0,0.32,0.93,0.01,2.6,1.05,1.51
2024-12-06 13:22:53.928,80.32,609.0,0.32,0.94,0.01,2.6,1.05,1.51
2024-12-06 13:22:53.937,84.38,597.0,0.32,0.95,0.01,2.36,1.11,1.75
2024-12-06 13:22:53.945,82.12,604.0,0.31,0.94,0.01,2.6,0.5,1.69
2024-12-06 13:22:53.952,81.67,607.0,0.31,0.93,0.0,2.78,0.8,1.26
2024-12-06 13:22:53.960,77.17,594.0,0.31,0.93,0.0,2.54,0.86,0.72
2024-12-06 13:22:53.968,79.2,602.0,0.32,0.93,0.0,2.05,0.86,0.41
2024-12-06 13:22:53.976,82.8,606.0,0.32,0.94,0.0,2.05,0.86,0.41
2024-12-06 13:22:53.986,80.55,609.0,0.33,0.94,0.0,2.05,0.44,0.29
2024-12-06 13:22:53.991,81.22,600.0,0.32,0.93,0.01,2.23,-0.17,0.23
2024-12-06 13:22:53.999,80.32,603.0,0.32,0.92,0.01,2.36,-0.36,-0.14
2024-12-06 13:22:54.8,82.12,589.0,0.32,0.92,0.01,2.23,-0.54,-0.44
2024-12-06 13:22:54.38,76.95,592.0,0.33,0.93,0.01,1.99,-0.78,-0.57
2024-12-06 13:22:54.48,79.2,595.0,0.32,0.94,0.0,2.05,-1.88,-0.08
2024-12-06 13:22:54.52,76.05,579.0,0.32,0.94,0.0,2.36,-1.94,0.04
2024-12-06 13:22:54.58,78.97,582.0,0.32,0.94,-0.01,2.36,-1.82,0.17
2024-12-06 13:22:54.60,76.05,582.0,0.31,0.95,-0.01,2.36,-1.82,0.17
2024-12-06 13:22:54.68,72.67,583.0,0.31,0.96,-0.01,1.93,-1.82,0.53
2024-12-06 13:22:54.76,76.72,591.0,0.3,0.96,-0.01,1.44,-1.76,0.96
2024-12-06 13:22:54.84,77.85,594.0,0.29,0.94,0.0,1.44,-1.88,0.9
2024-12-06 13:22:54.96,75.15,560.0,0.29,0.94,0.0,1.38,-1.46,0.72
2024-12-06 13:22:54.106,70.88,586.0,0.3,0.94,-0.01,0.95,-0.72,0.96
2024-12-06 13:22:54.109,70.88,591.0,0.31,0.95,-0.01,0.95,-0.72,0.96
2024-12-06 13:22:54.116,70.2,566.0,0.3,0.95,-0.01,0.77,-0.6,1.45
2024-12-06 13:22:54.132,75.6,575.0,0.31,0.94,-0.01,1.44,-1.7,1.57
2024-12-06 13:22:54.148,72.45,584.0,0.31,0.94,-0.02,1.26,-1.64,1.57
2024-12-06 13:22:54.154,70.2,571.0,0.31,0.94,-0.02,0.71,-1.46,1.57
2024-12-06 13:22:54.171,67.05,570.0,0.3,0.93,-0.01,0.77,-2.19,1.33
2024-12-06 13:22:54.175,69.3,577.0,0.3,0.93,-0.01,0.95,-2.31,1.02
2024-12-06 13:22:54.181,67.5,592.0,0.31,0.94,-0.01,0.77,-1.46,1.02
2024-12-06 13:22:54.188,65.92,571.0,0.31,0.94,-0.01,0.71,-1.46,1.2
2024-12-06 13:22:54.199,63.0,571.0,0.31,0.94,-0.01,0.71,-1.46,1.08
2024-12-06 13:22:54.206,67.95,560.0,0.3,0.92,-0.01,1.26,-1.52,1.08
2024-12-06 13:22:54.212,67.95,560.0,0.3,0.92,-0.01,1.81,-1.03,0.59
2024-12-06 13:22:54.218,63.9,568.0,0.31,0.93,-0.02,1.81,0.01,0.35
2024-12-06 13:22:54.225,68.85,568.0,0.31,0.94,-0.01,1.75,1.05,0.47
2024-12-06 13:22:54.234,67.28,576.0,0.31,0.94,-0.01,2.05,0.44,0.47
2024-12-06 13:22:54.241,65.7,572.0,0.3,0.93,0.0,2.05,0.44,-0.02
2024-12-06 13:22:54.272,61.65,582.0,0.31,0.95,-0.01,1.87,0.86,-0.63
2024-12-06 13:22:54.278,65.47,563.0,0.29,0.94,-0.01,1.87,0.86,-0.63
2024-12-06 13:22:54.286,60.3,560.0,0.29,0.93,-0.01,2.36,0.37,-0.87
2024-12-06 13:22:54.300,61.2,561.0,0.3,0.94,-0.01,2.17,0.5,-0.87
2024-12-06 13:22:54.302,60.07,544.0,0.3,0.95,-0.02,1.81,0.5,-0.63
2024-12-06 13:22:54.309,62.55,552.0,0.3,0.95,-0.02,1.56,0.19,-0.26
2024-12-06 13:22:54.319,58.05,562.0,0.3,0.96,-0.02,1.32,-0.3,0.17
2024-12-06 13:22:54.326,57.15,561.0,0.29,0.96,-0.02,1.32,-0.3,0.17
2024-12-06 13:22:54.337,57.15,543.0,0.29,0.94,-0.01,1.5,-0.97,0.23
2024-12-06 13:22:54.344,59.85,553.0,0.29,0.94,-0.01,1.38,-1.03,0.23
2024-12-06 13:22:54.347,52.65,549.0,0.3,0.95,-0.02,1.01,-0.72,0.47
2024-12-06 13:22:54.360,57.15,550.0,0.3,0.95,-0.02,0.89,-0.85,0.84
2024-12-06 13:22:54.366,59.17,549.0,0.3,0.96,-0.01,0.95,-1.76,0.96
2024-12-06 13:22:54.372,53.77,551.0,0.29,0.95,-0.0,0.95,-1.76,0.96
2024-12-06 13:22:54.382,58.72,541.0,0.29,0.95,-0.01,1.14,-1.94,0.78
2024-12-06 13:22:54.388,59.17,561.0,0.29,0.95,-0.02,1.08,-1.15,0.65
2024-12-06 13:22:54.395,58.05,554.0,0.29,0.95,-0.02,0.95,-0.54,0.65
2024-12-06 13:22:54.403,56.47,532.0,0.29,0.95,-0.02,0.95,0.01,0.72
2024-12-06 13:22:54.412,53.77,552.0,0.29,0.95,-0.01,1.01,0.01,0.96
2024-12-06 13:22:54.422,56.92,555.0,0.29,0.94,-0.0,1.01,0.01,0.96
2024-12-06 13:22:54.431,55.35,557.0,0.29,0.94,0.0,1.2,-0.42,0.9
2024-12-06 13:22:54.434,55.12,545.0,0.3,0.94,-0.01,1.2,-0.3,0.78
2024-12-06 13:22:54.443,53.1,536.0,0.29,0.95,-0.02,1.14,0.01,0.78
2024-12-06 13:22:54.490,54.22,529.0,0.28,0.95,-0.01,0.89,-1.52,1.02
2024-12-06 13:22:54.495,47.7,537.0,0.29,0.95,-0.01,0.89,-1.52,1.02
2024-12-06 13:22:54.504,52.65,537.0,0.29,0.95,-0.02,0.65,-1.09,1.33
2024-12-06 13:22:54.513,54.22,534.0,0.29,0.95,-0.02,0.53,-0.91,1.51
2024-12-06 13:22:54.520,53.77,529.0,0.29,0.95,-0.01,0.59,-0.78,1.81
2024-12-06 13:22:54.526,51.52,541.0,0.28,0.95,-0.01,0.71,-1.09,2.0
2024-12-06 13:22:54.536,49.05,518.0,0.28,0.95,-0.01,0.71,-1.15,1.75
2024-12-06 13:22:54.542,50.85,530.0,0.28,0.95,-0.01,0.71,-1.15,1.75
2024-12-06 13:22:54.553,51.07,525.0,0.29,0.95,-0.02,0.53,-0.66,1.63
2024-12-06 13:22:54.558,48.82,521.0,0.29,0.95,-0.02,0.46,-0.05,1.87
2024-12-06 13:22:54.567,51.07,516.0,0.28,0.95,-0.02,0.59,0.31,2.3
2024-12-06 13:22:54.574,49.95,521.0,0.28,0.95,-0.02,0.89,0.99,2.85
2024-12-06 13:22:54.581,47.25,524.0,0.28,0.95,-0.02,1.32,0.68,2.97
2024-12-06 13:22:54.591,48.82,515.0,0.27,0.95,-0.02,1.32,0.68,2.85
2024-12-06 13:22:54.599,47.25,538.0,0.27,0.95,-0.03,1.5,0.37,2.85
2024-12-06 13:22:54.607,45.67,517.0,0.27,0.95,-0.03,1.38,0.68,2.61
2024-12-06 13:22:54.728,43.2,525.0,0.27,0.95,-0.01,0.4,1.47,1.33
2024-12-06 13:22:54.733,45.45,507.0,0.27,0.95,-0.01,0.34,1.96,1.39
2024-12-06 13:22:54.741,39.38,534.0,0.27,0.95,-0.01,0.34,2.21,1.63
2024-12-06 13:22:54.752,39.83,513.0,0.28,0.95,-0.01,0.46,2.21,1.63
2024-12-06 13:22:54.757,40.5,522.0,0.28,0.94,-0.01,0.59,2.02,1.81
2024-12-06 13:22:54.768,42.75,551.0,0.27,0.94,-0.02,0.65,1.84,1.69
2024-12-06 13:22:54.775,39.38,535.0,0.27,0.94,-0.02,0.53,1.96,1.26
2024-12-06 13:22:54.779,38.47,513.0,0.27,0.94,-0.02,0.46,1.66,1.02
2024-12-06 13:22:54.788,41.85,505.0,0.28,0.95,-0.02,0.46,1.66,1.02
2024-12-06 13:22:54.796,41.85,514.0,0.29,0.95,-0.03,0.46,1.6,1.02
2024-12-06 13:22:54.803,43.42,512.0,0.29,0.96,-0.03,0.53,1.78,1.26
2024-12-06 13:22:54.812,38.25,521.0,0.28,0.96,-0.02,0.65,1.66,1.57
2024-12-06 13:22:54.821,37.12,516.0,0.27,0.96,-0.02,0.83,1.11,1.63
2024-12-06 13:22:54.828,36.45,517.0,0.27,0.96,-0.02,0.77,1.05,1.57
2024-12-06 13:22:54.836,38.47,519.0,0.27,0.96,-0.02,0.65,0.92,1.57
2024-12-06 13:22:54.849,32.85,515.0,0.27,0.96,-0.02,0.65,0.92,1.57
2024-12-06 13:22:54.851,39.6,510.0,0.28,0.96,-0.02,0.71,0.74,1.75
2024-12-06 13:22:54.859,37.12,510.0,0.28,0.96,-0.02,0.77,0.68,2.12
2024-12-06 13:22:54.871,36.45,521.0,0.27,0.96,-0.02,0.89,0.01,2.61
2024-12-06 13:22:54.876,36.67,526.0,0.27,0.96,-0.02,0.95,-0.91,2.67
2024-12-06 13:22:54.885,39.83,520.0,0.27,0.95,-0.02,0.77,-1.09,2.49
2024-12-06 13:22:54.891,35.55,499.0,0.27,0.95,-0.03,0.77,-1.09,2.49
2024-12-06 13:22:54.899,33.52,524.0,0.28,0.96,-0.03,0.65,-0.85,2.42
2024-12-06 13:22:54.911,31.5,510.0,0.28,0.96,-0.03,0.59,-0.91,2.79
2024-12-06 13:22:54.946,34.42,519.0,0.27,0.96,-0.02,0.65,-1.33,3.4
2024-12-06 13:22:54.951,38.25,500.0,0.27,0.95,-0.03,0.59,-1.15,3.34
2024-12-06 13:22:54.958,32.17,515.0,0.27,0.95,-0.04,0.46,0.68,3.58
2024-12-06 13:22:54.961,30.38,508.0,0.27,0.95,-0.04,0.53,1.66,4.07
2024-12-06 13:22:54.968,32.4,506.0,0.26,0.95,-0.02,0.77,1.78,4.19
2024-12-06 13:22:54.979,31.72,519.0,0.25,0.95,-0.01,0.77,1.78,4.19
2024-12-06 13:22:54.988,28.8,508.0,0.25,0.95,-0.02,0.83,2.57,4.07
2024-12-06 13:22:54.992,32.4,512.0,0.26,0.95,-0.03,0.83,3.49,4.01
2024-12-06 13:22:55.18,27.9,509.0,0.26,0.96,-0.02,0.16,2.94,4.93
2024-12-06 13:22:55.21,29.02,515.0,0.25,0.96,-0.02,0.1,1.66,5.11
2024-12-06 13:22:55.31,28.35,514.0,0.27,0.96,-0.03,-0.15,1.96,5.23
2024-12-06 13:22:55.37,24.3,514.0,0.27,0.96,-0.03,-0.51,2.82,5.6
2024-12-06 13:22:55.45,31.72,522.0,0.27,0.96,-0.02,-0.57,3.3,6.21
2024-12-06 13:22:55.53,24.75,505.0,0.27,0.96,-0.02,-0.45,2.57,6.57
2024-12-06 13:22:55.63,24.52,510.0,0.26,0.96,-0.02,-0.45,2.57,6.57
2024-12-06 13:22:55.71,19.57,525.0,0.27,0.95,-0.02,-0.33,2.88,6.51
2024-12-06 13:22:55.76,26.1,509.0,0.28,0.96,-0.02,-0.45,3.79,6.64
2024-12-06 13:22:55.85,25.2,505.0,0.28,0.96,-0.02,-0.39,4.34,7.12
2024-12-06 13:22:55.92,28.12,511.0,0.28,0.96,-0.02,-0.27,4.1,7.55
2024-12-06 13:22:55.100,24.75,497.0,0.27,0.96,-0.02,0.04,3.67,7.37
2024-12-06 13:22:55.108,24.52,496.0,0.27,0.95,-0.01,0.04,3.67,7.37
2024-12-06 13:22:55.120,22.05,509.0,0.28,0.95,-0.02,0.1,4.34,7.0
2024-12-06 13:22:55.140,22.5,490.0,0.29,0.95,-0.02,0.16,6.11,7.25
2024-12-06 13:22:55.144,25.88,509.0,0.29,0.95,-0.02,0.34,5.75,7.31
2024-12-06 13:22:55.147,23.62,525.0,0.28,0.94,-0.02,0.53,5.62,7.12
2024-12-06 13:22:55.155,21.6,499.0,0.28,0.94,-0.02,0.53,5.62,7.12
2024-12-06 13:22:55.163,21.15,496.0,0.29,0.95,-0.02,0.59,6.23,7.25
2024-12-06 13:22:55.171,18.0,504.0,0.29,0.95,-0.02,0.71,6.05,7.55
2024-12-06 13:22:55.179,18.67,492.0,0.28,0.95,-0.02,0.83,4.95,7.67
2024-12-06 13:22:55.187,20.48,473.0,0.28,0.95,-0.02,0.95,4.28,7.55
2024-12-06 13:22:55.195,19.8,501.0,0.28,0.94,-0.02,0.95,4.83,7.49
2024-12-06 13:22:55.204,18.45,491.0,0.28,0.94,-0.03,0.95,4.83,7.49
2024-12-06 13:22:55.231,18.45,490.0,0.26,0.95,-0.01,1.08,5.2,8.04
2024-12-06 13:22:55.233,16.88,510.0,0.26,0.95,-0.01,0.95,6.54,7.98
2024-12-06 13:22:55.241,16.2,514.0,0.28,0.94,-0.02,0.95,7.52,8.47
2024-12-06 13:22:55.257,11.92,507.0,0.29,0.95,-0.01,1.08,7.52,8.47
2024-12-06 13:22:55.262,15.75,500.0,0.28,0.95,-0.01,1.26,7.09,9.02
2024-12-06 13:22:55.264,12.38,493.0,0.27,0.94,-0.01,1.5,6.17,9.2
2024-12-06 13:22:55.278,6.3,502.0,0.29,0.94,-0.01,1.5,6.48,9.2
2024-12-06 13:22:55.285,13.5,500.0,0.29,0.94,-0.01,1.38,6.97,9.38
2024-12-06 13:22:55.291,10.8,499.0,0.29,0.94,-0.01,1.38,6.97,9.38
2024-12-06 13:22:55.306,10.57,501.0,0.28,0.94,-0.01,1.08,6.72,9.5
2024-12-06 13:22:55.310,13.95,511.0,0.28,0.94,-0.01,1.01,6.48,9.26
2024-12-06 13:22:55.313,9.68,495.0,0.31,0.95,-0.02,0.95,7.58,9.75
2024-12-06 13:22:55.323,11.02,511.0,0.31,0.95,-0.02,0.95,8.0,10.79
2024-12-06 13:22:55.331,11.7,510.0,0.3,0.95,-0.01,1.14,7.03,11.03
2024-12-06 13:22:55.334,9.9,500.0,0.28,0.94,-0.01,1.14,7.03,11.03
2024-12-06 13:22:55.342,8.55,511.0,0.29,0.94,-0.02,0.83,7.52,11.03
2024-12-06 13:22:55.349,6.07,508.0,0.32,0.95,-0.02,0.71,8.37,11.58
2024-12-06 13:22:55.361,9.68,514.0,0.3,0.95,-0.02,0.71,7.45,12.13
2024-12-06 13:22:55.395,6.97,498.0,0.3,0.95,-0.02,0.53,6.17,11.95
2024-12-06 13:22:55.404,2.7,495.0,0.29,0.95,-0.01,0.04,5.38,11.82
2024-12-06 13:22:55.408,1.8,495.0,0.29,0.95,-0.01,-0.21,5.75,11.7
2024-12-06 13:22:55.412,-1.57,514.0,0.31,0.95,-0.01,-0.21,5.87,12.07
2024-12-06 13:22:55.426,4.28,511.0,0.3,0.95,-0.0,-0.15,5.87,12.07
2024-12-06 13:22:55.431,2.25,499.0,0.29,0.95,-0.0,-0.21,4.65,11.82
2024-12-06 13:22:55.434,1.8,495.0,0.29,0.95,-0.01,-0.57,4.59,11.4
2024-12-06 13:22:55.442,2.47,470.0,0.29,0.94,-0.0,-0.7,4.46,11.21
2024-12-06 13:22:55.458,2.7,513.0,0.29,0.94,-0.0,-0.94,3.3,10.91
2024-12-06 13:22:55.464,-2.7,520.0,0.28,0.93,0.01,-0.94,1.96,9.26
2024-12-06 13:22:55.479,-1.8,499.0,0.24,0.92,0.0,-0.94,1.96,9.26
2024-12-06 13:22:55.482,-2.47,517.0,0.25,0.92,0.02,-1.37,3.18,5.23
2024-12-06 13:22:55.488,-12.15,500.0,0.25,0.92,0.02,-1.49,3.0,3.16
2024-12-06 13:22:55.496,-5.85,517.0,0.25,0.92,0.01,-2.1,3.85,1.57
2024-12-06 13:22:55.514,-0.45,492.0,0.27,0.94,0.01,-2.1,3.85,1.57
2024-12-06 13:22:55.517,-1.35,534.0,0.27,0.94,0.02,-2.22,3.0,0.53
2024-12-06 13:22:55.519,-2.7,492.0,0.27,0.93,0.01,-1.92,2.21,-0.63
2024-12-06 13:22:55.533,-3.38,509.0,0.26,0.93,0.01,-1.55,0.74,-2.03
2024-12-06 13:22:55.540,-2.92,498.0,0.26,0.93,0.01,-1.24,-0.97,-3.8
2024-12-06 13:22:55.550,-1.12,502.0,0.26,0.93,0.0,-1.24,-0.97,-3.8
2024-12-06 13:22:55.558,-6.3,499.0,0.29,0.93,-0.01,-1.67,-0.85,-4.9
2024-12-06 13:22:55.560,-6.07,506.0,0.3,0.93,-0.01,-1.73,-0.05,-4.96
2024-12-06 13:22:55.572,-2.02,493.0,0.3,0.93,-0.01,-1.49,0.44,-4.23
2024-12-06 13:22:55.575,-2.47,501.0,0.3,0.93,-0.01,-1.24,0.5,-3.25
2024-12-06 13:22:55.585,-2.92,500.0,0.29,0.94,-0.01,-1.0,0.07,-2.52
2024-12-06 13:22:55.599,-7.2,506.0,0.29,0.95,-0.0,-1.0,0.07,-2.52
2024-12-06 13:22:55.624,-3.6,499.0,0.29,0.95,-0.0,-0.88,-2.07,-0.02
2024-12-06 13:22:55.634,-2.92,504.0,0.29,0.94,-0.01,-0.88,-2.07,-0.02
2024-12-06 13:22:55.639,-4.95,509.0,0.29,0.94,-0.01,-0.82,-2.01,0.72
2024-12-06 13:22:55.643,-2.92,518.0,0.3,0.95,-0.01,-0.88,-1.4,1.51
2024-12-06 13:22:55.654,-3.6,498.0,0.31,0.95,-0.01,-0.88,-0.42,2.18
2024-12-06 13:22:55.755,-4.28,513.0,0.3,0.96,-0.0,0.89,1.72,6.7
2024-12-06 13:22:55.761,-4.5,500.0,0.3,0.96,-0.0,1.2,1.9,6.82
2024-12-06 13:22:55.770,-2.02,513.0,0.3,0.95,-0.0,1.2,2.21,6.88
2024-12-06 13:22:55.777,-0.45,516.0,0.3,0.95,-0.0,1.5,2.21,6.88
2024-12-06 13:22:55.799,-8.1,513.0,0.3,0.94,-0.01,1.75,2.63,6.57
2024-12-06 13:22:55.807,-4.95,505.0,0.3,0.94,-0.01,1.87,2.63,6.45
2024-12-06 13:22:55.820,-5.4,507.0,0.3,0.94,-0.01,1.87,2.76,6.15
2024-12-06 13:22:55.820,-6.52,520.0,0.3,0.94,-0.01,1.87,2.76,6.15
2024-12-06 13:22:55.824,-5.62,493.0,0.29,0.94,-0.01,1.81,2.88,5.9
2024-12-06 13:22:55.842,-10.12,503.0,0.3,0.95,-0.0,1.93,3.12,5.66
2024-12-06 13:22:55.847,-1.35,501.0,0.3,0.95,-0.0,2.05,3.18,5.66
2024-12-06 13:22:55.858,-3.38,526.0,0.3,0.94,-0.0,2.11,3.12,5.66
2024-12-06 13:22:55.869,-2.92,494.0,0.29,0.94,-0.0,2.11,3.12,5.66
2024-12-06 13:22:55.874,-2.47,493.0,0.29,0.93,-0.01,2.17,3.06,5.6
2024-12-06 13:22:55.878,-4.28,498.0,0.29,0.93,-0.01,2.17,3.0,5.29
2024-12-06 13:22:55.914,-5.62,503.0,0.3,0.94,-0.01,1.93,2.57,4.13
2024-12-06 13:22:55.918,-4.28,510.0,0.3,0.95,-0.01,1.93,2.57,3.95
2024-12-06 13:22:55.925,-5.85,503.0,0.3,0.95,-0.0,1.99,2.57,3.77
2024-12-06 13:22:55.935,-0.45,502.0,0.3,0.94,-0.0,2.05,2.51,3.4
2024-12-06 13:22:55.938,-0.45,493.0,0.29,0.94,-0.0,2.05,2.51,3.4
2024-12-06 13:22:55.950,-0.45,498.0,0.29,0.94,-0.0,2.05,2.14,3.03
2024-12-06 13:22:55.953,-0.45,506.0,0.29,0.93,-0.01,2.05,1.53,2.79
2024-12-06 13:22:55.961,-2.92,512.0,0.29,0.93,-0.01,1.93,0.62,2.55
2024-12-06 13:22:56.84,-3.38,514.0,0.29,0.96,-0.01,-0.39,2.51,3.22
2024-12-06 13:22:56.90,-2.92,518.0,0.29,0.96,-0.01,-0.39,2.51,3.22
2024-12-06 13:22:56.98,-0.67,506.0,0.29,0.95,-0.01,-0.45,2.57,3.52
2024-12-06 13:22:56.114,-4.95,511.0,0.29,0.95,-0.01,-0.45,3.0,3.83
2024-12-06 13:22:56.125,-1.12,546.0,0.29,0.95,-0.01,-0.45,3.67,4.07
2024-12-06 13:22:56.131,-4.72,518.0,0.28,0.94,-0.01,-0.39,5.07,4.38
2024-12-06 13:22:56.135,-4.5,512.0,0.28,0.94,-0.01,-0.33,5.07,4.38
2024-12-06 13:22:56.151,-0.67,499.0,0.28,0.94,-0.01,-0.21,5.32,4.44
2024-12-06 13:22:56.154,-3.6,519.0,0.28,0.94,-0.01,-0.15,5.07,4.32
2024-12-06 13:22:56.160,-2.7,506.0,0.28,0.94,-0.01,-0.15,4.83,4.01
2024-12-06 13:22:56.166,-3.15,513.0,0.28,0.94,-0.01,-0.15,5.07,3.77
2024-12-06 13:22:56.174,-2.7,519.0,0.29,0.94,-0.01,-0.15,5.07,3.77
2024-12-06 13:22:56.186,-4.5,504.0,0.29,0.95,-0.01,-0.02,5.87,4.13
2024-12-06 13:22:56.190,-1.8,519.0,0.28,0.96,-0.01,0.16,5.56,4.68
2024-12-06 13:22:56.205,-5.4,523.0,0.28,0.96,-0.0,0.22,5.5,4.99
2024-12-06 13:22:56.209,-2.7,505.0,0.28,0.96,-0.0,0.34,5.87,5.17
2024-12-06 13:22:56.214,-3.38,505.0,0.28,0.96,-0.0,0.34,5.87,5.17
2024-12-06 13:22:56.220,-6.97,497.0,0.28,0.96,-0.0,0.46,6.48,5.29
2024-12-06 13:22:56.228,-3.15,500.0,0.29,0.96,-0.0,0.65,7.94,5.35
2024-12-06 13:22:56.237,-6.75,508.0,0.29,0.95,-0.01,0.83,6.42,5.96
2024-12-06 13:22:56.245,-1.12,506.0,0.29,0.94,-0.02,0.71,6.84,5.96
2024-12-06 13:22:56.252,-2.02,510.0,0.29,0.94,-0.02,0.71,5.75,5.9
2024-12-06 13:22:56.260,-2.25,524.0,0.3,0.94,-0.01,0.71,5.75,6.09
2024-12-06 13:22:56.268,-1.12,513.0,0.31,0.94,-0.01,0.83,4.4,6.09
2024-12-06 13:22:56.276,0.0,519.0,0.31,0.95,-0.01,0.95,3.67,6.09
2024-12-06 13:22:56.293,-2.47,515.0,0.3,0.95,-0.0,1.08,2.94,6.09
2024-12-06 13:22:56.319,-5.62,503.0,0.3,0.94,0.0,1.38,3.91,5.96
2024-12-06 13:22:56.322,-5.4,505.0,0.31,0.95,0.0,1.38,4.22,6.15
2024-12-06 13:22:56.328,-2.47,499.0,0.31,0.95,0.0,1.38,4.1,6.27
2024-12-06 13:22:56.335,-2.47,489.0,0.31,0.94,0.01,1.38,4.1,6.45
2024-12-06 13:22:56.346,-0.9,521.0,0.31,0.94,0.0,1.38,3.98,6.45
2024-12-06 13:22:56.355,-3.15,520.0,0.31,0.94,-0.0,1.26,3.98,6.57
2024-12-06 13:22:56.359,-3.6,518.0,0.31,0.94,-0.01,1.2,4.16,6.7
2024-12-06 13:22:56.368,-0.9,510.0,0.31,0.94,-0.01,1.01,5.07,6.88
2024-12-06 13:22:56.374,-9.22,524.0,0.3,0.94,-0.01,0.95,5.93,7.12
2024-12-06 13:22:56.382,-4.5,515.0,0.3,0.94,-0.0,0.95,5.93,7.12
2024-12-06 13:22:56.391,-2.7,521.0,0.3,0.94,0.0,0.89,6.48,7.49
2024-12-06 13:22:56.400,-5.4,503.0,0.3,0.94,0.0,0.77,6.84,7.92
2024-12-06 13:22:56.406,-4.5,521.0,0.3,0.94,0.0,0.65,7.09,8.34
2024-12-06 13:22:56.418,-2.25,516.0,0.3,0.94,-0.0,0.46,7.33,8.65
2024-12-06 13:22:56.430,-2.02,497.0,0.3,0.93,-0.0,0.16,7.45,9.02
2024-12-06 13:22:56.443,-4.95,506.0,0.3,0.93,-0.01,0.16,7.45,9.02
2024-12-06 13:22:56.450,-1.35,499.0,0.3,0.94,-0.01,-0.33,7.45,9.87
2024-12-06 13:22:56.459,-2.25,497.0,0.31,0.94,-0.01,-0.51,7.64,10.54
2024-12-06 13:22:56.461,-4.5,499.0,0.31,0.94,-0.01,-0.7,9.59,11.09
2024-12-06 13:22:56.468,0.0,517.0,0.3,0.95,-0.01,-0.7,9.59,11.09
2024-12-06 13:22:56.477,-6.52,514.0,0.31,0.95,0.0,-0.51,9.65,11.7
2024-12-06 13:22:56.488,-6.97,501.0,0.32,0.95,-0.0,-0.45,8.86,12.74
2024-12-06 13:22:56.491,-2.92,503.0,0.33,0.94,-0.0,-0.45,8.74,13.23
2024-12-06 13:22:56.533,-0.67,522.0,0.34,0.93,0.0,-1.18,5.07,13.35
2024-12-06 13:22:56.536,-2.92,519.0,0.34,0.93,0.0,-1.31,5.44,12.92
2024-12-06 13:22:56.544,-2.7,504.0,0.33,0.93,0.0,-1.12,5.62,12.49
2024-12-06 13:22:56.553,-2.7,518.0,0.33,0.93,0.01,-1.12,5.62,12.49
2024-12-06 13:22:56.566,-4.72,513.0,0.33,0.94,0.01,-0.82,5.56,12.31
2024-12-06 13:22:56.569,-1.12,508.0,0.34,0.95,0.01,-0.57,5.2,12.19
2024-12-06 13:22:56.579,-4.5,520.0,0.34,0.94,0.01,-0.51,4.95,12.01
2024-12-06 13:22:56.590,-1.8,504.0,0.34,0.94,0.01,-0.45,4.77,11.82
2024-12-06 13:22:56.592,-0.9,512.0,0.35,0.94,0.02,-0.45,4.34,11.76
2024-12-06 13:22:56.599,-6.07,506.0,0.35,0.93,0.01,-0.45,4.34,11.76
2024-12-06 13:22:56.631,-5.4,508.0,0.33,0.93,0.01,-0.51,5.5,11.76
2024-12-06 13:22:56.642,-2.02,502.0,0.33,0.93,0.02,-0.21,5.62,12.01
2024-12-06 13:22:56.644,-4.95,488.0,0.31,0.93,0.03,0.53,2.63,11.09
2024-12-06 13:22:56.652,-1.35,503.0,0.3,0.92,0.02,0.4,1.29,9.08
2024-12-06 13:22:56.661,1.57,536.0,0.31,0.93,0.02,-0.21,1.23,6.45
2024-12-06 13:22:56.682,-4.05,497.0,0.31,0.93,0.02,-0.21,0.5,4.38
2024-12-06 13:22:56.685,0.0,512.0,0.31,0.91,0.03,0.16,-0.6,2.85
2024-12-06 13:22:56.691,2.7,518.0,0.3,0.91,0.03,0.59,-1.82,1.26
2024-12-06 13:22:56.703,2.25,516.0,0.31,0.91,0.02,0.59,-1.82,-0.26
2024-12-06 13:22:56.893,23.85,534.0,0.32,0.95,0.01,1.44,-2.92,-6.55
2024-12-06 13:22:56.901,24.97,522.0,0.31,0.95,0.01,1.75,-2.92,-6.55
2024-12-06 13:22:56.911,25.2,525.0,0.31,0.95,0.01,1.69,-0.85,-5.94
2024-12-06 13:22:56.919,29.02,542.0,0.31,0.95,0.01,1.5,-1.27,-5.33
2024-12-06 13:22:56.924,23.17,534.0,0.32,0.95,-0.0,1.69,0.99,-4.17
2024-12-06 13:22:56.932,29.7,548.0,0.32,0.95,-0.0,1.69,0.56,-3.07
2024-12-06 13:22:56.939,31.27,525.0,0.32,0.96,0.01,1.69,0.44,-1.54
2024-12-06 13:22:56.947,29.25,525.0,0.32,0.96,-0.0,1.2,0.44,-1.54
2024-12-06 13:22:56.985,29.25,545.0,0.3,0.97,-0.01,1.01,-0.24,2.49
2024-12-06 13:22:56.987,29.25,553.0,0.3,0.97,-0.01,1.01,-0.24,2.49
2024-12-06 13:22:56.993,33.3,535.0,0.3,0.98,-0.01,0.77,1.47,3.71
2024-12-06 13:22:57.1,34.42,541.0,0.29,0.97,0.0,1.2,0.31,4.74
2024-12-06 13:22:57.13,37.12,537.0,0.3,0.96,-0.01,1.44,1.9,5.66
2024-12-06 13:22:57.23,33.97,574.0,0.3,0.96,-0.01,1.14,2.02,6.88
2024-12-06 13:22:57.30,34.88,538.0,0.3,0.97,0.0,1.14,2.02,6.88
2024-12-06 13:22:57.39,37.8,541.0,0.29,0.96,-0.0,1.08,-0.3,7.67
2024-12-06 13:22:57.51,32.85,534.0,0.3,0.96,0.01,0.59,-0.24,8.71
2024-12-06 13:22:57.55,38.7,543.0,0.3,0.96,0.01,0.77,-2.19,8.89
2024-12-06 13:22:57.65,40.5,535.0,0.29,0.95,-0.0,0.77,-2.19,8.77
2024-12-06 13:22:57.72,40.05,551.0,0.29,0.95,-0.01,0.89,-0.66,8.77
2024-12-06 13:22:57.80,41.85,560.0,0.29,0.95,0.01,0.77,0.01,8.89
2024-12-06 13:22:57.87,41.85,539.0,0.28,0.95,0.02,0.65,-0.91,9.02
2024-12-06 13:22:57.96,44.55,543.0,0.28,0.95,0.0,0.77,0.13,8.71
2024-12-06 13:22:57.111,41.62,567.0,0.28,0.95,0.0,0.53,1.78,8.77
2024-12-06 13:22:57.120,46.35,553.0,0.28,0.94,-0.0,0.59,2.39,9.26
2024-12-06 13:22:57.132,42.75,547.0,0.28,0.94,0.01,0.59,2.76,9.38
2024-12-06 13:22:57.146,42.08,550.0,0.29,0.95,0.0,0.28,3.61,10.42
2024-12-06 13:22:57.148,47.92,549.0,0.29,0.96,-0.01,0.28,3.61,10.42
2024-12-06 13:22:57.154,43.88,558.0,0.28,0.95,-0.0,0.4,3.79,10.72
2024-12-06 13:22:57.167,41.17,556.0,0.28,0.95,0.0,0.46,4.65,10.42
2024-12-06 13:22:57.173,43.65,553.0,0.29,0.95,0.0,0.04,4.83,10.36
2024-12-06 13:22:57.200,49.05,560.0,0.29,0.95,0.0,-0.02,4.53,10.42
2024-12-06 13:22:57.205,50.62,549.0,0.29,0.93,-0.01,-0.15,5.2,9.81
2024-12-06 13:22:57.207,49.95,557.0,0.29,0.93,-0.01,-0.21,5.75,9.75
2024-12-06 13:22:57.223,50.85,559.0,0.29,0.93,0.0,-0.02,5.38,9.5
2024-12-06 13:22:57.225,48.38,570.0,0.29,0.92,0.0,0.28,5.68,8.95
2024-12-06 13:22:57.232,53.77,563.0,0.29,0.92,0.0,0.28,5.68,8.95
2024-12-06 13:22:57.241,50.17,568.0,0.3,0.93,-0.01,0.34,6.91,8.71
2024-12-06 13:22:57.253,50.4,557.0,0.3,0.92,-0.0,0.59,7.09,8.65
2024-12-06 13:22:57.261,53.1,574.0,0.29,0.92,0.01,0.83,6.66,8.22
2024-12-06 13:22:57.263,55.12,569.0,0.29,0.92,0.01,0.89,6.78,7.86
2024-12-06 13:22:57.269,55.57,575.0,0.3,0.93,0.0,0.89,6.78,7.86
2024-12-06 13:22:57.285,51.75,567.0,0.32,0.94,-0.0,0.95,6.91,7.92
2024-12-06 13:22:57.301,56.25,577.0,0.32,0.93,0.01,1.08,5.32,7.98
2024-12-06 13:22:57.314,56.47,567.0,0.32,0.93,0.01,0.46,5.26,7.31
2024-12-06 13:22:57.321,60.3,562.0,0.32,0.93,0.02,0.16,4.22,7.25
2024-12-06 13:22:57.326,56.7,572.0,0.32,0.92,0.01,0.53,3.3,6.88
2024-12-06 13:22:57.337,59.62,572.0,0.35,0.94,-0.0,0.71,3.91,7.12
2024-12-06 13:22:57.345,60.07,575.0,0.35,0.94,-0.0,0.59,2.45,7.86
2024-12-06 13:22:57.355,59.62,567.0,0.35,0.93,0.01,0.89,0.44,7.98
2024-12-06 13:22:57.365,57.15,577.0,0.36,0.93,0.01,0.71,-0.48,7.61
2024-12-06 13:22:57.371,58.5,572.0,0.36,0.94,0.01,-0.08,-1.58,7.67
2024-12-06 13:22:57.377,62.55,577.0,0.36,0.94,0.02,-0.45,-2.68,7.67
2024-12-06 13:22:57.399,60.97,587.0,0.34,0.95,0.02,-0.82,-3.04,7.73
2024-12-06 13:22:57.433,63.45,594.0,0.31,0.96,0.03,-2.04,-0.66,10.66
2024-12-06 13:22:57.435,67.95,592.0,0.31,0.94,0.01,-2.04,-0.66,10.66
2024-12-06 13:22:57.437,63.45,576.0,0.31,0.95,0.0,-2.89,0.31,11.34
2024-12-06 13:22:57.445,66.15,578.0,0.31,0.96,0.01,-3.81,0.56,12.43
2024-12-06 13:22:57.461,64.8,579.0,0.31,0.95,0.01,-4.24,-0.11,13.47
2024-12-06 13:22:57.467,63.67,655.0,0.31,0.95,0.01,-4.24,-1.03,14.26
2024-12-06 13:22:57.473,61.42,590.0,0.31,0.94,0.0,-4.6,-2.07,14.75
2024-12-06 13:22:57.494,68.4,599.0,0.33,0.94,0.0,-4.6,-2.07,14.75
2024-12-06 13:22:57.509,71.1,604.0,0.34,0.94,0.02,-4.91,-2.98,15.06
2024-12-06 13:22:57.516,67.72,585.0,0.34,0.94,0.02,-4.42,-3.1,14.39
2024-12-06 13:22:57.520,71.78,600.0,0.34,0.93,0.02,-4.42,-3.1,14.39
2024-12-06 13:22:57.523,67.72,592.0,0.34,0.92,0.02,-4.05,-2.8,13.04
2024-12-06 13:22:57.531,73.57,605.0,0.35,0.92,0.03,-3.81,-2.25,11.64
2024-12-06 13:22:57.539,73.57,596.0,0.35,0.91,0.03,-3.32,-1.88,10.42
2024-12-06 13:22:57.546,71.78,596.0,0.35,0.91,0.03,-2.83,-2.13,9.32
2024-12-06 13:22:57.555,69.75,599.0,0.35,0.91,0.03,-2.47,-2.68,8.47
2024-12-06 13:22:57.577,70.2,598.0,0.33,0.92,0.02,-2.4,-2.07,7.86
2024-12-06 13:22:57.580,72.9,589.0,0.32,0.92,0.02,-2.65,-1.15,7.61
2024-12-06 13:22:57.585,76.28,601.0,0.32,0.92,0.02,-2.89,-0.97,7.73
2024-12-06 13:22:57.593,74.47,595.0,0.32,0.92,0.02,-2.95,-0.78,7.92
2024-12-06 13:22:57.606,75.6,632.0,0.31,0.92,0.02,-3.01,-0.05,7.73
2024-12-06 13:22:57.616,74.7,616.0,0.31,0.91,0.01,-3.01,-0.05,7.73
2024-12-06 13:22:57.623,75.15,613.0,0.32,0.92,0.01,-3.38,0.62,7.61
2024-12-06 13:22:57.661,76.95,615.0,0.33,0.93,0.01,-3.75,0.8,7.92
2024-12-06 13:22:57.665,78.75,630.0,0.35,0.94,0.02,-3.14,1.11,5.72
2024-12-06 13:22:57.669,75.82,610.0,0.35,0.94,0.03,-2.71,0.74,5.41
2024-12-06 13:22:57.677,80.32,616.0,0.35,0.95,0.03,-2.22,-0.11,5.35
2024-12-06 13:22:57.693,80.55,613.0,0.35,0.95,0.03,-2.22,-0.11,5.35
2024-12-06 13:22:57.698,74.47,606.0,0.35,0.94,0.02,-1.92,-0.3,5.29
2024-12-06 13:22:57.700,83.03,634.0,0.35,0.95,0.02,-2.1,-0.24,5.41
2024-12-06 13:22:57.709,82.12,621.0,0.34,0.95,0.02,-2.16,-0.66,5.84
2024-12-06 13:22:57.720,83.47,613.0,0.34,0.93,0.01,-1.92,-0.66,5.84
2024-12-06 13:22:57.725,78.97,615.0,0.33,0.93,0.01,-1.73,-0.3,5.78
2024-12-06 13:22:57.732,80.55,623.0,0.34,0.93,0.02,-1.73,-0.3,5.78
2024-12-06 13:22:57.747,84.6,616.0,0.35,0.95,0.02,-1.79,-0.66,6.21
2024-12-06 13:22:57.755,81.9,622.0,0.35,0.94,0.02,-1.67,-0.78,6.7
2024-12-06 13:22:57.761,82.57,628.0,0.35,0.92,0.02,-1.12,-1.27,6.45
2024-12-06 13:22:57.856,89.77,643.0,0.37,0.92,0.04,-1.06,-4.2,15.67
2024-12-06 13:22:57.860,88.88,634.0,0.37,0.93,0.04,-1.31,-4.94,16.03
2024-12-06 13:22:57.868,93.15,639.0,0.39,0.9,0.02,-1.37,-4.94,15.42
2024-12-06 13:22:57.882,91.12,622.0,0.42,0.88,0.03,-1.43,-4.63,13.59
2024-12-06 13:22:57.885,91.12,626.0,0.41,0.88,0.03,-1.73,-5.12,11.95
2024-12-06 13:22:57.893,93.15,662.0,0.42,0.9,0.04,-1.73,-5.91,10.97
2024-12-06 13:22:57.902,93.6,647.0,0.4,0.92,0.03,-1.79,-5.91,10.97
2024-12-06 13:22:57.909,91.12,644.0,0.38,0.91,0.02,-1.49,-6.22,9.99
2024-12-06 13:22:57.917,94.95,630.0,0.38,0.9,0.01,-1.06,-6.03,8.83
2024-12-06 13:22:57.924,95.17,648.0,0.38,0.91,0.01,-0.88,-5.67,7.98
2024-12-06 13:22:57.960,94.27,651.0,0.36,0.91,0.01,-0.76,-5.61,8.59
2024-12-06 13:22:57.964,96.07,647.0,0.37,0.9,0.0,-0.76,-5.42,8.53
2024-12-06 13:22:57.974,96.52,650.0,0.37,0.9,0.01,-0.82,-5.24,8.41
2024-12-06 13:22:57.980,94.95,647.0,0.37,0.91,0.01,-0.94,-5.85,8.41
2024-12-06 13:22:57.989,86.85,659.0,0.36,0.92,0.01,-0.94,-5.85,8.41
2024-12-06 13:22:58.12,96.97,646.0,0.36,0.92,0.0,-0.63,-6.52,7.92
2024-12-06 13:22:58.17,97.2,647.0,0.36,0.92,0.01,-0.15,-4.63,8.59
2024-12-06 13:22:58.24,96.97,655.0,0.36,0.92,0.01,0.53,-4.02,8.53
2024-12-06 13:22:58.31,94.05,664.0,0.35,0.9,0.02,0.53,-4.02,8.53
2024-12-06 13:22:58.39,99.22,662.0,0.36,0.91,0.01,0.83,-4.2,8.28
2024-12-06 13:22:58.44,96.07,655.0,0.36,0.92,0.01,0.4,-3.41,8.95
2024-12-06 13:22:58.52,96.75,661.0,0.35,0.92,0.02,0.04,-3.29,9.5
2024-12-06 13:22:58.59,98.55,644.0,0.35,0.92,0.02,-0.21,-3.04,9.5
2024-12-06 13:22:58.63,95.4,650.0,0.36,0.9,0.02,-0.39,-2.56,9.08
2024-12-06 13:22:58.73,100.8,660.0,0.37,0.9,0.02,-0.39,-2.56,9.08
2024-12-06 13:22:58.80,97.42,672.0,0.37,0.91,0.02,-0.51,-2.25,8.77
2024-12-06 13:22:58.113,101.92,671.0,0.39,0.9,0.02,-0.33,-0.36,8.1
2024-12-06 13:22:58.116,97.65,685.0,0.4,0.88,0.02,-0.27,0.13,7.18
2024-12-06 13:22:58.127,98.1,673.0,0.41,0.89,0.02,-0.27,0.37,6.21
2024-12-06 13:22:58.139,100.57,673.0,0.4,0.9,0.02,-0.33,0.07,5.66
2024-12-06 13:22:58.144,102.82,670.0,0.4,0.9,0.02,-0.15,0.01,5.05
2024-12-06 13:22:58.149,99.67,670.0,0.4,0.9,0.02,-0.15,-0.72,4.74
2024-12-06 13:22:58.168,98.1,676.0,0.41,0.9,0.02,-0.08,-0.36,4.74
2024-12-06 13:22:58.171,101.25,669.0,0.41,0.91,0.02,-0.21,-0.36,5.11
2024-12-06 13:22:58.185,101.25,663.0,0.41,0.9,0.02,-0.21,-0.54,5.29
2024-12-06 13:22:58.200,103.5,665.0,0.41,0.9,0.02,-0.08,-0.97,5.23
2024-12-06 13:22:58.204,101.7,682.0,0.39,0.9,0.02,-0.15,-1.46,5.05
2024-12-06 13:22:58.213,98.77,698.0,0.39,0.89,0.02,-0.27,-1.33,4.56
2024-12-06 13:22:58.220,103.95,683.0,0.39,0.9,0.03,-0.33,-0.72,4.32
2024-12-06 13:22:58.224,99.9,665.0,0.39,0.9,0.03,-0.33,-0.48,4.38
2024-12-06 13:22:58.254,101.47,680.0,0.4,0.91,0.02,-0.39,0.44,4.62
2024-12-06 13:22:58.261,102.38,661.0,0.41,0.89,0.02,-0.33,1.17,5.41
2024-12-06 13:22:58.264,105.97,676.0,0.41,0.89,0.02,-0.15,0.74,5.23
2024-12-06 13:22:58.270,97.65,684.0,0.4,0.89,0.02,-0.15,0.74,4.99
2024-12-06 13:22:58.282,105.3,679.0,0.39,0.9,0.02,-0.39,0.25,4.99
2024-12-06 13:22:58.285,100.57,696.0,0.38,0.91,0.02,-0.82,0.25,4.8
2024-12-06 13:22:58.299,103.27,672.0,0.38,0.92,0.02,-0.94,0.86,4.62
2024-12-06 13:22:58.302,105.52,669.0,0.38,0.92,0.03,-1.24,0.62,5.11
2024-12-06 13:22:58.310,105.52,665.0,0.38,0.94,0.03,-1.18,1.41,5.29
2024-12-06 13:22:58.319,102.38,673.0,0.38,0.91,0.01,-1.18,1.41,5.29
2024-12-06 13:22:58.325,103.27,677.0,0.4,0.9,0.01,-0.63,2.14,4.87
2024-12-06 13:22:58.333,102.38,679.0,0.4,0.92,0.02,-0.88,1.41,4.87
2024-12-06 13:22:58.341,101.7,677.0,0.39,0.93,0.01,-1.31,0.5,5.05
2024-12-06 13:22:58.353,106.42,700.0,0.39,0.9,0.01,-0.88,0.5,4.5
2024-12-06 13:22:58.358,101.7,702.0,0.39,0.9,0.01,-0.57,0.01,4.07
2024-12-06 13:22:58.387,98.1,684.0,0.38,0.93,0.02,-1.12,-1.4,5.23
2024-12-06 13:22:58.395,101.25,688.0,0.38,0.93,0.02,-0.51,-0.97,6.64
2024-12-06 13:22:58.403,104.17,691.0,0.38,0.92,0.02,0.16,-1.03,8.28
2024-12-06 13:22:58.414,103.72,665.0,0.38,0.91,0.02,0.16,-1.03,8.28
2024-12-06 13:22:58.426,100.35,691.0,0.4,0.89,0.02,0.4,-1.09,9.14
2024-12-06 13:22:58.430,106.42,672.0,0.4,0.9,0.02,0.04,-0.91,9.57
2024-12-06 13:22:58.435,105.97,688.0,0.39,0.91,0.02,-0.51,-0.36,9.5
2024-12-06 13:22:58.442,105.07,688.0,0.39,0.91,0.02,-0.94,0.13,9.44
2024-12-06 13:22:58.458,102.15,720.0,0.4,0.91,0.03,-0.94,0.44,9.32
2024-12-06 13:22:58.469,101.25,686.0,0.41,0.92,0.03,-0.51,0.37,9.14
2024-12-06 13:22:58.474,100.57,665.0,0.42,0.91,0.03,-0.21,0.19,8.77
2024-12-06 13:22:58.482,103.5,683.0,0.42,0.91,0.03,0.1,-0.17,8.16
2024-12-06 13:22:58.490,103.95,665.0,0.41,0.9,0.03,0.34,-1.15,7.06
2024-12-06 13:22:58.506,96.75,672.0,0.41,0.89,0.03,0.34,-1.15,7.06
2024-12-06 13:22:58.508,106.2,681.0,0.41,0.89,0.03,0.28,-1.27,6.33
2024-12-06 13:22:58.513,101.25,678.0,0.41,0.89,0.03,0.1,-0.72,5.96
2024-12-06 13:22:58.527,105.07,668.0,0.4,0.88,0.03,0.1,-0.17,5.6
2024-12-06 13:22:58.530,100.57,666.0,0.4,0.88,0.03,0.1,0.56,5.41
2024-12-06 13:22:58.535,103.05,681.0,0.4,0.88,0.03,0.1,16.18,5.29
2024-12-06 13:22:58.571,102.6,676.0,0.41,0.87,0.03,0.22,1.05,5.29
2024-12-06 13:22:58.583,99.45,669.0,0.4,0.89,0.02,0.1,1.17,4.19
2024-12-06 13:22:58.590,106.65,678.0,0.39,0.89,0.02,-0.27,1.17,4.19
2024-12-06 13:22:58.593,101.92,692.0,0.38,0.9,0.03,-0.51,1.41,3.77
2024-12-06 13:22:58.598,99.9,690.0,0.38,0.91,0.02,-0.51,1.84,3.46
2024-12-06 13:22:58.610,100.57,673.0,0.38,0.91,0.02,-0.33,2.27,3.16
2024-12-06 13:22:58.620,104.62,675.0,0.39,0.91,0.03,-0.27,2.57,2.85
2024-12-06 13:22:58.626,104.62,671.0,0.4,0.91,0.03,-0.15,2.51,2.55
2024-12-06 13:22:58.638,106.42,675.0,0.4,0.91,0.03,-0.08,2.21,2.3
2024-12-06 13:22:58.649,99.22,672.0,0.4,0.9,0.03,-0.08,1.96,2.0
2024-12-06 13:22:58.654,98.77,659.0,0.4,0.9,0.03,-0.08,1.78,1.69
2024-12-06 13:22:58.657,102.82,671.0,0.4,0.9,0.03,-0.08,1.41,1.45
2024-12-06 13:22:58.672,104.4,682.0,0.4,0.9,0.03,-0.08,1.41,1.45
2024-12-06 13:22:58.674,103.72,677.0,0.4,0.9,0.03,-0.08,1.47,1.39
2024-12-06 13:22:58.689,103.95,677.0,0.4,0.9,0.03,-0.02,1.72,1.57
2024-12-06 13:22:58.692,101.92,664.0,0.4,0.91,0.03,-0.08,1.96,1.75
2024-12-06 13:22:58.695,104.4,717.0,0.4,0.91,0.03,-0.27,1.96,1.94
2024-12-06 13:22:58.708,105.07,672.0,0.41,0.91,0.03,-0.27,1.96,1.94
2024-12-06 13:22:58.716,98.77,664.0,0.41,0.91,0.03,-0.27,1.72,2.12
2024-12-06 13:22:58.721,101.92,686.0,0.41,0.92,0.03,-0.21,1.35,2.24
2024-12-06 13:22:58.727,105.75,669.0,0.41,0.92,0.03,-0.21,1.23,2.3
2024-12-06 13:22:58.735,101.47,672.0,0.41,0.92,0.03,-0.08,1.17,2.49
2024-12-06 13:22:58.743,105.97,674.0,0.41,0.91,0.03,0.1,1.05,2.85
2024-12-06 13:22:58.751,106.65,680.0,0.41,0.9,0.03,0.1,1.05,2.85
2024-12-06 13:22:58.760,103.5,698.0,0.41,0.9,0.03,0.22,0.92,3.16
2024-12-06 13:22:58.798,106.2,668.0,0.41,0.9,0.03,0.28,0.86,3.34
2024-12-06 13:22:58.805,103.5,655.0,0.41,0.91,0.03,0.04,0.44,3.58
2024-12-06 13:22:58.811,103.72,662.0,0.4,0.91,0.03,0.04,0.44,3.64
2024-12-06 13:22:58.910,98.55,664.0,0.4,0.91,0.02,0.22,1.11,3.52
2024-12-06 13:22:58.916,104.17,671.0,0.39,0.91,0.02,0.16,1.17,3.4
2024-12-06 13:22:58.925,98.32,668.0,0.39,0.91,0.03,0.22,1.17,3.34
2024-12-06 13:22:58.933,99.9,665.0,0.39,0.91,0.03,0.22,1.17,3.16
2024-12-06 13:22:58.945,98.55,690.0,0.39,0.91,0.03,0.22,1.17,3.1
2024-12-06 13:22:58.959,100.12,686.0,0.39,0.91,0.03,0.59,1.11,3.16
2024-12-06 13:22:58.965,91.35,701.0,0.4,0.91,0.03,0.83,0.99,3.22
2024-12-06 13:22:58.971,102.82,676.0,0.4,0.91,0.03,1.01,0.86,3.4
2024-12-06 13:22:59.17,98.55,666.0,0.41,0.91,0.03,1.38,0.92,3.28
2024-12-06 13:22:59.23,104.62,667.0,0.42,0.9,0.03,1.5,0.92,3.28
2024-12-06 13:22:59.31,106.42,666.0,0.43,0.9,0.03,1.56,0.99,2.24
2024-12-06 13:22:59.39,99.22,665.0,0.42,0.9,0.03,1.62,0.8,1.08
2024-12-06 13:22:59.47,103.5,664.0,0.41,0.91,0.03,1.75,0.68,0.17
2024-12-06 13:22:59.54,106.2,666.0,0.41,0.91,0.03,1.81,0.86,-0.26
2024-12-06 13:22:59.64,103.95,668.0,0.4,0.91,0.03,1.81,0.86,-0.26
2024-12-06 13:22:59.71,102.6,663.0,0.4,0.9,0.03,1.87,1.17,-0.14
2024-12-06 13:22:59.94,103.27,659.0,0.37,0.91,0.02,2.91,0.99,0.72
2024-12-06 13:22:59.103,101.7,674.0,0.37,0.92,0.02,2.85,2.57,2.18
2024-12-06 13:22:59.106,99.22,666.0,0.37,0.92,0.02,2.66,2.82,3.46
2024-12-06 13:22:59.111,103.95,665.0,0.37,0.92,0.02,2.66,2.82,3.46
2024-12-06 13:22:59.117,105.75,672.0,0.39,0.91,0.02,2.48,2.63,3.89
2024-12-06 13:22:59.130,102.82,667.0,0.4,0.91,0.02,2.36,2.51,3.77
2024-12-06 13:22:59.144,103.95,663.0,0.41,0.91,0.02,2.23,1.84,3.4
2024-12-06 13:22:59.147,100.8,683.0,0.41,0.91,0.02,2.17,1.53,2.49
2024-12-06 13:22:59.151,105.75,684.0,0.41,0.91,0.02,2.17,1.6,1.2
2024-12-06 13:22:59.158,101.25,659.0,0.41,0.9,0.02,2.17,1.6,1.2
2024-12-06 13:22:59.170,100.8,671.0,0.41,0.9,0.02,2.23,1.47,-0.2
2024-12-06 13:22:59.174,104.85,682.0,0.4,0.91,0.02,2.48,1.35,-1.3
2024-12-06 13:22:59.180,100.35,667.0,0.39,0.92,0.02,2.85,1.23,-1.79
2024-12-06 13:22:59.188,104.62,677.0,0.39,0.92,0.02,3.09,1.17,-1.54
2024-12-06 13:22:59.195,102.6,669.0,0.38,0.92,0.02,3.15,1.41,-0.93
2024-12-06 13:22:59.206,103.05,656.0,0.38,0.92,0.02,3.15,1.41,-0.93
2024-12-06 13:22:59.239,101.02,661.0,0.39,0.91,0.02,3.58,1.9,1.51
2024-12-06 13:22:59.242,100.57,662.0,0.39,0.91,0.02,3.58,1.9,1.51
2024-12-06 13:22:59.253,100.8,658.0,0.39,0.9,0.01,3.46,1.84,1.08
2024-12-06 13:22:59.261,103.95,648.0,0.4,0.89,0.02,3.27,1.78,0.1
2024-12-06 13:22:59.266,103.05,648.0,0.4,0.89,0.02,3.03,1.78,-1.12
2024-12-06 13:22:59.274,102.82,658.0,0.4,0.89,0.02,2.97,1.9,-1.85
2024-12-06 13:22:59.283,105.97,669.0,0.4,0.9,0.02,3.15,2.02,-2.21
2024-12-06 13:22:59.292,104.17,637.0,0.4,0.9,0.02,3.15,2.02,-2.21
2024-12-06 13:22:59.296,105.3,640.0,0.4,0.9,0.02,3.39,2.08,-2.4
2024-12-06 13:22:59.304,101.25,646.0,0.35,0.92,0.01,3.52,2.02,-1.18
2024-12-06 13:22:59.314,103.27,635.0,0.33,0.92,0.02,3.94,2.33,1.69
2024-12-06 13:22:59.322,98.1,628.0,0.36,0.88,0.02,4.07,2.02,2.67
2024-12-06 13:22:59.329,102.6,645.0,0.36,0.88,0.02,3.39,2.27,2.67
2024-12-06 13:22:59.341,103.5,650.0,0.38,0.89,0.02,3.39,2.27,2.67
2024-12-06 13:22:59.384,105.07,628.0,0.38,0.92,0.01,2.66,1.9,-1.18
2024-12-06 13:22:59.395,100.8,629.0,0.36,0.94,0.0,2.54,1.66,-1.91
2024-12-06 13:22:59.398,102.15,629.0,0.34,0.95,0.02,2.91,0.37,2.06
2024-12-06 13:22:59.407,104.17,624.0,0.34,0.95,0.02,1.75,-0.24,3.16
2024-12-06 13:22:59.413,97.2,655.0,0.36,0.96,0.0,1.75,-0.24,3.16
2024-12-06 13:22:59.430,105.75,623.0,0.35,0.96,0.01,1.56,-1.27,4.5
2024-12-06 13:22:59.443,99.9,623.0,0.36,0.95,0.0,1.2,-2.07,5.66
2024-12-06 13:22:59.472,101.25,618.0,0.37,0.95,-0.01,0.77,-7.5,9.93
2024-12-06 13:22:59.475,98.55,616.0,0.37,0.93,-0.01,0.65,-7.5,10.42
2024-12-06 13:22:59.479,97.88,627.0,0.37,0.93,-0.01,0.95,-6.95,9.93
2024-12-06 13:22:59.491,98.55,634.0,0.37,0.9,0.0,0.95,-6.95,9.93
2024-12-06 13:22:59.495,96.07,619.0,0.39,0.89,0.01,1.08,-6.95,9.2
2024-12-06 13:22:59.503,99.22,678.0,0.4,0.89,0.01,0.95,-7.32,8.71
2024-12-06 13:22:59.512,97.42,606.0,0.39,0.87,0.0,1.26,-7.13,8.04
2024-12-06 13:22:59.519,94.95,627.0,0.39,0.86,-0.0,2.05,-5.85,7.06
2024-12-06 13:22:59.527,98.32,612.0,0.39,0.86,-0.0,2.54,-4.51,6.21
2024-12-06 13:22:59.537,95.17,618.0,0.4,0.87,-0.0,2.54,-4.51,6.21
2024-12-06 13:22:59.545,95.85,613.0,0.39,0.88,-0.01,2.6,-2.37,5.72
2024-12-06 13:22:59.550,94.27,609.0,0.38,0.88,0.0,2.6,-1.52,5.05
2024-12-06 13:22:59.560,90.9,613.0,0.37,0.87,0.0,2.91,-1.64,4.07
2024-12-06 13:22:59.574,93.6,605.0,0.37,0.89,-0.01,2.36,1.23,2.79
2024-12-06 13:22:59.582,91.8,610.0,0.37,0.9,-0.0,2.36,1.23,2.79
2024-12-06 13:22:59.590,92.25,619.0,0.36,0.89,-0.01,2.3,1.78,2.55
2024-12-06 13:22:59.609,86.17,609.0,0.36,0.88,-0.01,2.85,2.63,2.06
2024-12-06 13:22:59.617,93.15,604.0,0.37,0.89,-0.01,3.03,3.85,1.57
2024-12-06 13:22:59.626,89.55,622.0,0.37,0.91,-0.01,2.78,3.73,1.33
2024-12-06 13:22:59.630,89.1,617.0,0.36,0.91,-0.01,2.78,3.73,1.33
2024-12-06 13:22:59.635,88.88,617.0,0.36,0.9,-0.01,2.85,3.61,0.53
2024-12-06 13:22:59.643,85.95,613.0,0.36,0.9,-0.01,3.15,3.98,-0.51
2024-12-06 13:22:59.653,88.65,611.0,0.37,0.91,-0.01,3.15,4.34,-1.48
2024-12-06 13:22:59.659,87.97,606.0,0.37,0.91,-0.01,2.97,4.34,-2.03
2024-12-06 13:22:59.692,90.45,592.0,0.37,0.92,-0.01,3.82,3.85,-3.01
2024-12-06 13:22:59.697,83.03,607.0,0.37,0.92,-0.01,3.64,3.37,-3.13
2024-12-06 13:22:59.704,86.17,603.0,0.37,0.93,-0.01,3.64,3.37,-3.13
2024-12-06 13:22:59.718,83.47,609.0,0.37,0.94,-0.01,3.09,2.02,-2.89
2024-12-06 13:22:59.721,85.05,595.0,0.36,0.94,-0.01,2.6,1.17,-2.58
2024-12-06 13:22:59.736,81.0,594.0,0.36,0.92,-0.01,2.48,0.92,-2.76
2024-12-06 13:22:59.743,81.67,609.0,0.37,0.91,-0.0,2.54,0.37,-3.07
2024-12-06 13:22:59.749,86.17,596.0,0.37,0.91,-0.0,2.23,0.07,-2.95
2024-12-06 13:22:59.752,86.17,588.0,0.37,0.93,-0.0,2.23,0.07,-2.52
2024-12-06 13:22:59.760,84.6,601.0,0.37,0.94,-0.01,1.93,0.31,-2.52
2024-12-06 13:22:59.769,82.57,586.0,0.37,0.93,0.0,1.99,0.56,-2.03
2024-12-06 13:22:59.779,85.28,596.0,0.36,0.91,0.01,2.48,0.37,-2.09
2024-12-06 13:22:59.784,83.92,600.0,0.37,0.91,-0.0,2.54,0.74,-2.34
2024-12-06 13:22:59.791,79.65,597.0,0.37,0.91,-0.0,2.17,0.86,-2.46
2024-12-06 13:22:59.804,81.45,578.0,0.37,0.92,-0.0,2.17,0.86,-2.46
2024-12-06 13:22:59.812,78.75,591.0,0.36,0.91,-0.01,1.99,0.37,-2.76
2024-12-06 13:22:59.815,76.72,597.0,0.35,0.91,-0.0,2.17,-0.66,-3.31
2024-12-06 13:22:59.823,76.95,574.0,0.36,0.91,0.0,2.11,-2.31,-3.8
2024-12-06 13:22:59.831,82.35,575.0,0.37,0.91,-0.01,1.87,-2.56,-4.29
2024-12-06 13:22:59.840,81.45,578.0,0.37,0.91,-0.01,1.81,-2.37,-4.78
2024-12-06 13:22:59.850,74.7,563.0,0.37,0.9,-0.01,1.87,-2.49,-5.02
2024-12-06 13:22:59.855,78.97,562.0,0.38,0.91,-0.01,1.87,-2.49,-5.02
2024-12-06 13:22:59.956,69.75,549.0,0.32,0.92,-0.01,2.48,0.74,-4.11
2024-12-06 13:22:59.962,68.4,564.0,0.33,0.91,-0.02,2.17,1.84,-3.8
2024-12-06 13:22:59.968,68.17,549.0,0.34,0.93,-0.03,2.17,1.84,-3.8
2024-12-06 13:22:59.976,72.9,556.0,0.34,0.95,-0.02,1.56,1.78,-3.07
2024-12-06 13:22:59.983,69.75,551.0,0.33,0.92,-0.04,2.23,3.73,-3.07
2024-12-06 13:22:59.992,70.42,554.0,0.33,0.94,-0.02,2.48,5.56,-3.44
2024-12-06 13:22:59.999,70.65,549.0,0.33,0.94,-0.02,1.81,3.49,-2.21
2024-12-06 13:23:00.7,69.97,549.0,0.35,0.98,0.01,1.62,1.72,-1.36
2024-12-06 13:23:00.14,66.6,560.0,0.33,0.97,-0.0,1.62,1.72,-1.36
2024-12-06 13:23:00.22,66.82,549.0,0.32,0.95,-0.02,2.17,0.92,-1.18
2024-12-06 13:23:00.33,61.2,542.0,0.34,0.95,-0.04,1.69,0.86,-1.05
2024-12-06 13:23:00.39,69.3,542.0,0.33,0.95,-0.04,0.83,1.23,-0.63
2024-12-06 13:23:00.52,64.12,557.0,0.33,0.95,-0.04,0.89,1.05,-0.69
2024-12-06 13:23:00.58,64.57,538.0,0.32,0.92,-0.02,0.89,1.17,-0.81
2024-12-06 13:23:00.64,62.1,544.0,0.33,0.93,-0.01,1.08,1.17,-0.81
2024-12-06 13:23:00.74,66.38,544.0,0.34,0.94,-0.02,1.01,2.51,-0.02
2024-12-06 13:23:00.80,62.77,554.0,0.32,0.94,-0.01,1.38,2.45,0.53
2024-12-06 13:23:00.86,58.27,547.0,0.32,0.93,-0.02,1.81,1.23,0.47
2024-12-06 13:23:00.93,64.12,540.0,0.32,0.93,-0.02,1.75,2.45,0.35
2024-12-06 13:23:00.101,61.2,539.0,0.34,0.94,-0.03,1.75,2.69,0.84
2024-12-06 13:23:00.109,60.07,556.0,0.34,0.95,-0.02,1.08,2.69,0.84
2024-12-06 13:23:00.152,60.52,536.0,0.32,0.94,-0.01,-0.27,0.07,0.65
2024-12-06 13:23:00.156,56.7,538.0,0.3,0.91,-0.01,0.46,-0.91,0.23
2024-12-06 13:23:00.166,57.6,534.0,0.33,0.91,-0.02,0.77,0.62,-0.51
2024-12-06 13:23:00.180,54.9,537.0,0.33,0.91,-0.02,0.22,0.99,-0.2
2024-12-06 13:23:00.188,56.47,548.0,0.32,0.93,-0.02,0.16,-0.05,0.1
2024-12-06 13:23:00.194,57.6,550.0,0.31,0.92,-0.02,0.77,-1.15,-0.2
2024-12-06 13:23:00.205,57.38,540.0,0.32,0.93,-0.03,0.71,-1.15,-0.69
2024-12-06 13:23:00.209,55.12,536.0,0.32,0.94,-0.03,0.28,-0.36,-1.05
2024-12-06 13:23:00.217,54.0,537.0,0.32,0.94,-0.03,0.16,0.07,-1.36
2024-12-06 13:23:00.225,51.3,524.0,0.3,0.93,-0.02,0.46,-0.05,-1.85
2024-12-06 13:23:00.233,52.42,524.0,0.3,0.93,-0.01,0.46,-0.05,-1.85
2024-12-06 13:23:00.241,53.77,525.0,0.3,0.93,-0.01,0.77,0.44,-2.4
2024-12-06 13:23:00.251,52.42,519.0,0.31,0.94,-0.02,1.14,1.66,-2.7
2024-12-06 13:23:00.262,54.0,512.0,0.31,0.94,-0.02,1.32,2.57,-2.83
2024-12-06 13:23:00.279,51.07,514.0,0.3,0.94,-0.02,1.44,3.0,-3.13
2024-12-06 13:23:00.283,49.5,531.0,0.29,0.94,-0.02,1.5,2.76,-3.56
2024-12-06 13:23:00.287,51.97,517.0,0.3,0.95,-0.02,1.38,3.18,-3.98
2024-12-06 13:23:00.305,53.77,533.0,0.3,0.95,-0.03,1.32,3.85,-3.92
2024-12-06 13:23:00.309,47.02,518.0,0.3,0.95,-0.02,1.32,3.79,-3.44
2024-12-06 13:23:00.312,49.72,529.0,0.3,0.95,-0.02,1.32,2.57,-2.83
2024-12-06 13:23:00.318,47.7,531.0,0.29,0.95,-0.02,1.44,2.51,-2.52
2024-12-06 13:23:00.330,42.97,525.0,0.28,0.94,-0.03,1.44,2.51,-2.52
2024-12-06 13:23:00.336,45.9,516.0,0.29,0.95,-0.03,1.38,3.37,-2.21
2024-12-06 13:23:00.370,44.55,515.0,0.27,0.95,-0.01,1.44,2.69,-0.81
2024-12-06 13:23:00.375,46.12,507.0,0.28,0.95,-0.02,1.38,3.3,-0.81
2024-12-06 13:23:00.379,47.25,513.0,0.29,0.96,-0.02,1.26,4.04,-0.57
2024-12-06 13:23:00.388,41.62,527.0,0.29,0.95,-0.01,1.01,4.4,-0.14
2024-12-06 13:23:00.411,42.3,524.0,0.29,0.94,-0.02,1.2,3.98,0.1
2024-12-06 13:23:00.418,37.58,503.0,0.3,0.95,-0.02,0.95,4.59,0.35
2024-12-06 13:23:00.426,38.92,512.0,0.3,0.95,-0.02,0.71,4.53,0.9
2024-12-06 13:23:00.435,41.4,505.0,0.3,0.95,-0.02,0.77,3.37,1.14
2024-12-06 13:23:00.449,42.97,510.0,0.29,0.95,-0.02,0.77,3.24,0.96
2024-12-06 13:23:00.452,39.15,513.0,0.29,0.94,-0.02,0.77,3.24,0.96
2024-12-06 13:23:00.457,40.05,522.0,0.3,0.95,-0.03,0.46,4.28,1.02
2024-12-06 13:23:00.469,36.9,505.0,0.3,0.96,-0.01,0.04,4.65,1.63
2024-12-06 13:23:00.475,38.02,523.0,0.28,0.95,-0.01,0.1,3.55,1.94
2024-12-06 13:23:00.484,40.5,510.0,0.28,0.95,-0.01,0.22,3.73,1.94
2024-12-06 13:23:00.488,38.02,509.0,0.28,0.95,-0.02,0.1,4.59,2.24
2024-12-06 13:23:00.505,35.1,510.0,0.29,0.96,-0.02,0.1,4.59,2.24
2024-12-06 13:23:00.509,34.2,506.0,0.29,0.95,-0.01,0.16,4.65,2.79
2024-12-06 13:23:00.512,32.62,515.0,0.28,0.94,-0.01,0.22,4.59,2.85
2024-12-06 13:23:00.522,32.62,503.0,0.29,0.95,-0.02,-0.02,5.26,2.91
2024-12-06 13:23:00.529,37.35,518.0,0.29,0.95,-0.02,-0.27,6.11,3.52
2024-12-06 13:23:00.537,32.4,510.0,0.29,0.96,-0.01,-0.08,5.32,3.71
2024-12-06 13:23:00.544,31.72,518.0,0.28,0.95,-0.01,-0.08,5.32,3.71
2024-12-06 13:23:00.551,34.2,500.0,0.28,0.95,-0.02,-0.15,5.56,3.46
2024-12-06 13:23:00.560,33.52,520.0,0.31,0.96,-0.02,-0.27,6.97,3.89
2024-12-06 13:23:00.598,31.27,519.0,0.3,0.95,-0.01,-0.08,6.91,4.68
2024-12-06 13:23:00.605,33.52,506.0,0.3,0.95,-0.01,0.04,8.25,4.93
2024-12-06 13:23:00.616,32.17,506.0,0.28,0.95,-0.0,0.4,6.78,4.8
2024-12-06 13:23:00.618,26.55,508.0,0.28,0.95,-0.0,0.59,7.58,4.32
2024-12-06 13:23:00.620,28.8,542.0,0.29,0.95,-0.02,0.59,7.58,4.32
2024-12-06 13:23:00.634,29.92,524.0,0.32,0.96,-0.02,0.46,9.22,4.87
2024-12-06 13:23:00.640,26.77,501.0,0.29,0.95,-0.01,0.83,8.74,5.6
2024-12-06 13:23:00.646,23.4,505.0,0.28,0.95,-0.02,1.32,8.43,5.6
2024-12-06 13:23:00.652,20.48,509.0,0.31,0.96,-0.03,1.01,9.22,5.96
2024-12-06 13:23:00.659,22.72,513.0,0.31,0.96,-0.03,0.83,8.61,6.94
2024-12-06 13:23:00.668,25.42,507.0,0.29,0.95,-0.02,0.83,8.61,6.94
2024-12-06 13:23:00.679,23.62,505.0,0.27,0.94,-0.02,1.08,6.84,6.82
2024-12-06 13:23:00.685,24.97,492.0,0.3,0.95,-0.03,0.71,7.76,7.0
2024-12-06 13:23:00.694,22.27,506.0,0.28,0.95,-0.01,0.53,7.21,7.67
2024-12-06 13:23:00.703,22.05,499.0,0.27,0.94,-0.01,0.77,5.26,7.55
2024-12-06 13:23:00.706,18.0,512.0,0.27,0.94,-0.01,0.28,6.6,7.98
2024-12-06 13:23:00.715,21.38,497.0,0.3,0.95,-0.03,0.28,6.6,7.98
2024-12-06 13:23:00.722,17.32,516.0,0.29,0.95,-0.01,0.28,6.48,8.77
2024-12-06 13:23:00.730,18.67,498.0,0.28,0.95,-0.02,0.4,5.99,9.08
2024-12-06 13:23:00.740,14.85,500.0,0.31,0.97,-0.02,0.04,8.0,9.81
2024-12-06 13:23:00.748,14.4,509.0,0.31,0.97,-0.0,-0.02,7.39,10.85
2024-12-06 13:23:00.754,17.77,503.0,0.28,0.96,-0.0,0.1,5.99,10.72
2024-12-06 13:23:00.764,10.35,513.0,0.27,0.95,-0.01,0.1,5.99,10.72
2024-12-06 13:23:00.769,15.75,524.0,0.3,0.96,-0.01,-0.51,6.97,10.85
2024-12-06 13:23:00.777,17.55,500.0,0.28,0.96,0.0,-0.63,5.07,10.91
2024-12-06 13:23:00.785,11.92,502.0,0.28,0.94,-0.01,-0.82,4.22,10.18
2024-12-06 13:23:00.794,12.6,509.0,0.28,0.93,-0.01,-1.12,6.11,9.99
2024-12-06 13:23:00.827,11.92,495.0,0.3,0.94,0.01,-1.61,5.68,9.75
2024-12-06 13:23:00.832,5.62,498.0,0.28,0.93,0.01,-1.37,4.1,9.69
2024-12-06 13:23:00.839,9.68,500.0,0.28,0.93,0.01,-1.67,4.22,9.32
2024-12-06 13:23:00.846,8.1,508.0,0.29,0.94,-0.0,-1.67,4.22,9.32
2024-12-06 13:23:00.854,4.5,491.0,0.3,0.94,0.0,-1.98,5.2,9.26
2024-12-06 13:23:00.868,2.47,480.0,0.29,0.94,0.01,-2.04,4.04,9.02
2024-12-06 13:23:00.873,4.28,520.0,0.28,0.94,0.01,-2.22,3.61,8.1
2024-12-06 13:23:00.877,6.97,512.0,0.28,0.94,0.01,-2.34,4.83,7.8
2024-12-06 13:23:00.886,2.02,521.0,0.31,0.94,0.0,-2.16,3.98,7.67
2024-12-06 13:23:00.893,4.5,513.0,0.3,0.94,0.01,-2.16,3.98,7.67
2024-12-06 13:23:00.905,4.5,497.0,0.29,0.93,0.0,-2.16,3.43,6.76
2024-12-06 13:23:01.4,-1.12,493.0,0.29,0.94,-0.0,-1.43,1.41,-0.75
2024-12-06 13:23:01.45,-4.28,513.0,0.28,0.94,0.01,-0.33,1.47,-3.44
2024-12-06 13:23:01.49,-1.8,492.0,0.28,0.94,0.01,0.22,0.68,-3.98
2024-12-06 13:23:01.57,0.22,504.0,0.31,0.94,-0.01,0.22,0.5,-4.53
2024-12-06 13:23:01.65,0.45,504.0,0.28,0.94,-0.01,0.16,1.53,-4.35
2024-12-06 13:23:01.77,-0.22,495.0,0.3,0.95,-0.01,0.16,1.53,-4.35
2024-12-06 13:23:01.84,-1.8,512.0,0.31,0.95,-0.0,0.34,2.14,-3.37
2024-12-06 13:23:01.88,-2.02,522.0,0.3,0.94,0.01,0.59,1.96,-2.34
2024-12-06 13:23:01.97,-2.02,504.0,0.3,0.94,0.0,0.77,1.66,-1.67
2024-12-06 13:23:01.105,0.0,518.0,0.3,0.94,-0.0,0.83,1.41,-1.12
2024-12-06 13:23:01.114,-5.4,497.0,0.3,0.95,-0.0,0.65,1.47,-0.69
2024-12-06 13:23:01.119,-2.25,535.0,0.3,0.95,-0.01,0.65,1.47,-0.69
2024-12-06 13:23:01.159,-1.12,498.0,0.3,0.96,0.01,1.01,2.69,3.03
2024-12-06 13:23:01.166,0.45,508.0,0.3,0.96,0.0,1.26,3.3,3.64
2024-12-06 13:23:01.172,-2.47,508.0,0.3,0.95,0.0,1.38,4.28,4.26
2024-12-06 13:23:01.180,0.9,503.0,0.3,0.94,0.0,1.5,4.89,4.74
2024-12-06 13:23:01.188,-2.92,512.0,0.3,0.94,0.0,1.62,4.89,5.11
2024-12-06 13:23:01.200,-4.28,502.0,0.3,0.94,0.0,1.62,4.89,5.11
2024-12-06 13:23:01.212,-2.25,508.0,0.3,0.93,0.0,1.69,4.28,5.29
2024-12-06 13:23:01.217,-1.57,505.0,0.3,0.94,-0.0,1.56,3.98,5.29
2024-12-06 13:23:01.220,-2.25,506.0,0.3,0.94,-0.0,1.38,3.98,5.29
2024-12-06 13:23:01.225,-1.57,494.0,0.3,0.94,-0.0,1.38,3.55,5.35
2024-12-06 13:23:01.238,-4.05,490.0,0.31,0.95,0.0,1.38,3.37,5.48
2024-12-06 13:23:01.243,-2.47,519.0,0.31,0.96,0.01,1.5,3.37,5.48
2024-12-06 13:23:01.278,-4.05,500.0,0.3,0.94,0.0,1.99,3.61,5.35
2024-12-06 13:23:01.280,-2.92,510.0,0.29,0.94,0.0,2.05,3.55,5.17
2024-12-06 13:23:01.285,-2.25,500.0,0.29,0.94,-0.0,2.05,3.73,4.8
2024-12-06 13:23:01.307,-4.72,497.0,0.29,0.94,-0.01,1.93,4.22,4.38
2024-12-06 13:23:01.311,-2.02,501.0,0.3,0.95,-0.0,1.93,4.22,4.38
2024-12-06 13:23:01.317,0.22,513.0,0.29,0.95,0.0,1.93,4.1,4.32
2024-12-06 13:23:01.330,-4.5,493.0,0.29,0.95,0.0,1.99,3.91,4.32
2024-12-06 13:23:01.333,-4.05,491.0,0.29,0.95,0.0,2.05,3.73,4.32
2024-12-06 13:23:01.343,-0.22,499.0,0.29,0.95,0.0,2.17,3.3,4.44
2024-12-06 13:23:01.356,-2.02,496.0,0.28,0.93,-0.0,2.3,2.88,4.5
2024-12-06 13:23:01.382,-6.3,500.0,0.29,0.93,-0.01,1.75,2.69,3.95
2024-12-06 13:23:01.385,0.45,500.0,0.29,0.94,-0.01,1.75,2.69,3.95
2024-12-06 13:23:01.393,-1.57,512.0,0.29,0.94,-0.0,1.62,2.63,3.83
2024-12-06 13:23:01.409,-1.12,495.0,0.29,0.94,0.01,1.56,2.76,3.64
2024-12-06 13:23:01.421,-4.05,496.0,0.29,0.94,0.01,1.62,2.76,3.64
2024-12-06 13:23:01.428,-2.7,502.0,0.3,0.94,0.0,1.62,2.76,3.64
2024-12-06 13:23:01.433,-0.45,510.0,0.3,0.94,0.0,1.56,3.0,3.58
2024-12-06 13:23:01.440,-6.52,507.0,0.29,0.94,0.0,1.5,3.37,3.52
2024-12-06 13:23:01.451,0.22,492.0,0.29,0.94,0.0,1.38,3.61,3.34
2024-12-06 13:23:01.454,-3.82,501.0,0.29,0.94,0.0,1.26,3.67,3.1
2024-12-06 13:23:01.465,-1.8,499.0,0.29,0.94,0.0,1.26,3.67,3.1
2024-12-06 13:23:01.467,-2.47,493.0,0.29,0.93,0.0,1.08,3.67,2.85
2024-12-06 13:23:01.475,-3.82,524.0,0.29,0.94,0.0,0.89,3.61,2.73
2024-12-06 13:23:01.485,-5.17,499.0,0.29,0.94,0.0,0.65,3.43,2.67
2024-12-06 13:23:01.496,-5.4,506.0,0.29,0.94,-0.0,0.46,3.37,2.67
2024-12-06 13:23:01.498,-1.57,496.0,0.29,0.94,-0.0,0.34,3.18,2.79
2024-12-06 13:23:01.530,-4.28,503.0,0.29,0.94,0.01,-0.02,1.84,3.1
2024-12-06 13:23:01.547,-0.45,509.0,0.29,0.94,0.0,-0.21,2.02,3.03
2024-12-06 13:23:01.552,-1.8,507.0,0.29,0.94,-0.0,-0.21,2.02,3.03
2024-12-06 13:23:01.556,-1.35,511.0,0.29,0.94,0.0,-0.33,2.14,3.03
2024-12-06 13:23:01.559,-0.9,502.0,0.28,0.94,0.0,-0.39,2.02,2.97
2024-12-06 13:23:01.567,0.0,515.0,0.28,0.94,0.0,-0.39,2.08,2.85
2024-12-06 13:23:01.578,-1.35,502.0,0.28,0.94,0.0,-0.39,2.21,2.73
2024-12-06 13:23:01.586,-2.25,514.0,0.29,0.94,0.01,-0.39,2.14,2.67
2024-12-06 13:23:01.591,0.67,508.0,0.29,0.94,0.01,-0.51,2.14,2.67
2024-12-06 13:23:01.601,0.67,500.0,0.29,0.94,0.01,-0.51,2.21,2.73
2024-12-06 13:23:01.633,-3.38,500.0,0.29,0.94,0.0,-0.63,2.08,3.1
2024-12-06 13:23:01.637,-4.05,516.0,0.29,0.94,0.0,-0.63,2.02,3.16
2024-12-06 13:23:01.644,-2.02,519.0,0.28,0.95,0.0,-0.7,1.84,3.1
2024-12-06 13:23:01.652,-5.17,496.0,0.28,0.95,0.01,-0.7,1.78,3.1
2024-12-06 13:23:01.661,-5.17,522.0,0.28,0.95,0.01,-0.7,1.72,3.22
2024-12-06 13:23:01.669,-6.3,503.0,0.29,0.95,0.01,-0.7,1.78,3.28
2024-12-06 13:23:01.675,0.0,497.0,0.29,0.95,0.0,-0.7,1.78,3.28
2024-12-06 13:23:01.683,-1.8,496.0,0.29,0.95,0.01,-0.63,1.78,3.4
2024-12-06 13:23:01.694,-1.57,513.0,0.29,0.95,0.01,-0.57,1.72,3.52
2024-12-06 13:23:01.724,-4.28,502.0,0.28,0.95,0.01,-0.33,1.84,3.77
2024-12-06 13:23:01.730,-3.38,523.0,0.28,0.94,0.01,-0.27,1.6,3.83
2024-12-06 13:23:01.739,-0.67,507.0,0.28,0.94,0.01,-0.21,1.29,3.89
2024-12-06 13:23:01.744,-4.28,501.0,0.28,0.94,0.01,-0.27,0.86,3.95
2024-12-06 13:23:01.752,-2.47,531.0,0.28,0.94,0.01,-0.27,0.86,3.95
2024-12-06 13:23:01.763,0.67,501.0,0.29,0.94,0.01,-0.39,0.44,3.95
2024-12-06 13:23:01.768,-4.05,509.0,0.29,0.94,0.01,-0.45,0.07,3.89
2024-12-06 13:23:01.782,-2.25,501.0,0.29,0.94,0.01,-0.39,-0.48,3.89
2024-12-06 13:23:01.785,-1.8,500.0,0.29,0.94,0.02,-0.27,-0.78,3.95
2024-12-06 13:23:01.793,-1.8,541.0,0.29,0.94,0.02,-0.21,-0.85,3.89
2024-12-06 13:23:01.801,-0.22,496.0,0.29,0.95,0.01,-0.21,-0.85,3.89
2024-12-06 13:23:01.814,-0.9,495.0,0.29,0.95,0.01,-0.15,-0.66,3.77
2024-12-06 13:23:01.816,-5.62,524.0,0.28,0.95,0.01,-0.08,-0.24,3.52
2024-12-06 13:23:01.828,-4.05,496.0,0.28,0.95,0.01,0.1,0.01,3.34
2024-12-06 13:23:01.830,-2.47,512.0,0.28,0.95,0.01,0.22,-0.05,3.22
2024-12-06 13:23:01.839,-2.47,504.0,0.28,0.95,0.0,0.16,-0.05,3.28
2024-12-06 13:23:01.848,-2.47,519.0,0.29,0.95,-0.0,0.16,-0.05,3.28
2024-12-06 13:23:01.855,-3.38,518.0,0.29,0.95,-0.0,0.04,-0.17,3.34
2024-12-06 13:23:01.861,-5.17,504.0,0.28,0.95,0.0,0.04,-0.54,3.58
2024-12-06 13:23:01.874,-0.45,496.0,0.28,0.95,0.01,0.04,-0.85,3.77
2024-12-06 13:23:01.878,-4.28,498.0,0.28,0.95,0.01,-0.02,-0.72,3.95
2024-12-06 13:23:01.883,-2.47,498.0,0.28,0.95,0.01,-0.02,-0.72,3.95
2024-12-06 13:23:01.894,-3.6,522.0,0.28,0.95,0.01,-0.21,-0.05,4.13
2024-12-06 13:23:01.899,-4.5,513.0,0.28,0.95,0.01,-0.33,0.86,4.32
2024-12-06 13:23:01.912,-1.12,503.0,0.28,0.95,0.01,-0.45,1.6,4.56
2024-12-06 13:23:01.921,-3.82,513.0,0.28,0.95,0.01,-0.57,2.39,4.74
2024-12-06 13:23:01.949,-3.6,504.0,0.28,0.94,0.01,-0.7,3.98,5.23
2024-12-06 13:23:01.955,-1.35,568.0,0.28,0.94,0.01,-0.76,4.46,5.41
2024-12-06 13:23:02.63,0.0,507.0,0.3,0.94,0.02,-1.55,3.91,7.31
2024-12-06 13:23:02.66,-0.9,507.0,0.29,0.95,0.02,-1.49,3.3,7.37
2024-12-06 13:23:02.77,-2.02,507.0,0.29,0.95,0.01,-1.55,3.3,7.37
2024-12-06 13:23:02.80,0.0,502.0,0.3,0.95,0.02,-1.55,2.88,7.43
2024-12-06 13:23:02.86,-2.7,510.0,0.3,0.95,0.02,-1.55,2.51,7.61
2024-12-06 13:23:02.96,-13.05,510.0,0.3,0.95,0.02,-1.61,2.27,7.98
2024-12-06 13:23:02.102,-2.7,511.0,0.3,0.95,0.02,-1.55,2.08,8.34
2024-12-06 13:23:02.110,-0.9,507.0,0.3,0.95,0.02,-1.55,2.08,8.34
2024-12-06 13:23:02.121,-1.8,509.0,0.3,0.94,0.01,-1.49,2.51,8.65
2024-12-06 13:23:02.130,-4.5,497.0,0.29,0.94,0.02,-1.49,2.94,8.83
2024-12-06 13:23:02.137,-2.02,504.0,0.29,0.94,0.02,-1.43,3.06,9.02
2024-12-06 13:23:02.149,-6.97,520.0,0.29,0.94,0.02,-1.37,3.3,9.32
2024-12-06 13:23:02.173,-1.35,507.0,0.3,0.94,0.02,-1.37,3.24,9.63
2024-12-06 13:23:02.177,-1.35,511.0,0.31,0.95,0.02,-1.06,2.76,10.11
2024-12-06 13:23:02.182,-2.02,499.0,0.31,0.95,0.02,-0.88,2.69,10.3
2024-12-06 13:23:02.187,-4.05,509.0,0.31,0.94,0.02,-0.88,2.69,10.3
2024-12-06 13:23:02.198,-2.02,505.0,0.31,0.95,0.02,-0.76,2.63,10.42
2024-12-06 13:23:02.203,-4.72,499.0,0.31,0.95,0.01,-0.7,3.12,10.42
2024-12-06 13:23:02.209,-1.12,512.0,0.32,0.95,0.02,-0.63,3.91,10.3
2024-12-06 13:23:02.221,-5.4,514.0,0.32,0.95,0.02,-0.51,4.77,10.3
2024-12-06 13:23:02.226,-4.72,519.0,0.32,0.95,0.02,-0.39,5.68,10.36
2024-12-06 13:23:02.269,-4.5,504.0,0.3,0.94,0.03,0.22,6.11,9.87
2024-12-06 13:23:02.272,-1.35,509.0,0.3,0.94,0.02,0.22,6.11,9.87
2024-12-06 13:23:02.278,-4.05,528.0,0.3,0.94,0.02,0.28,6.36,9.57
2024-12-06 13:23:02.293,0.9,529.0,0.3,0.94,0.02,0.34,6.48,9.38
2024-12-06 13:23:02.296,0.9,522.0,0.3,0.94,0.02,0.4,6.54,9.2
2024-12-06 13:23:02.301,0.9,508.0,0.3,0.94,0.02,0.34,6.54,9.14
2024-12-06 13:23:02.309,0.45,499.0,0.3,0.94,0.03,0.4,6.66,9.2
2024-12-06 13:23:02.318,-2.7,508.0,0.3,0.94,0.03,0.4,6.66,9.2
2024-12-06 13:23:02.326,-3.82,502.0,0.3,0.93,0.03,0.4,6.6,9.2
2024-12-06 13:23:02.334,-2.47,515.0,0.3,0.93,0.03,0.53,6.66,9.2
2024-12-06 13:23:02.341,-3.38,510.0,0.3,0.93,0.03,0.59,6.66,9.14
2024-12-06 13:23:02.352,-1.57,523.0,0.3,0.93,0.03,0.59,6.72,9.02
2024-12-06 13:23:02.358,-1.57,513.0,0.3,0.93,0.03,0.59,7.03,8.89
2024-12-06 13:23:02.366,0.67,517.0,0.3,0.93,0.03,0.59,7.03,8.89
2024-12-06 13:23:02.399,-2.92,521.0,0.31,0.93,0.03,0.34,6.72,9.08
2024-12-06 13:23:02.402,-5.85,509.0,0.31,0.93,0.03,0.34,6.72,9.08
2024-12-06 13:23:02.410,0.0,510.0,0.31,0.93,0.03,0.16,7.21,9.02
2024-12-06 13:23:02.422,0.22,500.0,0.32,0.93,0.04,0.04,6.97,9.26
2024-12-06 13:23:02.427,-4.95,520.0,0.32,0.93,0.04,-0.08,6.36,9.57
2024-12-06 13:23:02.433,0.9,513.0,0.32,0.93,0.04,-0.33,5.87,9.81
2024-12-06 13:23:02.441,-2.02,529.0,0.33,0.94,0.04,-0.33,5.87,10.11
2024-12-06 13:23:02.452,-5.17,517.0,0.34,0.93,0.04,-0.7,5.44,10.11
2024-12-06 13:23:02.458,-2.47,517.0,0.34,0.93,0.04,-0.94,4.89,10.48
2024-12-06 13:23:02.467,-4.05,509.0,0.34,0.92,0.04,-1.18,4.28,10.79
2024-12-06 13:23:02.472,-1.8,516.0,0.34,0.92,0.04,-1.43,3.73,11.03
2024-12-06 13:23:02.481,-1.8,503.0,0.34,0.92,0.04,-1.49,2.94,11.21
2024-12-06 13:23:02.489,-6.75,507.0,0.35,0.93,0.04,-1.49,2.94,11.21
2024-12-06 13:23:02.498,-2.02,505.0,0.35,0.93,0.04,-1.43,2.02,11.58
2024-12-06 13:23:02.510,-6.97,511.0,0.36,0.93,0.04,-1.43,1.11,11.95
2024-12-06 13:23:02.513,-0.67,509.0,0.36,0.94,0.04,-1.61,0.74,12.25
2024-12-06 13:23:02.519,1.12,515.0,0.36,0.94,0.04,-1.92,1.23,12.37
2024-12-06 13:23:02.528,1.35,504.0,0.35,0.94,0.04,-2.22,2.02,12.74
2024-12-06 13:23:02.537,-5.85,521.0,0.36,0.94,0.04,-2.22,2.02,12.74
2024-12-06 13:23:02.543,-3.6,515.0,0.36,0.93,0.05,-2.4,2.45,13.29
2024-12-06 13:23:02.550,-0.67,507.0,0.36,0.93,0.05,-2.53,2.57,13.9
2024-12-06 13:23:02.559,-5.4,517.0,0.35,0.93,0.05,-2.71,3.0,14.45
2024-12-06 13:23:02.566,-3.82,505.0,0.35,0.93,0.05,-2.83,3.12,14.88
2024-12-06 13:23:02.577,-3.38,500.0,0.35,0.93,0.05,-2.89,3.24,15.18
2024-12-06 13:23:02.586,-3.15,509.0,0.35,0.93,0.05,-2.89,3.24,15.18
2024-12-06 13:23:02.592,-1.57,508.0,0.35,0.93,0.04,-2.89,3.98,15.36
2024-12-06 13:23:02.598,-1.8,522.0,0.36,0.93,0.04,-2.95,4.95,15.55
2024-12-06 13:23:02.619,-4.28,504.0,0.36,0.93,0.04,-3.01,5.5,15.61
2024-12-06 13:23:02.628,-1.8,499.0,0.36,0.92,0.04,-3.14,6.48,15.24
2024-12-06 13:23:02.633,0.9,518.0,0.36,0.92,0.04,-3.14,6.48,15.24
2024-12-06 13:23:02.636,-0.9,545.0,0.34,0.91,0.05,-2.95,5.68,14.51
2024-12-06 13:23:02.671,-4.05,518.0,0.34,0.91,0.07,-2.34,-1.4,7.25
2024-12-06 13:23:02.674,0.45,507.0,0.34,0.9,0.07,-1.98,-3.96,4.32
2024-12-06 13:23:02.686,0.22,515.0,0.34,0.9,0.06,-1.67,-4.45,1.33
2024-12-06 13:23:02.697,0.67,523.0,0.35,0.9,0.05,-1.0,-4.81,-3.13
2024-12-06 13:23:02.705,0.45,512.0,0.33,0.9,0.06,-1.0,-4.81,-3.13
2024-12-06 13:23:02.717,4.5,531.0,0.33,0.9,0.05,-0.39,-6.52,-5.45
2024-12-06 13:23:02.733,4.05,516.0,0.32,0.91,0.06,0.1,-5.97,-8.14
2024-12-06 13:23:02.740,8.55,528.0,0.32,0.91,0.06,0.4,-6.89,-9.54
2024-12-06 13:23:02.744,8.77,521.0,0.32,0.9,0.05,0.4,-6.89,-10.39
2024-12-06 13:23:02.751,8.55,541.0,0.32,0.91,0.05,0.4,-6.28,-10.39
2024-12-06 13:23:02.761,5.85,510.0,0.32,0.91,0.06,0.77,-8.6,-11.19
2024-12-06 13:23:02.766,6.52,522.0,0.32,0.9,0.05,0.53,-8.29,-11.49
2024-12-06 13:23:02.775,10.57,513.0,0.33,0.9,0.05,0.59,-8.6,-11.98
2024-12-06 13:23:02.783,8.32,515.0,0.33,0.9,0.05,0.22,-7.32,-11.86
2024-12-06 13:23:02.791,8.32,522.0,0.33,0.91,0.05,0.46,-8.35,-11.92
2024-12-06 13:23:02.799,15.75,545.0,0.33,0.91,0.05,0.46,-8.35,-11.92
2024-12-06 13:23:02.905,31.27,560.0,0.37,0.97,0.04,0.16,-5.06,-5.33
2024-12-06 13:23:02.920,23.62,536.0,0.36,0.97,0.02,0.16,-5.06,-5.33
2024-12-06 13:23:02.924,32.62,541.0,0.35,0.97,0.02,0.34,-3.23,-3.92
2024-12-06 13:23:02.938,31.05,535.0,0.33,0.97,0.04,0.34,-3.29,-3.13
2024-12-06 13:23:02.941,31.72,543.0,0.32,0.98,0.05,-0.27,-3.71,-2.03
2024-12-06 13:23:02.945,29.25,545.0,0.32,0.98,0.05,0.22,-4.75,-1.3
2024-12-06 13:23:02.955,33.3,539.0,0.32,0.98,0.02,0.53,-1.94,-0.51
2024-12-06 13:23:02.970,36.67,549.0,0.33,0.97,0.04,0.04,-4.14,0.84
2024-12-06 13:23:02.975,31.05,533.0,0.33,0.96,0.01,0.28,-3.96,2.18
2024-12-06 13:23:02.982,36.67,546.0,0.33,0.96,0.02,0.34,-2.37,3.46
2024-12-06 13:23:02.990,34.42,544.0,0.33,0.95,0.02,0.28,-2.98,4.5
2024-12-06 13:23:02.999,37.8,533.0,0.32,0.95,0.02,0.28,-2.98,4.5
2024-12-06 13:23:03.93,37.58,547.0,0.32,0.95,0.01,0.34,-1.76,5.66
2024-12-06 13:23:03.104,45.45,558.0,0.3,0.95,0.02,1.44,2.14,12.62
2024-12-06 13:23:03.111,45.9,547.0,0.29,0.93,0.02,1.44,2.14,12.62
2024-12-06 13:23:03.120,45.67,550.0,0.29,0.93,0.03,1.56,2.51,12.62
2024-12-06 13:23:03.135,43.88,553.0,0.3,0.94,0.02,1.62,2.39,12.74
2024-12-06 13:23:03.139,45.45,549.0,0.3,0.94,0.02,1.62,3.24,12.8
2024-12-06 13:23:03.146,42.75,554.0,0.3,0.93,0.03,1.62,2.21,12.98
2024-12-06 13:23:03.155,48.15,568.0,0.3,0.93,0.03,1.81,2.27,12.62
2024-12-06 13:23:03.158,47.02,555.0,0.3,0.92,0.02,1.81,2.27,12.62
2024-12-06 13:23:03.175,46.12,546.0,0.31,0.93,0.02,1.5,3.43,12.25
2024-12-06 13:23:03.177,47.25,547.0,0.31,0.93,0.04,1.26,3.55,12.37
2024-12-06 13:23:03.189,45.45,556.0,0.3,0.92,0.04,1.2,2.45,12.43
2024-12-06 13:23:03.194,50.85,561.0,0.3,0.93,0.03,1.62,3.0,12.07
2024-12-06 13:23:03.198,54.0,556.0,0.3,0.93,0.03,1.56,4.59,11.82
2024-12-06 13:23:03.206,51.75,571.0,0.31,0.94,0.02,1.56,4.59,11.82
2024-12-06 13:23:03.213,50.17,559.0,0.31,0.94,0.03,1.69,4.77,11.88
2024-12-06 13:23:03.222,52.88,563.0,0.31,0.94,0.03,1.93,4.34,11.88
2024-12-06 13:23:03.231,55.12,563.0,0.31,0.93,0.03,2.23,4.04,11.46
2024-12-06 13:23:03.241,53.77,573.0,0.32,0.93,0.02,2.23,4.59,10.97
2024-12-06 13:23:03.253,52.2,558.0,0.32,0.93,0.02,1.99,4.83,10.85
2024-12-06 13:23:03.256,52.65,564.0,0.33,0.93,0.02,1.99,4.83,10.85
2024-12-06 13:23:03.261,51.3,562.0,0.33,0.93,0.03,2.05,4.1,10.85
2024-12-06 13:23:03.269,54.67,573.0,0.33,0.92,0.03,2.17,3.73,10.54
2024-12-06 13:23:03.299,50.17,584.0,0.35,0.92,0.03,1.99,5.38,10.6
2024-12-06 13:23:03.301,60.3,575.0,0.34,0.92,0.04,1.99,5.38,10.6
2024-12-06 13:23:03.311,58.27,569.0,0.33,0.92,0.04,2.3,4.53,10.6
2024-12-06 13:23:03.317,58.95,577.0,0.34,0.93,0.03,2.3,5.87,10.3
2024-12-06 13:23:03.323,59.85,578.0,0.35,0.94,0.03,1.93,7.03,10.42
2024-12-06 13:23:03.331,59.85,567.0,0.35,0.94,0.03,2.17,6.84,10.54
2024-12-06 13:23:03.341,63.22,569.0,0.34,0.93,0.04,2.66,6.66,10.36
2024-12-06 13:23:03.350,57.82,570.0,0.35,0.92,0.04,2.66,6.66,10.36
2024-12-06 13:23:03.358,63.0,566.0,0.36,0.93,0.03,2.42,6.54,10.3
2024-12-06 13:23:03.364,64.35,565.0,0.37,0.93,0.03,1.99,5.99,10.54
2024-12-06 13:23:03.374,63.0,566.0,0.36,0.91,0.04,2.05,5.44,10.3
2024-12-06 13:23:03.380,61.88,564.0,0.36,0.91,0.04,1.75,5.75,9.99
2024-12-06 13:23:03.389,63.22,570.0,0.38,0.92,0.04,1.75,5.32,10.36
2024-12-06 13:23:03.394,60.52,572.0,0.39,0.93,0.05,0.95,5.32,10.36
2024-12-06 13:23:03.403,62.32,581.0,0.38,0.93,0.05,0.83,4.46,10.85
2024-12-06 13:23:03.410,65.25,590.0,0.38,0.92,0.05,0.89,3.85,10.91
2024-12-06 13:23:03.417,65.47,597.0,0.38,0.93,0.04,0.46,4.65,11.15
2024-12-06 13:23:03.425,66.38,583.0,0.38,0.93,0.04,0.04,4.95,11.58
2024-12-06 13:23:03.433,67.05,572.0,0.38,0.94,0.05,-0.21,4.1,12.13
2024-12-06 13:23:03.441,68.4,575.0,0.37,0.93,0.05,-0.21,4.1,12.13
2024-12-06 13:23:03.452,69.97,577.0,0.36,0.94,0.05,-0.51,3.18,12.49
2024-12-06 13:23:03.457,63.67,579.0,0.36,0.94,0.04,-1.18,3.73,12.92
2024-12-06 13:23:03.468,70.2,601.0,0.36,0.94,0.04,-1.61,3.55,13.59
2024-12-06 13:23:03.475,69.97,600.0,0.36,0.94,0.04,-1.73,2.88,13.9
2024-12-06 13:23:03.480,73.57,595.0,0.36,0.92,0.04,-1.85,3.0,13.78
2024-12-06 13:23:03.488,69.97,605.0,0.36,0.91,0.04,-1.85,3.0,13.78
2024-12-06 13:23:03.501,70.88,605.0,0.37,0.91,0.04,-2.16,3.43,13.59
2024-12-06 13:23:03.510,69.07,563.0,0.38,0.91,0.04,-2.16,3.73,13.41
2024-12-06 13:23:03.516,71.78,588.0,0.38,0.91,0.05,-1.92,2.76,13.41
2024-12-06 13:23:03.520,70.42,598.0,0.38,0.91,0.05,-1.61,1.72,13.47
2024-12-06 13:23:03.531,75.15,588.0,0.39,0.91,0.05,-1.73,1.78,13.47
2024-12-06 13:23:03.536,76.05,590.0,0.39,0.92,0.04,-1.73,1.78,13.47
2024-12-06 13:23:03.544,74.25,584.0,0.39,0.93,0.04,-2.16,0.99,13.65
2024-12-06 13:23:03.553,76.05,593.0,0.37,0.92,0.04,-2.28,0.13,13.72
2024-12-06 13:23:03.559,74.25,609.0,0.37,0.91,0.04,-2.22,0.13,13.29
2024-12-06 13:23:03.595,74.7,590.0,0.37,0.92,0.04,-2.53,0.37,13.04
2024-12-06 13:23:03.603,75.82,600.0,0.37,0.89,0.05,-1.92,0.19,13.47
2024-12-06 13:23:03.605,78.75,597.0,0.38,0.9,0.05,-2.04,0.56,13.11
2024-12-06 13:23:03.624,76.28,581.0,0.38,0.9,0.05,-2.59,1.17,12.86
2024-12-06 13:23:03.631,79.2,617.0,0.39,0.91,0.05,-2.71,1.05,12.8
2024-12-06 13:23:03.636,77.17,605.0,0.39,0.91,0.05,-2.65,0.07,12.68
2024-12-06 13:23:03.644,77.62,617.0,0.39,0.91,0.04,-2.71,-0.3,12.43
2024-12-06 13:23:03.652,76.72,621.0,0.39,0.92,0.04,-3.14,-0.24,12.37
2024-12-06 13:23:03.661,77.85,598.0,0.4,0.92,0.04,-3.5,-0.72,12.43
2024-12-06 13:23:03.669,81.67,602.0,0.39,0.92,0.04,-3.5,-0.72,12.13
2024-12-06 13:23:03.678,81.9,628.0,0.39,0.91,0.04,-3.38,-0.85,12.13
2024-12-06 13:23:03.684,79.42,609.0,0.39,0.92,0.05,-3.32,-0.78,11.58
2024-12-06 13:23:03.694,77.85,614.0,0.39,0.93,0.05,-3.56,-1.03,11.4
2024-12-06 13:23:03.702,85.05,626.0,0.38,0.93,0.05,-3.69,-1.03,11.4
2024-12-06 13:23:03.708,81.45,625.0,0.38,0.93,0.05,-3.2,-0.91,11.15
2024-12-06 13:23:03.720,85.72,615.0,0.38,0.91,0.05,-2.71,-0.6,10.66
2024-12-06 13:23:03.723,85.95,630.0,0.39,0.9,0.05,-2.71,-0.6,10.66
2024-12-06 13:23:03.762,81.45,626.0,0.39,0.91,0.04,-2.53,-2.74,9.69
2024-12-06 13:23:03.769,87.07,617.0,0.39,0.9,0.04,-2.53,-2.74,9.69
2024-12-06 13:23:03.776,90.0,625.0,0.39,0.91,0.04,-2.47,-3.17,9.32
2024-12-06 13:23:03.778,84.15,636.0,0.39,0.91,0.04,-2.59,-3.65,9.26
2024-12-06 13:23:03.803,87.75,614.0,0.39,0.9,0.04,-2.47,-3.84,9.14
2024-12-06 13:23:03.810,87.3,621.0,0.39,0.88,0.05,-1.61,-3.23,8.04
2024-12-06 13:23:03.815,90.45,626.0,0.4,0.89,0.05,-1.37,-3.71,7.43
2024-12-06 13:23:03.824,87.75,645.0,0.4,0.89,0.05,-1.31,-4.08,6.88
2024-12-06 13:23:03.836,87.52,632.0,0.4,0.88,0.04,-1.12,-3.47,6.09
2024-12-06 13:23:03.846,92.02,633.0,0.4,0.88,0.04,-0.57,-2.62,4.99
2024-12-06 13:23:03.849,88.65,625.0,0.4,0.87,0.04,-0.57,-2.62,4.99
2024-12-06 13:23:03.854,93.82,629.0,0.41,0.87,0.05,-0.02,-2.37,3.95
2024-12-06 13:23:03.862,94.05,643.0,0.42,0.88,0.05,0.28,-2.92,3.4
2024-12-06 13:23:03.870,92.02,628.0,0.42,0.88,0.05,0.46,-3.17,2.97
2024-12-06 13:23:03.881,95.4,657.0,0.42,0.88,0.05,0.71,-3.1,2.67
2024-12-06 13:23:03.890,95.17,642.0,0.41,0.88,0.04,0.71,-2.68,2.36
2024-12-06 13:23:03.897,96.75,645.0,0.41,0.87,0.04,0.71,-2.68,2.36
2024-12-06 13:23:03.904,94.95,648.0,0.4,0.87,0.04,0.77,-2.01,2.06
2024-12-06 13:23:03.911,93.82,625.0,0.4,0.88,0.05,0.59,-1.33,2.0
2024-12-06 13:23:03.917,89.32,636.0,0.4,0.9,0.05,0.46,-1.33,2.36
2024-12-06 13:23:03.930,92.02,637.0,0.4,0.9,0.05,0.4,-0.97,2.97
2024-12-06 13:23:03.941,92.47,655.0,0.4,0.9,0.04,0.34,-0.6,3.77
2024-12-06 13:23:03.943,95.4,631.0,0.38,0.92,0.04,0.34,-0.6,3.77
2024-12-06 13:23:03.949,97.88,667.0,0.37,0.91,0.05,0.22,-0.85,4.99
2024-12-06 13:23:03.984,98.1,644.0,0.42,0.89,0.05,-0.02,-1.27,6.03
2024-12-06 13:23:03.987,96.97,658.0,0.42,0.9,0.05,0.16,-2.01,6.15
2024-12-06 13:23:03.995,95.4,643.0,0.43,0.91,0.05,0.04,-1.4,6.88
2024-12-06 13:23:04.2,96.3,664.0,0.43,0.9,0.05,0.1,-0.85,7.25
2024-12-06 13:23:04.10,94.95,646.0,0.43,0.9,0.05,-0.08,-0.72,7.37
2024-12-06 13:23:04.18,98.77,647.0,0.44,0.89,0.05,-0.15,-0.78,7.25
2024-12-06 13:23:04.127,97.65,670.0,0.42,0.92,0.04,-1.55,-3.59,7.98
2024-12-06 13:23:04.133,101.47,658.0,0.41,0.92,0.04,-1.55,-3.53,8.71
2024-12-06 13:23:04.141,97.65,653.0,0.4,0.92,0.04,-1.55,-3.53,8.71
2024-12-06 13:23:04.147,101.02,669.0,0.4,0.91,0.04,-1.43,-2.98,9.44
2024-12-06 13:23:04.155,97.88,674.0,0.4,0.91,0.05,-1.55,-2.49,10.18
2024-12-06 13:23:04.170,96.75,652.0,0.4,0.92,0.05,-1.55,-2.31,11.21
2024-12-06 13:23:04.202,103.27,681.0,0.41,0.92,0.05,-1.37,-2.43,13.84
2024-12-06 13:23:04.205,96.3,667.0,0.44,0.91,0.04,-1.0,-3.41,15.12
2024-12-06 13:23:04.211,101.02,655.0,0.44,0.91,0.04,-1.0,-3.65,15.18
2024-12-06 13:23:04.216,102.15,671.0,0.45,0.9,0.04,-1.18,-4.26,14.63
2024-12-06 13:23:04.226,105.07,674.0,0.47,0.89,0.05,-1.18,-4.26,14.63
2024-12-06 13:23:04.233,102.15,671.0,0.47,0.87,0.06,-1.37,-4.87,13.41
2024-12-06 13:23:04.240,99.67,665.0,0.47,0.86,0.06,-1.67,-5.24,11.76
2024-12-06 13:23:04.251,104.85,661.0,0.47,0.85,0.05,-1.73,-5.18,10.24
2024-12-06 13:23:04.256,103.95,690.0,0.47,0.85,0.06,-1.73,-4.94,8.95
2024-12-06 13:23:04.264,103.27,660.0,0.47,0.85,0.06,-1.55,-4.75,8.34
2024-12-06 13:23:04.272,105.97,661.0,0.46,0.86,0.06,-1.55,-4.75,8.34
2024-12-06 13:23:04.280,100.35,667.0,0.44,0.86,0.05,-1.31,-4.45,8.1
2024-12-06 13:23:04.295,105.52,692.0,0.43,0.85,0.06,-1.06,-3.9,7.86
2024-12-06 13:23:04.298,106.2,666.0,0.42,0.85,0.06,-0.82,-3.35,7.37
2024-12-06 13:23:04.303,101.02,668.0,0.42,0.85,0.06,-0.7,-2.25,7.18
2024-12-06 13:23:04.311,102.38,669.0,0.42,0.86,0.06,-0.76,-1.46,7.18
2024-12-06 13:23:04.319,105.75,685.0,0.43,0.87,0.05,-0.76,-1.46,7.18
2024-12-06 13:23:04.326,104.62,677.0,0.44,0.87,0.04,-0.94,-1.09,7.12
2024-12-06 13:23:04.334,101.7,675.0,0.44,0.88,0.04,-1.18,-1.27,7.0
2024-12-06 13:23:04.342,102.15,670.0,0.44,0.88,0.04,-1.61,-1.82,6.88
2024-12-06 13:23:04.351,104.62,680.0,0.43,0.87,0.04,-1.49,-1.46,6.33
2024-12-06 13:23:04.358,99.9,735.0,0.43,0.87,0.04,-1.18,-1.46,5.84
2024-12-06 13:23:04.366,107.1,683.0,0.42,0.88,0.05,-1.18,-1.46,5.84
2024-12-06 13:23:04.378,101.02,689.0,0.42,0.89,0.05,-1.24,-1.21,5.78
2024-12-06 13:23:04.386,103.5,688.0,0.41,0.87,0.05,-0.82,-0.78,5.23
2024-12-06 13:23:04.391,106.42,684.0,0.42,0.86,0.05,-0.33,-0.17,4.26
2024-12-06 13:23:04.399,104.85,662.0,0.44,0.86,0.05,-0.21,0.86,3.4
2024-12-06 13:23:04.429,105.75,667.0,0.44,0.86,0.05,-0.33,1.23,2.85
2024-12-06 13:23:04.434,103.27,692.0,0.43,0.89,0.04,-0.02,1.78,1.87
2024-12-06 13:23:04.444,102.82,684.0,0.43,0.89,0.05,0.4,1.6,1.45
2024-12-06 13:23:04.449,101.92,680.0,0.43,0.89,0.05,0.77,1.41,1.02
2024-12-06 13:23:04.456,105.52,674.0,0.43,0.89,0.05,0.77,1.41,1.02
2024-12-06 13:23:04.463,104.85,679.0,0.43,0.89,0.05,1.01,1.23,0.59
2024-12-06 13:23:04.468,102.38,689.0,0.42,0.9,0.05,1.01,1.23,0.29
2024-12-06 13:23:04.476,105.07,672.0,0.43,0.9,0.05,1.01,1.35,0.17
2024-12-06 13:23:04.482,106.88,697.0,0.43,0.9,0.05,0.89,1.47,0.17
2024-12-06 13:23:04.493,105.3,677.0,0.43,0.9,0.05,0.77,1.53,0.41
2024-12-06 13:23:04.498,104.17,678.0,0.44,0.89,0.05,0.77,1.53,0.41
2024-12-06 13:23:04.506,105.97,682.0,0.45,0.89,0.05,0.65,1.35,0.9
2024-12-06 13:23:04.513,106.88,678.0,0.45,0.89,0.05,0.59,0.92,1.26
2024-12-06 13:23:04.523,105.97,678.0,0.46,0.89,0.05,0.59,0.37,1.51
2024-12-06 13:23:04.529,103.5,696.0,0.46,0.89,0.05,0.59,-0.11,1.63
2024-12-06 13:23:04.541,104.17,683.0,0.46,0.89,0.05,0.53,-0.42,1.63
2024-12-06 13:23:04.547,100.8,684.0,0.46,0.89,0.05,0.53,-0.42,1.63
2024-12-06 13:23:04.557,107.77,675.0,0.46,0.89,0.05,0.53,-0.48,1.81
2024-12-06 13:23:04.566,102.15,670.0,0.46,0.88,0.05,0.46,-0.24,2.18
2024-12-06 13:23:04.568,103.5,677.0,0.46,0.88,0.05,0.46,-0.17,2.67
2024-12-06 13:23:04.576,101.92,672.0,0.46,0.88,0.04,0.46,-0.11,3.28
2024-12-06 13:23:04.586,105.3,717.0,0.47,0.89,0.04,0.28,-0.17,3.95
2024-12-06 13:23:04.596,99.9,680.0,0.47,0.89,0.04,0.28,-0.17,3.95
2024-12-06 13:23:04.600,105.52,677.0,0.46,0.9,0.04,0.04,-0.17,4.5
2024-12-06 13:23:04.629,105.07,674.0,0.45,0.9,0.04,0.04,-0.78,5.9
2024-12-06 13:23:04.634,102.38,674.0,0.45,0.9,0.04,0.04,-0.78,5.9
2024-12-06 13:23:04.642,103.95,688.0,0.45,0.9,0.04,0.16,-0.72,6.15
2024-12-06 13:23:04.648,106.65,678.0,0.45,0.89,0.04,0.28,-0.54,6.21
2024-12-06 13:23:04.655,105.07,672.0,0.44,0.89,0.05,0.46,-0.54,6.15
2024-12-06 13:23:04.662,108.22,678.0,0.44,0.88,0.05,0.46,-0.66,6.03
2024-12-06 13:23:04.670,104.62,657.0,0.44,0.88,0.05,0.53,-0.85,5.9
2024-12-06 13:23:04.678,105.52,683.0,0.44,0.88,0.05,0.53,-0.97,5.66
2024-12-06 13:23:04.713,106.88,663.0,0.43,0.89,0.05,0.53,-0.97,5.66
2024-12-06 13:23:04.720,102.6,683.0,0.43,0.89,0.04,0.65,-0.6,5.11
2024-12-06 13:23:04.723,105.75,662.0,0.43,0.89,0.04,0.89,-0.24,5.11
2024-12-06 13:23:04.729,102.82,645.0,0.43,0.89,0.04,0.89,-0.24,5.11
2024-12-06 13:23:04.736,104.17,661.0,0.43,0.89,0.04,1.2,0.07,4.99
2024-12-06 13:23:04.743,107.32,658.0,0.43,0.89,0.04,1.32,0.25,4.87
2024-12-06 13:23:04.748,104.62,665.0,0.43,0.88,0.04,1.2,0.56,4.5
2024-12-06 13:23:04.756,104.85,671.0,0.43,0.88,0.05,1.01,0.62,4.19
2024-12-06 13:23:04.765,108.9,660.0,0.43,0.88,0.05,0.95,0.62,4.01
2024-12-06 13:23:04.779,101.7,649.0,0.43,0.88,0.04,0.95,0.62,4.01
2024-12-06 13:23:04.800,100.35,680.0,0.44,0.88,0.04,0.89,0.74,3.95
2024-12-06 13:23:04.803,101.47,712.0,0.44,0.88,0.04,0.89,0.8,4.07
2024-12-06 13:23:04.812,107.32,674.0,0.45,0.88,0.04,0.89,0.8,4.19
2024-12-06 13:23:04.821,106.65,651.0,0.45,0.88,0.04,0.89,0.74,4.19
2024-12-06 13:23:04.826,101.92,651.0,0.45,0.89,0.04,0.95,0.8,4.26
2024-12-06 13:23:04.833,106.65,661.0,0.45,0.89,0.04,1.01,0.86,4.32
2024-12-06 13:23:04.841,104.4,650.0,0.45,0.89,0.04,1.14,0.8,4.32
2024-12-06 13:23:04.850,104.17,660.0,0.45,0.89,0.04,1.26,0.74,4.44
2024-12-06 13:23:04.879,104.85,660.0,0.45,0.89,0.04,1.26,0.74,4.44
2024-12-06 13:23:04.883,102.6,670.0,0.45,0.88,0.04,1.62,0.19,4.93
2024-12-06 13:23:04.887,103.05,660.0,0.45,0.88,0.04,1.62,0.13,5.05
2024-12-06 13:23:04.900,103.95,669.0,0.45,0.88,0.04,1.62,0.13,5.11
2024-12-06 13:23:04.905,105.97,688.0,0.45,0.88,0.04,1.69,0.31,5.11
2024-12-06 13:23:04.914,102.38,668.0,0.45,0.88,0.04,1.75,0.44,5.17
2024-12-06 13:23:04.921,106.88,653.0,0.45,0.89,0.04,1.93,0.37,5.23
2024-12-06 13:23:04.927,107.55,668.0,0.45,0.89,0.04,1.93,0.56,5.17
2024-12-06 13:23:04.937,101.47,657.0,0.45,0.89,0.04,1.81,0.74,5.05
2024-12-06 13:23:04.943,106.65,667.0,0.44,0.88,0.04,1.81,0.74,4.87
2024-12-06 13:23:04.953,98.32,653.0,0.44,0.88,0.04,1.69,0.86,4.87
2024-12-06 13:23:04.966,104.4,669.0,0.44,0.88,0.04,1.5,0.68,4.62
2024-12-06 13:23:04.973,101.92,677.0,0.44,0.88,0.04,1.5,0.56,4.5
2024-12-06 13:23:05.170,101.92,652.0,0.43,0.89,0.03,2.17,1.47,3.1
2024-12-06 13:23:05.175,105.3,644.0,0.44,0.89,0.03,2.42,1.78,3.64
2024-12-06 13:23:05.184,104.85,639.0,0.45,0.88,0.03,2.54,1.9,3.71
2024-12-06 13:23:05.194,105.07,642.0,0.45,0.88,0.03,2.54,1.78,3.46
2024-12-06 13:23:05.202,104.4,645.0,0.45,0.88,0.03,2.48,1.41,3.03
2024-12-06 13:23:05.207,107.1,653.0,0.46,0.88,0.03,2.42,0.8,2.3
2024-12-06 13:23:05.215,102.15,641.0,0.47,0.88,0.03,2.42,0.8,2.3
2024-12-06 13:23:05.224,101.92,637.0,0.47,0.88,0.03,2.36,0.13,1.57
2024-12-06 13:23:05.231,103.95,655.0,0.47,0.88,0.03,2.3,-0.54,0.84
2024-12-06 13:23:05.239,102.38,644.0,0.45,0.89,0.03,2.17,-1.15,0.53
2024-12-06 13:23:05.247,99.22,629.0,0.45,0.89,0.04,2.11,-1.76,0.72
2024-12-06 13:23:05.257,101.25,627.0,0.44,0.89,0.04,2.05,-2.31,1.02
2024-12-06 13:23:05.268,101.25,639.0,0.44,0.89,0.04,2.05,-2.31,1.02
2024-12-06 13:23:05.272,101.25,641.0,0.43,0.88,0.04,1.99,-2.62,1.2
2024-12-06 13:23:05.279,105.07,647.0,0.43,0.88,0.04,1.99,-2.74,1.26
2024-12-06 13:23:05.286,107.32,630.0,0.43,0.88,0.04,1.93,-2.56,1.2
2024-12-06 13:23:05.301,106.2,629.0,0.43,0.88,0.04,1.87,-2.31,0.9
2024-12-06 13:23:05.333,105.52,628.0,0.43,0.9,0.04,1.2,-1.4,-0.26
2024-12-06 13:23:05.335,102.15,668.0,0.43,0.9,0.04,1.26,-1.4,0.41
2024-12-06 13:23:05.346,102.82,623.0,0.4,0.91,0.03,1.93,-1.27,2.3
2024-12-06 13:23:05.349,103.95,636.0,0.4,0.9,0.03,1.93,-1.27,2.3
2024-12-06 13:23:05.357,103.95,621.0,0.43,0.89,0.02,2.17,-1.52,2.55
2024-12-06 13:23:05.364,101.92,624.0,0.43,0.9,0.02,2.3,-1.46,2.61
2024-12-06 13:23:05.371,105.07,618.0,0.43,0.9,0.02,2.6,-1.4,2.3
2024-12-06 13:23:05.378,99.9,633.0,0.43,0.9,0.02,2.85,-1.52,1.75
2024-12-06 13:23:05.386,94.5,633.0,0.43,0.9,0.02,2.91,-1.76,1.08
2024-12-06 13:23:05.394,105.75,620.0,0.43,0.9,0.02,2.91,-1.76,1.08
2024-12-06 13:23:05.405,103.05,628.0,0.43,0.89,0.02,2.91,-1.82,0.41
2024-12-06 13:23:05.412,104.62,648.0,0.43,0.89,0.02,2.91,-1.7,-0.14
2024-12-06 13:23:05.421,104.4,642.0,0.43,0.89,0.02,2.97,-1.27,-0.44
2024-12-06 13:23:05.426,105.52,631.0,0.43,0.89,0.02,3.15,-0.66,-0.57
2024-12-06 13:23:05.436,103.5,627.0,0.42,0.89,0.02,3.39,-0.36,-0.51
2024-12-06 13:23:05.446,99.67,628.0,0.42,0.89,0.02,3.39,-0.36,-0.51
2024-12-06 13:23:05.461,102.38,642.0,0.43,0.89,0.02,3.58,-0.24,-0.44
2024-12-06 13:23:05.463,101.47,632.0,0.43,0.89,0.02,3.58,-0.11,-0.2
2024-12-06 13:23:05.466,106.2,610.0,0.43,0.89,0.02,3.52,-0.17,-0.2
2024-12-06 13:23:05.477,106.88,619.0,0.43,0.89,0.02,3.39,-0.42,-0.14
2024-12-06 13:23:05.484,99.9,611.0,0.43,0.89,0.02,3.15,-0.72,-0.14
2024-12-06 13:23:05.489,103.95,629.0,0.42,0.89,0.02,3.15,-0.72,-0.14
2024-12-06 13:23:05.498,103.72,633.0,0.42,0.89,0.02,3.03,-1.15,-0.26
2024-12-06 13:23:05.507,106.42,631.0,0.41,0.92,0.02,2.78,-2.07,-0.02
2024-12-06 13:23:05.513,99.45,620.0,0.4,0.94,0.02,2.05,-3.59,0.78
2024-12-06 13:23:05.522,98.77,630.0,0.38,0.94,0.02,1.56,-4.26,1.87
2024-12-06 13:23:05.528,105.3,609.0,0.38,0.94,0.02,1.5,-4.69,3.16
2024-12-06 13:23:05.537,103.72,610.0,0.38,0.93,0.02,1.5,-4.69,3.16
2024-12-06 13:23:05.570,103.72,627.0,0.39,0.91,0.01,-0.39,-5.73,10.85
2024-12-06 13:23:05.574,98.1,611.0,0.4,0.89,0.01,-0.39,-5.73,12.07
2024-12-06 13:23:05.582,101.47,615.0,0.41,0.89,0.01,-0.88,-5.36,12.07
2024-12-06 13:23:05.590,99.22,613.0,0.41,0.9,0.01,-1.61,-5.24,13.17
2024-12-06 13:23:05.598,100.57,626.0,0.41,0.89,0.01,-2.22,-5.79,13.72
2024-12-06 13:23:05.616,94.5,583.0,0.42,0.89,0.0,-2.34,-4.26,13.59
2024-12-06 13:23:05.625,94.95,609.0,0.42,0.89,-0.01,-2.22,-2.86,13.23
2024-12-06 13:23:05.630,93.82,615.0,0.43,0.88,0.01,-2.22,-2.86,13.23
2024-12-06 13:23:05.638,92.92,616.0,0.43,0.88,0.03,-1.73,-3.1,12.49
2024-12-06 13:23:05.660,93.38,603.0,0.44,0.88,0.02,-1.18,-2.74,11.64
2024-12-06 13:23:05.665,94.72,640.0,0.45,0.88,0.01,-0.45,-0.72,9.14
2024-12-06 13:23:05.669,92.02,578.0,0.45,0.87,0.01,0.28,0.37,7.18
2024-12-06 13:23:05.679,91.57,639.0,0.45,0.84,-0.01,0.28,0.37,7.18
2024-12-06 13:23:05.685,91.35,596.0,0.45,0.84,-0.0,0.83,3.3,5.05
2024-12-06 13:23:05.696,90.0,615.0,0.45,0.87,0.03,1.26,2.33,3.64
2024-12-06 13:23:05.701,89.1,599.0,0.44,0.87,0.04,1.32,0.01,2.79
2024-12-06 13:23:05.720,89.32,617.0,0.43,0.86,0.02,1.87,-2.19,2.18
2024-12-06 13:23:05.729,93.6,598.0,0.43,0.85,0.01,1.93,-2.43,1.26
2024-12-06 13:23:05.732,87.52,631.0,0.43,0.86,0.0,1.75,-2.31,0.23
2024-12-06 13:23:05.741,90.22,589.0,0.42,0.86,0.0,1.5,-1.7,-0.32
2024-12-06 13:23:05.750,89.77,600.0,0.42,0.86,0.01,1.69,-1.03,-0.63
2024-12-06 13:23:05.755,90.9,604.0,0.41,0.86,0.01,2.11,0.13,-0.99
2024-12-06 13:23:05.793,90.45,593.0,0.43,0.87,0.01,2.3,2.21,-2.7
2024-12-06 13:23:05.795,85.95,607.0,0.43,0.87,0.01,2.17,1.9,-3.25
2024-12-06 13:23:05.803,88.2,601.0,0.43,0.88,0.01,2.17,1.9,-3.25
2024-12-06 13:23:05.812,85.5,597.0,0.44,0.88,0.01,2.17,1.53,-3.8
2024-12-06 13:23:05.816,87.75,590.0,0.43,0.89,0.01,2.3,1.05,-4.29
2024-12-06 13:23:05.824,88.42,617.0,0.43,0.89,0.01,2.17,0.86,-4.9
2024-12-06 13:23:05.832,88.2,587.0,0.43,0.89,0.01,1.99,0.74,-5.33
2024-12-06 13:23:05.846,87.07,587.0,0.42,0.89,0.01,1.99,1.23,-5.82
2024-12-06 13:23:05.850,87.07,595.0,0.42,0.89,0.01,1.99,1.23,-5.82
2024-12-06 13:23:05.861,83.7,589.0,0.42,0.9,0.01,2.17,1.29,-6.12
2024-12-06 13:23:05.868,88.65,583.0,0.42,0.91,0.01,2.17,1.29,-6.18
2024-12-06 13:23:05.871,85.28,567.0,0.42,0.91,0.01,2.17,1.47,-6.06
2024-12-06 13:23:05.879,89.55,594.0,0.42,0.91,0.01,2.05,1.53,-5.75
2024-12-06 13:23:05.886,84.15,568.0,0.42,0.91,0.01,1.99,1.41,-5.21
2024-12-06 13:23:05.895,84.6,575.0,0.42,0.91,0.01,1.99,1.41,-5.21
2024-12-06 13:23:05.902,88.65,565.0,0.42,0.91,0.0,1.87,1.23,-4.53
2024-12-06 13:23:05.909,88.2,568.0,0.41,0.91,-0.0,1.5,1.05,-3.98
2024-12-06 13:23:05.918,84.15,584.0,0.41,0.91,0.0,1.2,0.56,-3.44
2024-12-06 13:23:05.925,83.25,585.0,0.41,0.91,0.0,1.08,-0.6,-2.89
2024-12-06 13:23:05.936,83.7,586.0,0.4,0.92,0.0,0.77,-0.85,-2.4
2024-12-06 13:23:05.941,80.78,591.0,0.39,0.92,-0.0,0.77,-0.85,-2.4
2024-12-06 13:23:05.953,84.38,575.0,0.39,0.92,-0.0,0.59,-0.72,-1.91
2024-12-06 13:23:05.958,84.38,577.0,0.4,0.92,0.0,0.4,-0.54,-1.24
2024-12-06 13:23:05.966,83.47,584.0,0.4,0.92,-0.0,0.22,-0.36,-0.32
2024-12-06 13:23:05.977,84.6,571.0,0.4,0.92,-0.0,0.1,0.25,0.35
2024-12-06 13:23:06.15,78.07,571.0,0.4,0.92,0.0,-0.02,0.01,1.02
2024-12-06 13:23:06.26,82.12,582.0,0.41,0.9,-0.0,-0.33,-0.72,0.96
2024-12-06 13:23:06.30,79.88,571.0,0.41,0.9,0.0,-0.39,-0.72,0.96
2024-12-06 13:23:06.34,81.0,587.0,0.41,0.9,0.0,-0.39,-0.78,0.9
2024-12-06 13:23:06.42,80.32,563.0,0.41,0.9,0.0,-0.21,-0.54,0.9
2024-12-06 13:23:06.52,78.07,586.0,0.41,0.9,0.01,0.1,-0.72,0.78
2024-12-06 13:23:06.63,77.85,587.0,0.41,0.9,0.01,0.53,-0.85,0.29
2024-12-06 13:23:06.66,75.38,574.0,0.4,0.89,-0.0,0.53,-0.85,-0.51
2024-12-06 13:23:06.73,81.67,577.0,0.39,0.89,-0.01,0.89,-0.17,-0.51
2024-12-06 13:23:06.83,81.67,576.0,0.4,0.89,-0.0,1.01,0.56,-1.3
2024-12-06 13:23:06.91,78.3,570.0,0.4,0.9,0.01,1.01,0.19,-1.6
2024-12-06 13:23:06.101,78.3,560.0,0.4,0.91,0.0,0.95,-0.48,-1.48
2024-12-06 13:23:06.123,76.5,566.0,0.4,0.91,0.0,1.01,-0.66,-1.36
2024-12-06 13:23:06.247,72.45,573.0,0.38,0.92,-0.0,1.32,1.11,-3.07
2024-12-06 13:23:06.255,73.12,567.0,0.38,0.92,-0.01,1.01,1.23,-2.83
2024-12-06 13:23:06.263,67.28,574.0,0.38,0.93,-0.01,1.01,1.23,-2.83
2024-12-06 13:23:06.270,70.2,574.0,0.37,0.92,-0.01,1.01,1.05,-2.58
2024-12-06 13:23:06.278,72.9,564.0,0.36,0.91,-0.0,1.32,1.29,-2.7
2024-12-06 13:23:06.291,71.1,562.0,0.37,0.91,0.0,1.32,1.53,-2.95
2024-12-06 13:23:06.296,65.03,567.0,0.37,0.91,0.0,1.01,2.08,-2.95
2024-12-06 13:23:06.303,69.3,576.0,0.37,0.92,0.0,1.08,2.88,-2.83
2024-12-06 13:23:06.317,68.62,566.0,0.37,0.91,-0.01,1.08,2.88,-2.83
2024-12-06 13:23:06.326,65.47,553.0,0.37,0.92,0.01,1.38,3.98,-2.95
2024-12-06 13:23:06.329,67.72,559.0,0.37,0.94,0.02,1.44,1.53,-2.52
2024-12-06 13:23:06.332,67.72,558.0,0.37,0.94,-0.01,0.95,1.05,-2.09
2024-12-06 13:23:06.341,60.3,577.0,0.37,0.94,-0.0,0.59,0.62,-1.73
2024-12-06 13:23:06.349,66.6,566.0,0.36,0.94,-0.01,0.59,0.62,-1.73
2024-12-06 13:23:06.357,68.85,564.0,0.37,0.93,-0.01,0.16,0.13,-1.42
2024-12-06 13:23:06.369,61.65,579.0,0.36,0.93,-0.0,-0.45,0.13,-0.99
2024-12-06 13:23:06.375,65.7,571.0,0.35,0.92,0.01,-0.63,-0.54,-0.69
2024-12-06 13:23:06.380,60.3,563.0,0.35,0.92,0.01,-0.7,-0.11,-0.57
2024-12-06 13:23:06.387,65.7,550.0,0.35,0.91,0.0,-0.76,0.74,-0.38
2024-12-06 13:23:06.395,64.35,558.0,0.36,0.91,0.0,-0.76,0.74,-0.38
2024-12-06 13:23:06.402,62.32,550.0,0.36,0.92,-0.0,-0.76,0.92,-0.08
2024-12-06 13:23:06.410,61.65,566.0,0.36,0.93,-0.01,-0.88,1.47,0.23
2024-12-06 13:23:06.431,63.22,548.0,0.36,0.94,-0.0,-0.94,1.29,0.47
2024-12-06 13:23:06.435,65.25,583.0,0.35,0.93,-0.0,-0.88,0.62,0.29
2024-12-06 13:23:06.476,61.2,565.0,0.37,0.92,0.0,-1.31,-0.05,0.96
2024-12-06 13:23:06.478,60.3,557.0,0.36,0.92,-0.0,-1.18,-0.05,0.96
2024-12-06 13:23:06.486,61.42,552.0,0.35,0.92,-0.0,-0.82,-0.72,0.78
2024-12-06 13:23:06.496,61.65,577.0,0.36,0.92,-0.01,-0.63,-0.48,0.53
2024-12-06 13:23:06.502,61.2,561.0,0.36,0.92,-0.01,-0.63,0.13,0.35
2024-12-06 13:23:06.511,60.52,554.0,0.36,0.92,-0.01,-0.57,0.31,0.17
2024-12-06 13:23:06.527,56.02,564.0,0.36,0.92,-0.0,-0.33,0.37,0.17
2024-12-06 13:23:06.538,57.6,559.0,0.36,0.92,-0.0,-0.02,0.56,0.29
2024-12-06 13:23:06.542,62.1,581.0,0.35,0.92,-0.0,0.34,0.19,0.23
2024-12-06 13:23:06.549,59.4,558.0,0.35,0.92,-0.01,0.4,0.37,-0.02
2024-12-06 13:23:06.557,56.25,549.0,0.35,0.92,-0.01,0.53,0.68,-0.57
2024-12-06 13:23:06.565,56.47,564.0,0.35,0.92,-0.01,0.53,0.68,-0.57
2024-12-06 13:23:06.572,60.75,559.0,0.35,0.92,-0.0,0.59,0.8,-0.93
2024-12-06 13:23:06.587,60.52,557.0,0.35,0.92,-0.0,0.83,0.86,-1.18
2024-12-06 13:23:06.593,59.62,548.0,0.35,0.92,-0.0,1.14,0.99,-1.12
2024-12-06 13:23:06.601,54.67,546.0,0.35,0.92,-0.0,1.44,1.17,-1.24
2024-12-06 13:23:06.605,60.07,561.0,0.34,0.92,-0.01,1.56,1.78,-1.24
2024-12-06 13:23:06.611,57.38,534.0,0.34,0.93,-0.01,1.56,1.78,-1.24
2024-12-06 13:23:06.630,55.35,546.0,0.34,0.93,-0.0,1.69,1.96,-1.3
2024-12-06 13:23:06.637,53.1,538.0,0.33,0.93,-0.01,2.05,2.21,-1.48
2024-12-06 13:23:06.641,57.82,554.0,0.33,0.93,-0.01,1.99,2.57,-1.54
2024-12-06 13:23:06.649,53.55,554.0,0.33,0.93,-0.0,1.99,2.57,-1.54
2024-12-06 13:23:06.661,51.07,550.0,0.34,0.93,-0.0,2.11,2.57,-1.24
2024-12-06 13:23:06.668,51.07,535.0,0.33,0.93,-0.0,2.48,1.9,-0.81
2024-12-06 13:23:06.674,52.42,533.0,0.33,0.94,-0.01,2.42,2.39,-0.44
2024-12-06 13:23:06.681,51.52,531.0,0.33,0.93,-0.01,2.3,2.51,-0.02
2024-12-06 13:23:06.689,53.77,530.0,0.32,0.93,-0.01,2.17,2.33,-0.02
2024-12-06 13:23:06.702,54.9,525.0,0.32,0.93,-0.0,2.17,2.33,-0.02
2024-12-06 13:23:06.708,50.4,528.0,0.33,0.93,-0.0,1.87,2.94,0.04
2024-12-06 13:23:06.713,54.22,530.0,0.33,0.93,0.0,1.62,3.37,0.23
2024-12-06 13:23:06.720,49.95,540.0,0.34,0.94,0.0,1.62,3.67,0.53
2024-12-06 13:23:06.728,49.95,519.0,0.34,0.94,0.01,1.69,3.73,1.2
2024-12-06 13:23:06.737,48.38,526.0,0.34,0.94,0.01,2.11,3.49,1.26
2024-12-06 13:23:06.747,49.05,547.0,0.33,0.93,0.0,2.11,3.49,1.26
2024-12-06 13:23:06.781,48.15,521.0,0.35,0.95,0.0,2.36,4.95,1.33
2024-12-06 13:23:06.783,47.7,521.0,0.34,0.94,0.01,2.36,4.95,1.33
2024-12-06 13:23:06.793,48.6,516.0,0.34,0.93,0.0,2.72,3.73,1.33
2024-12-06 13:23:06.802,48.6,529.0,0.34,0.94,-0.01,2.48,4.22,1.45
2024-12-06 13:23:06.805,47.25,533.0,0.34,0.95,-0.01,2.05,4.22,2.06
2024-12-06 13:23:06.815,44.77,533.0,0.34,0.95,-0.01,1.5,3.18,2.67
2024-12-06 13:23:06.822,43.88,530.0,0.32,0.94,-0.01,1.44,2.45,2.73
2024-12-06 13:23:06.830,45.0,529.0,0.32,0.94,-0.01,1.44,2.45,2.73
2024-12-06 13:23:06.837,43.2,519.0,0.33,0.95,-0.01,1.14,3.3,3.16
2024-12-06 13:23:06.851,41.17,515.0,0.32,0.95,0.0,0.95,3.55,3.95
2024-12-06 13:23:06.854,46.35,518.0,0.31,0.94,0.0,1.08,2.57,4.26
2024-12-06 13:23:06.860,40.5,527.0,0.31,0.94,0.0,1.08,3.43,4.19
2024-12-06 13:23:06.870,38.47,515.0,0.32,0.94,-0.01,1.08,3.43,4.44
2024-12-06 13:23:06.881,44.32,517.0,0.33,0.95,0.0,0.59,5.01,4.44
2024-12-06 13:23:06.886,39.6,532.0,0.32,0.94,0.01,0.65,4.53,4.93
2024-12-06 13:23:06.924,42.97,523.0,0.32,0.93,0.0,0.95,5.2,4.68
2024-12-06 13:23:06.927,37.58,512.0,0.31,0.92,0.0,1.08,5.38,5.17
2024-12-06 13:23:06.932,38.7,511.0,0.33,0.93,-0.01,0.89,6.11,4.99
2024-12-06 13:23:06.935,37.12,511.0,0.33,0.93,-0.01,0.53,5.62,5.35
2024-12-06 13:23:06.944,36.22,499.0,0.33,0.93,-0.01,0.34,4.53,4.99
2024-12-06 13:23:06.963,31.5,504.0,0.33,0.94,-0.02,-0.15,5.26,4.99
2024-12-06 13:23:06.974,32.17,501.0,0.33,0.94,-0.01,-0.45,5.56,5.6
2024-12-06 13:23:06.982,31.95,521.0,0.31,0.94,-0.0,-0.45,4.4,5.35
2024-12-06 13:23:06.994,32.62,497.0,0.32,0.95,-0.01,-0.7,5.68,5.6
2024-12-06 13:23:06.999,32.4,506.0,0.33,0.95,-0.0,-0.7,5.68,5.6
2024-12-06 13:23:07.14,34.2,518.0,0.32,0.93,0.01,-0.51,4.4,5.66
2024-12-06 13:23:07.17,29.47,503.0,0.32,0.93,0.0,-0.45,4.77,5.17
2024-12-06 13:23:07.22,29.7,500.0,0.35,0.94,-0.0,-0.51,6.48,5.29
2024-12-06 13:23:07.30,30.82,496.0,0.35,0.94,-0.0,-0.27,6.11,5.72
2024-12-06 13:23:07.41,29.02,518.0,0.34,0.94,0.01,0.16,5.44,5.05
2024-12-06 13:23:07.47,31.27,516.0,0.32,0.93,0.01,0.16,5.44,5.05
2024-12-06 13:23:07.53,27.22,511.0,0.34,0.93,0.0,0.1,7.09,4.32
2024-12-06 13:23:07.62,27.67,503.0,0.36,0.94,0.01,0.28,7.94,4.32
2024-12-06 13:23:07.71,27.0,513.0,0.34,0.92,0.01,0.77,7.64,4.38
2024-12-06 13:23:07.79,29.25,502.0,0.34,0.92,0.01,1.2,7.33,3.71
2024-12-06 13:23:07.84,26.55,503.0,0.33,0.92,0.01,1.2,8.0,3.52
2024-12-06 13:23:07.97,22.27,523.0,0.35,0.93,0.0,1.2,8.0,3.52
2024-12-06 13:23:07.100,23.85,510.0,0.35,0.92,0.0,1.2,8.31,4.01
2024-12-06 13:23:07.108,22.72,512.0,0.33,0.92,0.01,1.38,7.33,4.13
2024-12-06 13:23:07.116,24.52,490.0,0.32,0.93,0.0,1.38,6.36,3.4
2024-12-06 13:23:07.147,20.7,514.0,0.32,0.94,0.01,1.32,6.6,4.07
2024-12-06 13:23:07.153,18.67,512.0,0.33,0.94,-0.0,1.38,6.72,4.19
2024-12-06 13:23:07.163,21.6,511.0,0.33,0.94,-0.0,1.38,7.15,4.8
2024-12-06 13:23:07.168,20.92,508.0,0.34,0.95,-0.01,1.38,7.15,4.8
2024-12-06 13:23:07.180,19.35,510.0,0.33,0.95,-0.0,1.32,7.03,5.54
2024-12-06 13:23:07.188,21.82,513.0,0.33,0.94,-0.0,1.14,6.48,5.78
2024-12-06 13:23:07.192,19.57,516.0,0.34,0.95,-0.01,1.01,6.48,6.09
2024-12-06 13:23:07.297,13.5,516.0,0.35,0.93,0.01,0.71,5.32,10.79
2024-12-06 13:23:07.306,2.7,517.0,0.36,0.93,0.02,0.77,5.62,11.52
2024-12-06 13:23:07.313,6.52,502.0,0.36,0.93,0.02,0.89,4.28,11.88
2024-12-06 13:23:07.336,10.35,505.0,0.34,0.93,0.01,0.77,4.95,11.7
2024-12-06 13:23:07.339,7.88,506.0,0.35,0.93,0.01,0.59,5.93,11.82
2024-12-06 13:23:07.365,5.62,506.0,0.34,0.93,0.02,0.59,6.11,12.01
2024-12-06 13:23:07.379,5.85,514.0,0.36,0.92,0.02,0.28,6.72,10.97
2024-12-06 13:23:07.382,4.95,493.0,0.34,0.91,0.03,0.34,5.87,10.85
2024-12-06 13:23:07.389,1.8,494.0,0.31,0.91,0.02,0.16,5.38,10.05
2024-12-06 13:23:07.397,4.72,517.0,0.34,0.91,0.02,-0.02,5.93,9.5
2024-12-06 13:23:07.405,2.47,514.0,0.36,0.91,0.02,-0.02,5.93,9.5
2024-12-06 13:23:07.415,-1.12,499.0,0.36,0.91,0.02,-0.08,6.11,9.38
2024-12-06 13:23:07.428,5.17,495.0,0.34,0.91,0.02,-0.15,5.5,8.95
2024-12-06 13:23:07.431,-3.82,506.0,0.34,0.92,0.02,-0.21,4.77,8.22
2024-12-06 13:23:07.440,-0.67,514.0,0.34,0.92,0.02,-0.27,4.53,7.67
2024-12-06 13:23:07.450,1.57,494.0,0.35,0.92,0.02,-0.08,4.77,7.49
2024-12-06 13:23:07.454,2.02,501.0,0.36,0.92,0.01,-0.08,4.77,7.49
2024-12-06 13:23:07.462,1.35,515.0,0.34,0.93,0.02,-0.02,4.4,7.25
2024-12-06 13:23:07.468,-0.22,511.0,0.32,0.92,0.02,-0.08,3.12,6.45
2024-12-06 13:23:07.475,-0.22,500.0,0.32,0.92,0.02,-0.21,2.45,5.05
2024-12-06 13:23:07.484,-4.5,505.0,0.31,0.91,0.02,0.04,2.08,3.03
2024-12-06 13:23:07.489,0.45,496.0,0.31,0.91,0.02,0.04,2.08,3.03
2024-12-06 13:23:07.497,-4.5,511.0,0.32,0.91,0.02,-0.15,2.51,1.2
2024-12-06 13:23:07.507,-4.05,501.0,0.33,0.91,0.02,0.1,2.76,-0.08
2024-12-06 13:23:07.519,-4.5,493.0,0.33,0.91,0.03,0.46,2.57,-0.75
2024-12-06 13:23:07.522,0.22,500.0,0.33,0.91,0.03,0.34,1.05,-1.54
2024-12-06 13:23:07.528,-1.8,507.0,0.33,0.92,0.03,0.16,0.56,-2.4
2024-12-06 13:23:07.546,-2.02,500.0,0.34,0.92,0.02,0.16,0.56,-2.4
2024-12-06 13:23:07.548,-1.57,519.0,0.33,0.92,0.02,0.34,-1.03,-3.56
2024-12-06 13:23:07.551,-6.07,512.0,0.33,0.92,0.02,0.4,-2.25,-4.96
2024-12-06 13:23:07.603,-2.25,511.0,0.35,0.92,0.01,0.1,-1.46,-5.63
2024-12-06 13:23:07.606,-2.02,499.0,0.35,0.94,0.02,0.89,2.21,-2.28
2024-12-06 13:23:07.619,-4.05,509.0,0.35,0.95,0.02,0.89,2.21,-2.28
2024-12-06 13:23:07.621,-2.92,509.0,0.35,0.95,0.02,0.83,2.33,-1.36
2024-12-06 13:23:07.628,0.45,497.0,0.35,0.95,0.01,0.65,1.9,-0.63
2024-12-06 13:23:07.638,-2.02,498.0,0.35,0.94,0.01,0.4,1.41,0.1
2024-12-06 13:23:07.644,-7.2,509.0,0.35,0.94,0.01,-0.02,1.11,0.65
2024-12-06 13:23:07.652,-4.72,499.0,0.35,0.94,0.01,-0.33,1.17,1.02
2024-12-06 13:23:07.658,-4.05,507.0,0.35,0.93,0.01,-0.33,1.17,1.02
2024-12-06 13:23:07.666,-2.02,512.0,0.35,0.93,0.0,-0.33,1.72,1.57
2024-12-06 13:23:07.676,-1.8,516.0,0.35,0.94,0.01,-0.21,2.63,2.3
2024-12-06 13:23:07.687,-6.97,492.0,0.35,0.94,0.01,0.04,3.61,3.03
2024-12-06 13:23:07.695,-2.47,509.0,0.35,0.94,0.01,0.4,4.34,3.71
2024-12-06 13:23:07.698,-2.25,515.0,0.35,0.94,0.02,16.03,4.4,4.07
2024-12-06 13:23:07.708,-2.47,501.0,0.34,0.93,0.02,0.71,4.4,4.07
2024-12-06 13:23:07.717,-2.92,514.0,0.34,0.93,0.02,0.95,4.22,4.26
2024-12-06 13:23:07.721,0.45,508.0,0.34,0.92,0.01,1.08,4.4,4.32
2024-12-06 13:23:07.729,-4.5,496.0,0.34,0.92,0.01,1.2,4.59,4.26
2024-12-06 13:23:07.738,-5.62,502.0,0.34,0.92,0.01,1.2,4.83,4.19
2024-12-06 13:23:07.745,-3.82,521.0,0.34,0.92,0.01,1.2,4.83,4.19
2024-12-06 13:23:07.752,-5.62,508.0,0.34,0.93,0.01,1.14,5.14,4.07
2024-12-06 13:23:07.763,-1.8,500.0,0.34,0.93,0.01,1.2,5.14,4.13
2024-12-06 13:23:07.777,-3.6,495.0,0.34,0.94,0.02,1.32,4.83,4.13
2024-12-06 13:23:07.784,-4.28,526.0,0.35,0.94,0.02,1.93,4.1,4.32
2024-12-06 13:23:07.792,-4.5,524.0,0.35,0.94,0.02,1.93,4.1,4.32
2024-12-06 13:23:07.800,-1.12,505.0,0.34,0.93,0.02,2.11,3.98,4.26
2024-12-06 13:23:07.828,-3.82,513.0,0.33,0.91,0.01,2.42,5.14,3.46
2024-12-06 13:23:07.833,0.22,512.0,0.33,0.91,0.01,2.42,5.14,3.46
2024-12-06 13:23:07.836,-1.57,502.0,0.33,0.92,0.01,2.48,5.68,3.22
2024-12-06 13:23:07.845,-1.35,516.0,0.33,0.92,0.02,2.48,5.87,2.97
2024-12-06 13:23:07.856,-1.57,525.0,0.34,0.93,0.02,2.54,5.62,3.03
2024-12-06 13:23:07.863,-2.47,505.0,0.34,0.93,0.02,2.72,5.38,3.16
2024-12-06 13:23:07.872,-7.42,516.0,0.34,0.93,0.02,2.72,5.38,3.46
2024-12-06 13:23:07.878,0.45,523.0,0.34,0.93,0.02,2.91,5.2,3.46
2024-12-06 13:23:07.888,-2.02,516.0,0.34,0.93,0.03,2.97,4.59,3.64
2024-12-06 13:23:07.893,-0.22,532.0,0.34,0.92,0.03,2.85,3.91,3.64
2024-12-06 13:23:07.901,-1.35,525.0,0.34,0.92,0.03,2.66,3.85,3.4
2024-12-06 13:23:07.911,-1.8,500.0,0.34,0.91,0.02,2.3,4.04,2.97
2024-12-06 13:23:07.916,-5.85,498.0,0.34,0.91,0.02,2.3,4.04,2.97
2024-12-06 13:23:07.923,-0.22,512.0,0.34,0.92,0.02,1.99,4.4,2.61
2024-12-06 13:23:07.930,-1.8,520.0,0.34,0.93,0.02,1.81,4.59,2.42
2024-12-06 13:23:07.937,-2.92,509.0,0.34,0.93,0.02,1.69,4.53,2.49
2024-12-06 13:23:07.962,-3.15,501.0,0.34,0.93,0.02,1.69,4.22,2.55
2024-12-06 13:23:07.965,-3.38,502.0,0.34,0.94,0.02,1.69,3.67,2.55
2024-12-06 13:23:07.967,-2.02,499.0,0.34,0.93,0.02,1.69,3.37,2.61
2024-12-06 13:23:07.976,0.22,501.0,0.34,0.93,0.01,1.62,3.55,2.55
2024-12-06 13:23:07.984,-2.25,496.0,0.34,0.93,0.01,1.38,3.49,2.49
2024-12-06 13:23:07.994,-1.8,494.0,0.33,0.92,0.01,1.08,3.3,2.3
2024-12-06 13:23:08.1,-5.4,515.0,0.33,0.92,0.02,1.08,3.3,2.3
2024-12-06 13:23:08.8,0.9,514.0,0.33,0.92,0.02,0.89,3.3,2.12
2024-12-06 13:23:08.15,-4.28,500.0,0.33,0.93,0.01,0.71,3.37,2.18
2024-12-06 13:23:08.50,-3.15,498.0,0.33,0.93,0.01,0.53,3.73,2.18
2024-12-06 13:23:08.56,-4.5,506.0,0.33,0.93,0.02,0.28,4.22,2.42
2024-12-06 13:23:08.59,-2.02,502.0,0.33,0.93,0.02,0.28,4.22,2.55
2024-12-06 13:23:08.67,-4.95,504.0,0.33,0.93,0.02,0.22,4.22,2.67
2024-12-06 13:23:08.76,-1.8,512.0,0.33,0.93,0.02,0.22,4.04,2.73
2024-12-06 13:23:08.93,-1.12,514.0,0.34,0.92,0.02,0.1,3.85,2.67
2024-12-06 13:23:08.98,-2.47,523.0,0.34,0.92,0.02,0.04,3.79,2.55
2024-12-06 13:23:08.108,-2.02,503.0,0.34,0.92,0.02,-0.08,3.79,2.3
2024-12-06 13:23:08.121,-3.38,520.0,0.34,0.93,0.02,-0.15,3.73,2.18
2024-12-06 13:23:08.132,-2.25,504.0,0.33,0.93,0.02,-0.21,3.91,2.12
2024-12-06 13:23:08.136,-4.95,505.0,0.33,0.93,0.02,-0.15,3.79,2.24
2024-12-06 13:23:08.144,-1.8,518.0,0.33,0.94,0.02,-0.08,3.85,2.36
2024-12-06 13:23:08.153,-0.45,506.0,0.33,0.94,0.02,-0.02,4.1,2.49
2024-12-06 13:23:08.161,-3.6,523.0,0.33,0.94,0.02,-0.02,4.1,2.67
2024-12-06 13:23:08.171,-4.72,530.0,0.33,0.94,0.02,-0.02,4.22,2.67
2024-12-06 13:23:08.176,-2.25,503.0,0.33,0.94,0.02,-0.02,4.22,2.79
2024-12-06 13:23:08.189,-2.02,516.0,0.33,0.93,0.02,0.04,4.16,2.79
2024-12-06 13:23:08.194,-3.38,511.0,0.33,0.93,0.02,0.04,4.22,2.73
2024-12-06 13:23:08.209,1.12,509.0,0.32,0.93,0.02,0.1,4.1,2.61
2024-12-06 13:23:08.213,-0.67,523.0,0.32,0.93,0.02,0.04,3.98,2.55
