Timestamp,PosIsDeg,ForceIs,AccX,AccY,AccZ,GyroX,GyroY,GyroZ
2024-12-06 13:20:01.241,33.08,536.0,0.24,0.96,0.0,0.4,0.62,4.32
2024-12-06 13:20:01.268,34.65,529.0,0.26,0.97,0.01,0.16,0.86,4.44
2024-12-06 13:20:01.328,29.92,529.0,0.33,1.04,0.08,-6.13,0.86,13.84
2024-12-06 13:20:01.330,27.45,544.0,0.34,1.06,-0.1,-1.79,9.29,22.2
2024-12-06 13:20:01.351,22.27,537.0,0.32,0.97,0.05,-1.73,12.34,27.45
2024-12-06 13:20:01.378,20.92,509.0,0.27,0.91,-0.02,-0.82,2.51,25.86
2024-12-06 13:20:01.433,15.52,520.0,0.27,0.89,0.01,0.59,-5.24,20.61
2024-12-06 13:20:01.440,12.82,510.0,0.21,0.88,0.02,0.65,-9.64,15.42
2024-12-06 13:20:01.460,14.17,502.0,0.19,0.9,0.02,1.14,-9.94,6.82
2024-12-06 13:20:01.487,11.92,524.0,0.2,0.93,0.03,-0.21,-5.42,1.2
2024-12-06 13:20:01.520,13.05,523.0,0.2,0.93,0.02,-1.18,0.25,-1.54
2024-12-06 13:20:01.548,15.52,537.0,0.27,0.95,0.04,-3.08,4.16,-0.93
2024-12-06 13:20:01.572,10.35,522.0,0.3,0.95,-0.0,-4.17,6.05,1.69
2024-12-06 13:20:01.598,12.82,512.0,0.33,0.96,0.0,-3.93,2.08,3.22
2024-12-06 13:20:01.685,13.72,503.0,0.34,0.96,0.01,-3.62,-3.35,4.68
2024-12-06 13:20:01.688,7.2,508.0,0.29,0.94,0.04,-1.98,-9.39,3.64
2024-12-06 13:20:01.708,9.68,518.0,0.28,0.95,0.03,-2.22,-6.34,3.89
2024-12-06 13:20:01.736,6.3,507.0,0.26,0.95,0.02,-1.92,-2.43,4.5
2024-12-06 13:20:01.772,3.38,529.0,0.26,0.95,0.01,-2.04,-0.72,3.46
2024-12-06 13:20:01.797,6.52,510.0,0.28,0.95,0.02,-2.65,-1.76,3.28
2024-12-06 13:20:01.823,3.82,518.0,0.3,0.94,0.02,-3.44,-2.8,4.01
2024-12-06 13:20:01.846,2.7,503.0,0.3,0.94,0.02,-2.95,-4.08,4.19
2024-12-06 13:20:03.160,-0.9,517.0,0.28,0.94,0.03,-1.61,-4.94,7.98
2024-12-06 13:20:03.162,-4.95,526.0,0.28,0.95,0.03,-1.67,-5.91,7.25
2024-12-06 13:20:03.169,0.45,528.0,0.28,0.95,0.03,-1.61,-6.28,6.33
2024-12-06 13:20:03.180,1.57,522.0,0.27,0.95,0.03,-1.43,-6.34,5.78
2024-12-06 13:20:03.189,-3.38,515.0,0.28,0.95,0.04,-1.43,-6.34,5.78
2024-12-06 13:20:03.192,0.45,515.0,0.28,0.94,0.05,-1.24,-6.52,5.54
2024-12-06 13:20:03.203,2.92,513.0,0.27,0.94,0.04,-0.94,-5.67,5.23
2024-12-06 13:20:03.212,2.25,511.0,0.27,0.94,0.03,-0.63,-4.2,4.74
2024-12-06 13:20:03.221,-1.12,516.0,0.27,0.94,0.03,-0.33,-2.98,4.44
2024-12-06 13:20:03.224,-8.32,508.0,0.27,0.94,0.02,-0.15,-2.13,4.26
2024-12-06 13:20:03.233,0.0,537.0,0.27,0.94,0.02,-0.15,-2.13,4.26
2024-12-06 13:20:03.264,3.15,524.0,0.25,0.95,0.01,-0.7,-1.21,3.71
2024-12-06 13:20:03.269,1.8,523.0,0.24,0.96,-0.0,-0.7,-1.21,3.71
2024-12-06 13:20:03.277,3.15,524.0,0.26,0.97,0.01,-1.24,-0.97,3.28
2024-12-06 13:20:03.310,-2.47,532.0,0.27,0.97,0.01,-1.24,-0.66,3.46
2024-12-06 13:20:03.314,-2.47,516.0,0.27,0.97,0.03,-1.61,-1.15,4.44
2024-12-06 13:20:03.316,-3.15,524.0,0.27,0.95,0.03,-1.73,-0.85,4.68
2024-12-06 13:20:03.324,1.12,523.0,0.27,0.94,0.03,-1.92,0.01,4.38
2024-12-06 13:20:03.353,1.57,512.0,0.28,0.92,0.05,-1.98,-1.09,3.58
2024-12-06 13:20:03.355,1.57,527.0,0.28,0.92,0.05,-1.67,-2.19,3.34
2024-12-06 13:20:03.360,-4.5,534.0,0.27,0.91,0.03,-1.55,-2.68,2.67
2024-12-06 13:20:03.372,0.9,518.0,0.26,0.92,0.02,-1.67,-2.92,1.69
2024-12-06 13:20:03.382,-1.12,534.0,0.26,0.92,0.02,-1.85,-3.35,0.72
2024-12-06 13:20:03.386,5.17,512.0,0.25,0.94,0.03,-1.79,-3.47,0.17
2024-12-06 13:20:03.393,1.35,513.0,0.26,0.96,0.02,-1.79,-3.47,0.17
2024-12-06 13:20:03.402,-3.38,527.0,0.27,0.97,0.01,-1.73,-3.65,0.72
2024-12-06 13:20:03.409,-0.9,515.0,0.26,0.97,0.0,-1.92,-3.29,1.02
2024-12-06 13:20:03.417,3.6,523.0,0.26,0.97,0.0,-1.92,-2.37,1.39
2024-12-06 13:20:03.423,-1.8,516.0,0.26,0.97,0.0,-1.79,-2.13,2.12
2024-12-06 13:20:03.438,0.9,515.0,0.27,0.97,0.01,-1.67,-2.01,3.1
2024-12-06 13:20:03.491,0.67,510.0,0.29,0.97,0.01,-0.15,-1.09,9.26
2024-12-06 13:20:03.497,-3.15,512.0,0.29,0.98,0.02,0.04,-1.7,9.38
2024-12-06 13:20:03.500,0.0,513.0,0.29,0.98,0.02,0.28,-2.68,9.38
2024-12-06 13:20:03.508,1.8,517.0,0.29,0.98,0.01,0.28,-2.68,9.2
2024-12-06 13:20:03.513,-0.67,511.0,0.28,0.98,0.0,0.46,-1.88,9.2
2024-12-06 13:20:03.521,-1.12,516.0,0.28,0.98,0.02,0.71,-1.27,9.02
2024-12-06 13:20:03.529,1.12,532.0,0.28,0.97,0.03,0.83,-0.6,8.89
2024-12-06 13:20:03.537,-0.9,529.0,0.27,0.96,0.03,0.95,0.74,8.59
2024-12-06 13:20:03.548,3.15,536.0,0.27,0.96,0.03,1.26,1.9,8.22
2024-12-06 13:20:03.590,1.35,523.0,0.26,0.94,0.02,2.54,7.03,7.55
2024-12-06 13:20:03.592,-4.5,527.0,0.26,0.94,0.02,2.85,8.49,7.61
2024-12-06 13:20:03.601,1.35,526.0,0.26,0.95,0.02,3.09,9.35,7.67
2024-12-06 13:20:03.608,1.57,511.0,0.26,0.95,0.02,3.21,9.84,7.61
2024-12-06 13:20:03.619,0.9,524.0,0.27,0.95,0.01,3.52,9.22,7.55
2024-12-06 13:20:03.625,0.45,510.0,0.27,0.95,0.01,3.76,8.55,7.49
2024-12-06 13:20:03.633,0.0,518.0,0.28,0.95,-0.0,3.76,8.55,7.49
2024-12-06 13:20:03.636,-0.67,524.0,0.29,0.96,-0.01,3.94,7.88,7.55
2024-12-06 13:20:03.653,0.45,534.0,0.3,0.96,-0.01,4.0,7.09,7.67
2024-12-06 13:20:03.657,3.15,516.0,0.3,0.96,-0.01,3.82,6.72,7.86
2024-12-06 13:20:03.659,-0.22,530.0,0.3,0.96,-0.01,3.52,6.42,8.04
2024-12-06 13:20:03.695,-4.05,513.0,0.29,0.96,0.01,3.52,6.42,8.04
2024-12-06 13:20:03.727,0.9,528.0,0.28,0.93,0.01,2.3,1.84,6.88
2024-12-06 13:20:03.730,0.45,510.0,0.28,0.93,0.04,2.78,3.67,4.93
2024-12-06 13:20:03.734,-4.28,512.0,0.27,0.93,0.04,2.85,3.98,3.71
2024-12-06 13:20:03.742,-0.9,534.0,0.26,0.93,0.05,2.85,3.98,3.71
2024-12-06 13:20:03.755,-4.05,512.0,0.27,0.93,0.05,2.6,4.53,2.91
2024-12-06 13:20:03.758,2.25,534.0,0.28,0.93,0.04,2.17,5.68,3.1
2024-12-06 13:20:03.764,-0.9,517.0,0.28,0.91,0.05,1.81,5.5,3.22
2024-12-06 13:20:03.771,0.9,518.0,0.28,0.91,0.05,0.77,6.23,3.1
2024-12-06 13:20:03.779,-0.9,526.0,0.29,0.9,0.04,0.77,6.23,3.1
2024-12-06 13:20:03.788,0.22,518.0,0.31,0.91,0.05,-0.15,6.3,3.64
2024-12-06 13:20:03.795,-5.4,509.0,0.31,0.92,0.04,-0.63,4.4,4.5
2024-12-06 13:20:03.803,0.22,524.0,0.32,0.94,0.02,-1.0,3.24,5.23
2024-12-06 13:20:03.812,-1.8,525.0,0.32,0.94,0.01,-1.31,3.06,5.9
2024-12-06 13:20:03.821,-1.8,520.0,0.33,0.96,0.01,-1.37,2.14,6.33
2024-12-06 13:20:03.831,-1.12,535.0,0.33,0.97,0.02,-1.37,2.14,6.33
2024-12-06 13:20:03.835,0.22,517.0,0.32,0.97,0.04,-1.55,0.19,6.39
2024-12-06 13:20:03.842,-5.4,515.0,0.33,0.97,0.04,-1.73,-0.85,6.15
2024-12-06 13:20:03.850,1.12,517.0,0.33,0.97,0.02,-1.55,-1.27,5.9
2024-12-06 13:20:03.865,-3.82,528.0,0.32,0.97,0.01,-1.24,-0.85,5.72
2024-12-06 13:20:03.868,-1.8,519.0,0.32,0.97,0.01,-0.76,0.56,5.6
2024-12-06 13:20:03.876,1.57,550.0,0.31,0.96,0.01,-0.76,0.56,5.6
2024-12-06 13:20:03.883,-3.15,529.0,0.31,0.96,0.02,-0.33,1.9,5.78
2024-12-06 13:20:03.891,-4.5,525.0,0.3,0.95,0.03,-0.45,3.37,6.27
2024-12-06 13:20:03.922,0.45,529.0,0.22,0.91,0.04,-1.31,2.21,4.26
2024-12-06 13:20:03.928,2.25,518.0,0.23,0.91,-0.01,-1.06,2.57,2.79
2024-12-06 13:20:03.936,0.0,519.0,0.23,0.92,-0.02,-1.18,3.24,1.51
2024-12-06 13:20:03.967,2.92,518.0,0.23,0.92,-0.02,-1.12,2.45,0.96
2024-12-06 13:20:03.971,0.67,513.0,0.28,0.98,-0.01,-1.31,2.45,2.06
2024-12-06 13:20:03.978,0.45,521.0,0.3,0.97,-0.01,-0.94,1.72,3.77
2024-12-06 13:20:03.980,0.67,534.0,0.3,0.97,-0.01,-0.63,1.6,6.21
2024-12-06 13:20:03.991,-1.35,514.0,0.33,0.96,-0.01,-0.51,2.08,8.59
2024-12-06 13:20:04.20,0.9,506.0,0.37,0.94,-0.02,0.1,1.41,12.49
2024-12-06 13:20:04.26,0.0,515.0,0.37,0.94,0.0,0.4,-0.17,13.78
2024-12-06 13:20:04.29,-3.15,505.0,0.38,0.95,0.0,1.01,-4.33,14.94
2024-12-06 13:20:04.33,-2.47,517.0,0.39,0.96,0.01,1.01,-4.33,14.94
2024-12-06 13:20:04.41,0.0,558.0,0.38,0.96,-0.0,1.2,-5.85,15.18
2024-12-06 13:20:04.50,2.47,529.0,0.36,0.96,0.02,0.95,-7.01,14.69
2024-12-06 13:20:04.57,-0.45,516.0,0.34,0.96,0.03,0.71,-8.48,13.65
2024-12-06 13:20:04.65,0.9,527.0,0.34,0.96,0.06,0.83,-9.33,12.74
2024-12-06 13:20:04.75,-1.12,518.0,0.33,0.96,0.03,1.08,-8.72,12.37
2024-12-06 13:20:04.81,1.57,522.0,0.32,0.96,0.03,1.08,-8.72,12.37
2024-12-06 13:20:04.89,1.8,530.0,0.3,0.95,0.04,1.38,-7.62,12.07
2024-12-06 13:20:04.100,2.92,519.0,0.3,0.95,0.04,1.62,-5.79,12.07
2024-12-06 13:20:04.106,-3.38,525.0,0.3,0.95,0.04,1.75,-2.74,12.31
2024-12-06 13:20:04.208,-0.67,530.0,0.3,0.94,0.04,1.5,1.05,12.62
2024-12-06 13:20:04.217,-2.02,523.0,0.34,0.9,0.06,-6.19,2.39,15.73
2024-12-06 13:20:04.225,-2.02,525.0,0.34,0.9,0.06,-6.31,1.11,15.97
2024-12-06 13:20:04.233,2.02,537.0,0.35,0.9,0.06,-6.37,-0.11,16.28
2024-12-06 13:20:04.243,3.38,532.0,0.36,0.91,0.05,-6.37,-0.11,16.28
2024-12-06 13:20:04.249,0.9,524.0,0.36,0.92,0.05,-6.49,-0.66,16.34
2024-12-06 13:20:04.256,-0.9,533.0,0.36,0.93,0.05,-6.68,-0.42,15.91
2024-12-06 13:20:04.272,3.6,523.0,0.36,0.93,0.05,-6.62,-0.36,15.3
2024-12-06 13:20:04.287,-0.9,545.0,0.36,0.93,0.05,-6.19,-0.48,14.75
2024-12-06 13:20:04.289,0.9,515.0,0.32,0.94,0.06,-5.58,-1.76,13.65
2024-12-06 13:20:04.303,-0.45,527.0,0.3,0.94,0.06,-5.09,-2.92,11.15
2024-12-06 13:20:04.313,-0.9,555.0,0.3,0.93,0.07,-4.24,-3.84,5.05
2024-12-06 13:20:04.328,2.47,528.0,0.3,0.93,0.06,-3.62,-4.33,2.36
2024-12-06 13:20:04.335,2.02,534.0,0.31,0.92,0.05,-2.95,-3.78,0.41
2024-12-06 13:20:04.373,2.92,529.0,0.29,0.91,0.03,-1.12,-5.12,-4.29
2024-12-06 13:20:04.376,6.52,531.0,0.3,0.92,0.03,-1.18,-4.02,-5.08
2024-12-06 13:20:04.379,9.68,533.0,0.28,0.93,0.04,-0.82,-6.1,-5.88
2024-12-06 13:20:04.388,9.22,543.0,0.28,0.93,0.03,-1.06,-6.71,-7.04
2024-12-06 13:20:04.400,12.15,550.0,0.28,0.93,0.04,-1.49,-5.97,-7.77
2024-12-06 13:20:04.422,9.68,571.0,0.28,0.92,0.04,-0.94,-6.95,-8.62
2024-12-06 13:20:04.427,10.57,539.0,0.29,0.93,0.01,-0.94,-4.39,-8.81
2024-12-06 13:20:04.434,10.12,548.0,0.28,0.93,0.02,0.16,-4.33,-9.54
2024-12-06 13:20:04.441,17.32,548.0,0.29,0.93,0.03,0.89,-2.92,-9.84
2024-12-06 13:20:04.443,14.4,546.0,0.29,0.93,0.03,1.81,-1.58,-9.91
2024-12-06 13:20:04.450,19.57,537.0,0.31,0.93,0.04,1.81,-1.58,-9.91
2024-12-06 13:20:04.463,19.8,550.0,0.32,0.92,0.04,2.48,-0.97,-9.84
2024-12-06 13:20:04.465,21.38,546.0,0.33,0.91,0.02,3.15,-1.33,-10.09
2024-12-06 13:20:04.474,21.15,592.0,0.35,0.91,0.02,2.85,-0.6,-10.21
2024-12-06 13:20:04.490,21.6,569.0,0.36,0.92,0.03,2.78,-1.21,-10.33
2024-12-06 13:20:04.495,20.92,545.0,0.36,0.92,0.03,2.66,-0.91,-10.15
2024-12-06 13:20:04.499,18.67,576.0,0.36,0.94,0.03,2.66,-0.91,-9.78
2024-12-06 13:20:04.512,24.97,560.0,0.36,0.96,0.05,2.36,-1.7,-9.78
2024-12-06 13:20:04.514,27.45,568.0,0.35,0.97,0.06,1.81,-1.88,-9.29
2024-12-06 13:20:04.520,29.02,557.0,0.35,0.96,0.06,2.11,-2.01,-9.05
2024-12-06 13:20:04.529,25.2,544.0,0.35,0.96,0.04,2.36,-1.46,-8.5
2024-12-06 13:20:04.536,27.45,551.0,0.35,0.96,0.04,2.36,-0.42,-7.59
2024-12-06 13:20:04.545,29.92,557.0,0.36,0.96,0.03,2.36,-0.42,-7.59
2024-12-06 13:20:04.564,24.75,556.0,0.37,0.96,0.02,3.39,2.27,-6.18
2024-12-06 13:20:04.593,32.62,572.0,0.34,0.97,0.03,2.11,1.6,0.47
2024-12-06 13:20:04.597,36.45,562.0,0.3,0.94,0.03,1.69,0.01,0.72
2024-12-06 13:20:04.605,36.45,568.0,0.27,0.94,0.03,1.08,-1.7,-0.57
2024-12-06 13:20:04.612,37.35,567.0,0.27,0.94,0.03,0.04,-0.78,-0.75
2024-12-06 13:20:04.621,35.1,565.0,0.29,0.95,0.03,-0.27,-0.3,0.17
2024-12-06 13:20:04.634,37.8,585.0,0.32,0.95,0.03,-0.27,-0.3,0.17
2024-12-06 13:20:04.637,39.83,578.0,0.33,0.96,0.04,-0.63,0.13,2.55
2024-12-06 13:20:04.644,40.95,579.0,0.3,0.96,0.03,-0.08,-0.24,4.56
2024-12-06 13:20:04.652,37.12,585.0,0.32,0.97,0.01,0.28,-0.17,5.54
2024-12-06 13:20:04.663,40.5,574.0,0.32,1.0,0.02,-0.63,1.23,7.0
2024-12-06 13:20:04.670,38.25,573.0,0.35,0.99,0.02,-0.82,1.66,8.22
2024-12-06 13:20:04.681,41.4,574.0,0.34,0.98,0.03,-0.82,1.66,8.22
2024-12-06 13:20:04.685,40.05,573.0,0.32,0.97,0.03,-0.57,0.68,8.83
2024-12-06 13:20:04.695,36.0,575.0,0.32,0.96,0.03,-0.57,-0.36,9.08
2024-12-06 13:20:04.704,44.55,573.0,0.32,0.95,0.03,-0.57,-0.91,9.32
2024-12-06 13:20:04.706,43.88,588.0,0.32,0.95,0.03,-0.76,-0.48,9.5
2024-12-06 13:20:04.715,44.1,571.0,0.32,0.95,0.03,-0.63,-0.48,9.63
2024-12-06 13:20:04.728,43.65,587.0,0.31,0.95,0.03,-0.63,-0.48,9.63
2024-12-06 13:20:04.730,43.88,566.0,0.31,0.95,0.03,-0.7,-0.97,9.69
2024-12-06 13:20:04.757,47.47,605.0,0.31,0.95,0.03,-0.82,-0.54,9.93
2024-12-06 13:20:04.780,45.0,599.0,0.29,0.93,0.04,-0.57,0.01,10.42
2024-12-06 13:20:04.828,42.3,580.0,0.3,0.93,0.04,-0.51,0.56,10.18
2024-12-06 13:20:04.833,47.92,583.0,0.29,0.92,0.04,-0.27,1.84,9.5
2024-12-06 13:20:04.839,46.57,594.0,0.29,0.91,0.04,-0.27,1.84,8.77
2024-12-06 13:20:04.850,45.22,585.0,0.29,0.91,0.05,-0.57,2.02,8.77
2024-12-06 13:20:04.853,47.02,578.0,0.3,0.91,0.05,-0.76,1.9,8.22
2024-12-06 13:20:04.862,51.07,574.0,0.3,0.92,0.05,-0.76,1.53,7.98
2024-12-06 13:20:04.869,50.4,579.0,0.3,0.93,0.03,-0.76,2.02,7.73
2024-12-06 13:20:04.879,47.92,598.0,0.3,0.93,0.03,-0.88,2.88,7.92
2024-12-06 13:20:04.885,47.47,583.0,0.31,0.94,0.03,-0.63,2.57,7.86
2024-12-06 13:20:04.898,50.62,607.0,0.3,0.94,0.03,-0.63,2.57,7.86
2024-12-06 13:20:04.906,47.92,571.0,0.29,0.94,0.03,-0.39,2.45,7.31
2024-12-06 13:20:04.914,53.1,597.0,0.3,0.94,0.04,-0.63,2.88,6.57
2024-12-06 13:20:04.919,49.5,587.0,0.3,0.94,0.04,-0.82,3.12,5.96
2024-12-06 13:20:04.931,48.38,582.0,0.3,0.94,0.05,-0.88,3.06,5.54
2024-12-06 13:20:04.934,52.2,576.0,0.3,0.94,0.05,-0.82,3.0,5.54
2024-12-06 13:20:04.942,51.07,606.0,0.31,0.94,0.04,-0.82,3.0,5.54
2024-12-06 13:20:04.948,55.57,593.0,0.31,0.92,0.04,-0.57,2.82,5.54
2024-12-06 13:20:04.956,50.85,585.0,0.32,0.92,0.04,-0.15,2.33,5.29
2024-12-06 13:20:04.965,52.88,596.0,0.33,0.93,0.03,-0.21,2.51,5.23
2024-12-06 13:20:04.972,55.57,612.0,0.33,0.93,0.04,-0.33,2.63,5.41
2024-12-06 13:20:04.981,54.9,602.0,0.33,0.93,0.04,-0.21,2.27,5.72
2024-12-06 13:20:04.988,56.92,587.0,0.32,0.94,0.05,-0.21,2.08,6.21
2024-12-06 13:20:04.996,52.88,602.0,0.32,0.94,0.04,-0.45,2.08,6.21
2024-12-06 13:20:05.10,55.8,609.0,0.32,0.94,0.04,-0.7,1.84,6.57
2024-12-06 13:20:05.13,51.52,589.0,0.33,0.94,0.04,-1.06,1.9,6.88
2024-12-06 13:20:05.62,55.8,601.0,0.33,0.95,0.04,-1.61,2.33,7.43
2024-12-06 13:20:05.70,57.15,596.0,0.34,0.94,0.04,-2.04,1.11,8.71
2024-12-06 13:20:05.74,58.5,633.0,0.34,0.94,0.04,-2.04,1.11,8.71
2024-12-06 13:20:05.79,54.67,598.0,0.34,0.94,0.05,-1.73,0.19,9.02
2024-12-06 13:20:05.87,58.05,597.0,0.34,0.94,0.05,-1.37,-0.36,9.26
2024-12-06 13:20:05.95,60.3,605.0,0.35,0.93,0.06,-1.0,-0.85,9.26
2024-12-06 13:20:05.103,62.1,610.0,0.35,0.93,0.06,-1.18,-0.78,9.08
2024-12-06 13:20:05.115,61.65,597.0,0.35,0.93,0.05,-1.12,-0.42,8.83
2024-12-06 13:20:05.129,62.77,642.0,0.34,0.93,0.05,-0.88,-0.42,8.41
2024-12-06 13:20:05.135,62.1,595.0,0.34,0.94,0.05,-0.7,-0.42,8.04
2024-12-06 13:20:05.142,60.75,580.0,0.34,0.95,0.05,-1.0,-0.24,8.22
2024-12-06 13:20:05.155,66.38,615.0,0.34,0.95,0.05,-1.06,-0.54,8.53
2024-12-06 13:20:05.160,60.75,594.0,0.33,0.95,0.06,-1.06,-0.78,8.65
2024-12-06 13:20:05.168,64.12,597.0,0.32,0.93,0.05,-1.06,-0.78,8.65
2024-12-06 13:20:05.276,67.28,572.0,0.33,0.93,0.05,-1.49,-0.36,9.87
2024-12-06 13:20:05.294,67.05,614.0,0.34,0.92,0.04,-1.31,0.07,9.99
2024-12-06 13:20:05.309,70.2,605.0,0.34,0.89,0.04,0.1,0.44,7.92
2024-12-06 13:20:05.318,68.62,605.0,0.36,0.92,0.04,-0.02,-0.05,7.31
2024-12-06 13:20:05.323,72.9,603.0,0.35,0.94,0.05,0.1,-0.78,7.49
2024-12-06 13:20:05.334,71.55,605.0,0.33,0.94,0.04,0.53,-0.6,7.49
2024-12-06 13:20:05.363,74.25,619.0,0.33,0.93,0.04,-0.21,1.05,6.88
2024-12-06 13:20:05.365,72.22,610.0,0.34,0.92,0.04,-0.51,1.72,6.76
2024-12-06 13:20:05.371,69.53,614.0,0.35,0.93,0.05,-0.63,1.35,7.0
2024-12-06 13:20:05.377,76.05,614.0,0.35,0.93,0.05,-0.82,1.17,7.55
2024-12-06 13:20:05.387,76.05,628.0,0.35,0.93,0.05,-0.94,1.41,7.86
2024-12-06 13:20:05.397,70.2,621.0,0.35,0.94,0.05,-0.94,1.41,7.86
2024-12-06 13:20:05.403,74.47,610.0,0.35,0.93,0.03,1.01,-0.17,7.92
2024-12-06 13:20:05.408,73.12,614.0,0.37,0.91,0.06,-1.24,1.9,7.31
2024-12-06 13:20:05.416,77.17,629.0,0.38,0.91,0.07,-0.51,1.35,7.18
2024-12-06 13:20:05.424,78.3,636.0,0.38,0.91,0.07,-0.08,-0.36,7.67
2024-12-06 13:20:05.434,73.35,615.0,0.37,0.93,0.05,0.04,0.31,7.67
2024-12-06 13:20:05.440,74.47,619.0,0.36,0.92,0.06,0.04,0.31,7.67
2024-12-06 13:20:05.448,74.7,626.0,0.37,0.91,0.06,0.04,0.74,6.88
2024-12-06 13:20:05.456,81.0,620.0,0.38,0.92,0.06,-0.63,-0.11,7.18
2024-12-06 13:20:05.466,82.12,622.0,0.37,0.93,0.06,-0.82,-0.42,7.8
2024-12-06 13:20:05.472,76.72,619.0,0.37,0.93,0.06,-0.57,-0.11,8.28
2024-12-06 13:20:05.481,77.4,620.0,0.37,0.93,0.06,-0.63,0.62,8.59
2024-12-06 13:20:05.515,80.78,632.0,0.36,0.93,0.04,-0.63,0.62,8.59
2024-12-06 13:20:05.521,82.35,618.0,0.36,0.94,0.06,-1.61,2.21,9.87
2024-12-06 13:20:05.546,78.53,625.0,0.35,0.93,0.05,-1.61,2.21,9.87
2024-12-06 13:20:05.550,80.1,641.0,0.37,0.93,0.05,-2.22,1.53,10.05
2024-12-06 13:20:05.555,83.7,631.0,0.37,0.93,0.05,-2.22,1.11,10.24
2024-12-06 13:20:05.565,80.32,629.0,0.36,0.92,0.05,-2.22,1.11,10.24
2024-12-06 13:20:05.572,85.05,640.0,0.36,0.91,0.05,-1.98,1.05,9.99
2024-12-06 13:20:05.586,85.72,628.0,0.36,0.91,0.05,-1.49,1.35,9.32
2024-12-06 13:20:05.601,86.85,636.0,0.37,0.92,0.05,-1.0,1.35,8.95
2024-12-06 13:20:05.603,87.97,623.0,0.37,0.92,0.06,-0.51,0.8,9.99
2024-12-06 13:20:05.609,86.17,632.0,0.35,0.92,0.06,0.22,0.8,9.99
2024-12-06 13:20:05.617,82.35,626.0,0.34,0.92,0.06,0.77,0.62,11.52
2024-12-06 13:20:05.632,85.5,691.0,0.33,0.93,0.04,2.72,-0.36,12.98
2024-12-06 13:20:05.636,86.62,638.0,0.38,0.89,0.06,1.2,1.53,12.37
2024-12-06 13:20:05.642,86.62,628.0,0.38,0.89,0.06,1.26,2.76,9.75
2024-12-06 13:20:05.652,84.38,647.0,0.41,0.86,0.06,1.26,2.45,8.65
2024-12-06 13:20:05.657,85.72,637.0,0.39,0.89,0.05,0.95,2.45,8.65
2024-12-06 13:20:05.667,87.07,633.0,0.39,0.9,0.05,0.71,3.12,7.61
2024-12-06 13:20:05.672,90.22,643.0,0.39,0.91,0.04,0.28,2.94,7.25
2024-12-06 13:20:05.682,90.45,637.0,0.39,0.91,0.04,0.1,2.57,7.43
2024-12-06 13:20:05.689,88.88,628.0,0.39,0.91,0.04,0.22,2.69,7.31
2024-12-06 13:20:05.696,87.97,643.0,0.38,0.9,0.05,0.53,2.69,6.88
2024-12-06 13:20:05.705,86.85,658.0,0.38,0.9,0.05,0.53,2.69,6.88
2024-12-06 13:20:05.712,86.4,638.0,0.39,0.9,0.05,0.89,2.57,6.51
2024-12-06 13:20:05.720,88.2,641.0,0.4,0.91,0.06,0.89,2.21,6.45
2024-12-06 13:20:05.728,93.38,640.0,0.39,0.92,0.06,0.65,1.53,6.7
2024-12-06 13:20:05.737,87.75,646.0,0.39,0.92,0.06,0.28,1.05,6.94
2024-12-06 13:20:05.744,90.22,637.0,0.39,0.92,0.06,-0.02,0.99,6.7
2024-12-06 13:20:05.752,91.12,655.0,0.39,0.9,0.05,-0.02,0.99,6.7
2024-12-06 13:20:05.759,88.42,652.0,0.4,0.9,0.05,-0.33,1.05,6.33
2024-12-06 13:20:05.797,89.55,638.0,0.41,0.9,0.06,-0.7,0.07,6.45
2024-12-06 13:20:05.801,92.02,652.0,0.39,0.91,0.05,-0.57,-0.78,7.92
2024-12-06 13:20:05.804,82.12,672.0,0.39,0.92,0.05,-0.88,-1.27,8.1
2024-12-06 13:20:05.812,94.05,646.0,0.39,0.93,0.06,-1.49,-2.37,8.41
2024-12-06 13:20:05.821,97.65,646.0,0.39,0.93,0.06,-1.73,-2.98,8.47
2024-12-06 13:20:05.828,92.7,656.0,0.39,0.92,0.06,-1.92,-3.71,8.34
2024-12-06 13:20:05.838,90.9,661.0,0.39,0.91,0.06,-1.92,-3.71,8.34
2024-12-06 13:20:05.844,93.6,657.0,0.4,0.9,0.06,-2.22,-3.65,8.04
2024-12-06 13:20:05.851,90.9,663.0,0.4,0.89,0.06,-2.1,-3.17,7.92
2024-12-06 13:20:05.860,92.02,667.0,0.4,0.91,0.06,-1.85,-3.35,8.04
2024-12-06 13:20:05.868,92.02,653.0,0.4,0.91,0.06,-2.04,-3.78,8.34
2024-12-06 13:20:05.877,91.8,653.0,0.39,0.92,0.07,-2.22,-4.45,8.71
2024-12-06 13:20:05.884,97.65,649.0,0.38,0.92,0.07,-2.22,-4.45,8.71
2024-12-06 13:20:05.892,97.88,661.0,0.34,0.93,0.07,-2.4,-5.06,10.11
2024-12-06 13:20:05.900,94.27,678.0,0.33,0.93,0.06,-2.22,-5.24,12.98
2024-12-06 13:20:05.910,95.17,671.0,0.36,0.9,0.04,0.04,-6.34,15.18
2024-12-06 13:20:05.916,96.07,656.0,0.41,0.92,0.05,-1.37,-3.59,15.36
2024-12-06 13:20:05.924,94.05,666.0,0.41,0.92,0.05,2.17,-4.87,14.75
2024-12-06 13:20:05.958,96.97,671.0,0.42,0.82,0.04,-1.85,-3.1,10.66
2024-12-06 13:20:05.963,98.32,664.0,0.42,0.82,0.04,-5.15,-1.94,8.34
2024-12-06 13:20:05.970,99.9,661.0,0.42,0.82,0.12,-3.75,-4.14,8.65
2024-12-06 13:20:05.978,99.9,650.0,0.4,0.9,0.1,-3.75,-4.14,8.65
2024-12-06 13:20:05.993,97.88,661.0,0.4,0.95,0.07,-2.4,-4.57,9.14
2024-12-06 13:20:05.996,100.57,665.0,0.42,0.93,0.06,-1.73,-2.49,8.16
2024-12-06 13:20:06.9,99.67,648.0,0.42,0.9,0.06,-0.63,-1.94,6.33
2024-12-06 13:20:06.11,94.72,664.0,0.42,0.9,0.09,0.34,-2.8,4.38
2024-12-06 13:20:06.20,99.45,657.0,0.42,0.88,0.06,0.16,-3.78,3.1
2024-12-06 13:20:06.25,97.65,703.0,0.42,0.88,0.05,0.16,-3.78,3.1
2024-12-06 13:20:06.33,96.07,668.0,0.41,0.89,0.04,-0.27,-4.33,2.55
2024-12-06 13:20:06.44,100.57,647.0,0.41,0.88,0.03,-0.82,-4.57,2.42
2024-12-06 13:20:06.56,100.35,672.0,0.4,0.88,0.03,-1.0,-4.08,2.55
2024-12-06 13:20:06.61,100.12,667.0,0.4,0.88,0.03,-1.24,-4.33,2.97
2024-12-06 13:20:06.65,95.85,673.0,0.39,0.91,0.03,-1.79,-4.63,3.64
2024-12-06 13:20:06.72,100.57,677.0,0.38,0.91,0.04,-1.79,-4.63,3.64
2024-12-06 13:20:06.80,101.25,667.0,0.4,0.9,0.04,-1.43,-2.98,3.95
2024-12-06 13:20:06.87,101.92,666.0,0.41,0.9,0.05,-0.88,-2.43,4.01
2024-12-06 13:20:06.98,101.47,653.0,0.41,0.91,0.06,-0.76,-2.43,4.13
2024-12-06 13:20:06.103,100.8,669.0,0.41,0.91,0.06,-0.63,-2.49,5.41
2024-12-06 13:20:06.112,101.02,682.0,0.37,0.93,0.06,-0.15,-2.49,8.1
2024-12-06 13:20:06.120,96.07,664.0,0.36,0.91,0.07,-0.15,-2.49,8.1
2024-12-06 13:20:06.127,98.32,662.0,0.4,0.88,0.06,-0.02,-2.25,9.63
2024-12-06 13:20:06.135,100.8,666.0,0.42,0.88,0.07,-0.39,-1.82,9.99
2024-12-06 13:20:06.172,101.47,684.0,0.43,0.89,0.07,-1.0,-1.27,9.81
2024-12-06 13:20:06.176,104.4,670.0,0.44,0.9,0.06,-2.59,-0.97,9.69
2024-12-06 13:20:06.181,100.35,686.0,0.43,0.89,0.06,-2.89,-1.46,9.14
2024-12-06 13:20:06.191,100.35,681.0,0.43,0.89,0.07,-2.77,-1.82,8.65
2024-12-06 13:20:06.198,98.55,689.0,0.44,0.89,0.07,-2.59,-2.37,8.59
2024-12-06 13:20:06.207,97.42,668.0,0.43,0.9,0.06,-2.59,-2.37,8.59
2024-12-06 13:20:06.216,103.95,690.0,0.43,0.9,0.06,-2.4,-2.68,8.65
2024-12-06 13:20:06.307,102.6,678.0,0.44,0.9,0.06,-2.16,-2.98,9.14
2024-12-06 13:20:06.318,101.92,687.0,0.41,0.91,0.06,-1.06,-2.25,6.94
2024-12-06 13:20:06.326,97.65,666.0,0.4,0.91,0.05,-0.51,-1.52,7.92
2024-12-06 13:20:06.334,100.8,677.0,0.42,0.85,0.05,0.28,-0.48,8.47
2024-12-06 13:20:06.342,97.2,689.0,0.46,0.82,0.04,1.38,1.72,6.76
2024-12-06 13:20:06.349,103.95,716.0,0.47,0.85,0.04,1.5,2.33,4.93
2024-12-06 13:20:06.364,104.4,666.0,0.47,0.85,0.04,1.5,2.51,4.26
2024-12-06 13:20:06.371,99.9,676.0,0.44,0.88,0.04,1.5,2.51,4.26
2024-12-06 13:20:06.407,105.07,673.0,0.43,0.89,0.05,1.62,2.21,2.85
2024-12-06 13:20:06.410,104.4,669.0,0.42,0.91,0.06,1.56,2.27,3.64
2024-12-06 13:20:06.421,106.65,669.0,0.42,0.92,0.07,1.38,2.08,4.32
2024-12-06 13:20:06.427,104.4,655.0,0.41,0.92,0.07,1.08,1.84,4.44
2024-12-06 13:20:06.433,101.25,673.0,0.41,0.92,0.07,0.46,1.66,4.19
2024-12-06 13:20:06.441,104.85,648.0,0.42,0.92,0.07,-0.02,1.29,3.95
2024-12-06 13:20:06.449,103.95,658.0,0.43,0.91,0.06,-0.02,1.29,3.95
2024-12-06 13:20:06.458,99.22,674.0,0.43,0.9,0.06,-0.02,0.68,3.77
2024-12-06 13:20:06.466,106.2,652.0,0.43,0.89,0.06,0.1,0.01,3.64
2024-12-06 13:20:06.474,106.65,664.0,0.42,0.9,0.07,0.16,-0.66,3.77
2024-12-06 13:20:06.481,102.38,668.0,0.42,0.9,0.07,0.04,-0.97,3.83
2024-12-06 13:20:06.489,102.82,666.0,0.42,0.9,0.07,-0.08,-1.27,3.89
2024-12-06 13:20:06.500,107.55,650.0,0.42,0.9,0.06,-0.08,-1.27,3.89
2024-12-06 13:20:06.505,104.17,668.0,0.42,0.89,0.06,-0.27,-1.52,3.71
2024-12-06 13:20:06.512,102.38,640.0,0.42,0.88,0.05,-0.39,-1.82,3.46
2024-12-06 13:20:06.523,101.92,665.0,0.42,0.87,0.05,-0.27,-1.82,3.1
2024-12-06 13:20:06.532,103.95,656.0,0.42,0.87,0.05,-0.21,-1.21,2.73
2024-12-06 13:20:06.535,102.82,660.0,0.42,0.87,0.05,-0.21,-0.6,2.55
2024-12-06 13:20:06.544,107.77,650.0,0.41,0.88,0.06,-0.21,-0.6,2.55
2024-12-06 13:20:06.552,105.52,651.0,0.41,0.88,0.06,-0.02,0.07,2.42
2024-12-06 13:20:06.559,105.75,679.0,0.42,0.89,0.05,0.22,0.86,2.3
2024-12-06 13:20:06.567,102.38,671.0,0.42,0.89,0.05,0.28,1.23,2.12
2024-12-06 13:20:06.575,102.15,673.0,0.42,0.89,0.05,0.4,1.11,1.87
2024-12-06 13:20:06.584,102.82,659.0,0.43,0.9,0.05,0.34,0.74,1.69
2024-12-06 13:20:06.592,103.27,665.0,0.43,0.9,0.05,0.34,0.74,1.69
2024-12-06 13:20:06.625,105.3,670.0,0.42,0.9,0.05,0.59,-0.05,1.94
2024-12-06 13:20:06.632,105.97,669.0,0.42,0.9,0.06,0.59,-0.05,1.94
2024-12-06 13:20:06.639,105.97,673.0,0.43,0.9,0.06,0.59,-0.17,1.94
2024-12-06 13:20:06.645,104.62,650.0,0.43,0.9,0.06,0.59,-0.11,2.06
2024-12-06 13:20:06.652,104.62,679.0,0.44,0.89,0.06,0.59,0.07,2.3
2024-12-06 13:20:06.660,105.75,678.0,0.44,0.89,0.06,0.53,0.19,2.91
2024-12-06 13:20:06.675,107.77,669.0,0.45,0.89,0.06,0.53,-0.17,3.71
2024-12-06 13:20:06.682,100.12,659.0,0.45,0.88,0.05,0.53,-0.17,3.71
2024-12-06 13:20:06.686,103.72,654.0,0.45,0.89,0.05,0.53,-0.97,4.38
2024-12-06 13:20:06.700,100.12,686.0,0.44,0.9,0.05,0.4,-1.7,4.62
2024-12-06 13:20:06.704,105.52,662.0,0.44,0.91,0.05,0.4,-1.88,4.74
2024-12-06 13:20:06.708,107.32,676.0,0.44,0.91,0.05,0.53,-1.76,4.68
2024-12-06 13:20:06.717,97.88,654.0,0.43,0.91,0.05,0.53,-1.15,4.87
2024-12-06 13:20:06.727,104.85,665.0,0.43,0.9,0.05,0.65,-1.15,4.87
2024-12-06 13:20:06.733,107.77,674.0,0.44,0.89,0.05,0.71,-0.36,5.17
2024-12-06 13:20:06.740,100.8,672.0,0.44,0.88,0.05,0.89,0.25,5.6
2024-12-06 13:20:06.746,100.35,671.0,0.44,0.88,0.04,1.01,0.68,6.03
2024-12-06 13:20:06.755,103.27,673.0,0.44,0.88,0.04,0.89,0.92,6.27
2024-12-06 13:20:06.762,102.38,666.0,0.44,0.89,0.04,0.89,0.92,6.27
2024-12-06 13:20:06.771,102.38,688.0,0.44,0.89,0.04,0.77,0.86,6.27
2024-12-06 13:20:06.781,100.57,688.0,0.43,0.9,0.04,0.77,0.62,6.27
2024-12-06 13:20:06.789,103.27,675.0,0.43,0.9,0.04,0.83,0.37,6.15
2024-12-06 13:20:06.797,107.1,675.0,0.43,0.9,0.04,0.95,0.19,5.96
2024-12-06 13:20:06.811,99.22,651.0,0.43,0.9,0.04,1.01,0.31,5.9
2024-12-06 13:20:06.814,107.1,663.0,0.43,0.89,0.04,1.01,0.31,5.9
2024-12-06 13:20:06.817,101.02,653.0,0.43,0.89,0.04,1.14,0.56,5.9
2024-12-06 13:20:06.830,105.75,671.0,0.42,0.89,0.04,1.14,0.99,5.84
2024-12-06 13:20:06.835,103.27,663.0,0.43,0.89,0.05,1.08,1.35,5.84
2024-12-06 13:20:06.841,101.92,655.0,0.43,0.89,0.05,0.95,1.78,5.84
2024-12-06 13:20:06.848,106.42,645.0,0.43,0.89,0.05,0.83,1.96,5.78
2024-12-06 13:20:06.858,103.95,645.0,0.42,0.89,0.05,0.83,1.96,5.78
2024-12-06 13:20:06.868,105.75,666.0,0.42,0.89,0.05,0.89,1.96,5.84
2024-12-06 13:20:06.877,105.52,654.0,0.43,0.89,0.05,1.08,1.96,5.9
2024-12-06 13:20:06.880,101.92,651.0,0.43,0.89,0.05,1.32,1.96,5.84
2024-12-06 13:20:06.888,103.5,650.0,0.43,0.89,0.05,1.56,1.78,5.84
2024-12-06 13:20:06.895,106.88,668.0,0.43,0.89,0.05,1.75,1.6,5.66
2024-12-06 13:20:06.903,104.4,671.0,0.43,0.89,0.05,1.75,1.47,5.48
2024-12-06 13:20:06.917,101.47,672.0,0.42,0.89,0.05,1.75,1.47,5.48
2024-12-06 13:20:06.962,107.77,673.0,0.42,0.89,0.06,1.69,1.41,5.17
2024-12-06 13:20:06.966,105.07,662.0,0.43,0.88,0.06,2.36,2.33,4.19
2024-12-06 13:20:06.972,105.52,662.0,0.43,0.88,0.06,2.3,2.39,4.13
2024-12-06 13:20:06.980,107.55,666.0,0.43,0.88,0.06,2.17,2.33,4.13
2024-12-06 13:20:06.990,105.3,679.0,0.43,0.88,0.06,2.17,2.21,4.07
2024-12-06 13:20:06.996,102.38,670.0,0.43,0.89,0.06,1.93,2.21,4.07
2024-12-06 13:20:07.4,107.32,674.0,0.43,0.89,0.06,1.75,1.9,3.95
2024-12-06 13:20:07.13,102.82,662.0,0.43,0.89,0.06,1.69,1.66,3.95
2024-12-06 13:20:07.128,106.42,659.0,0.43,0.9,0.05,0.65,1.05,3.77
2024-12-06 13:20:07.133,103.5,663.0,0.43,0.9,0.05,0.59,1.23,3.52
2024-12-06 13:20:07.140,105.3,662.0,0.43,0.9,0.05,0.71,1.6,3.34
2024-12-06 13:20:07.148,105.07,650.0,0.43,0.9,0.05,0.71,1.6,3.34
2024-12-06 13:20:07.156,105.3,659.0,0.43,0.89,0.05,0.89,1.9,3.4
2024-12-06 13:20:07.164,104.62,650.0,0.44,0.89,0.05,1.2,2.08,3.64
2024-12-06 13:20:07.173,107.77,638.0,0.44,0.89,0.05,1.62,2.21,4.01
2024-12-06 13:20:07.183,103.72,654.0,0.44,0.89,0.05,1.81,2.39,4.32
2024-12-06 13:20:07.188,107.1,663.0,0.44,0.89,0.05,1.99,2.27,4.44
2024-12-06 13:20:07.196,104.62,672.0,0.44,0.88,0.05,1.99,2.27,4.44
2024-12-06 13:20:07.209,105.75,657.0,0.43,0.88,0.05,2.05,1.96,4.44
2024-12-06 13:20:07.211,107.32,658.0,0.43,0.89,0.05,2.11,1.72,4.44
2024-12-06 13:20:07.220,105.3,660.0,0.43,0.89,0.05,2.05,1.53,4.38
2024-12-06 13:20:07.227,106.2,657.0,0.43,0.89,0.05,2.05,1.66,4.38
2024-12-06 13:20:07.236,101.47,652.0,0.43,0.89,0.05,2.17,1.84,4.44
2024-12-06 13:20:07.247,102.15,660.0,0.44,0.89,0.05,2.17,1.84,4.44
2024-12-06 13:20:07.252,107.1,656.0,0.43,0.89,0.05,2.11,1.6,4.44
2024-12-06 13:20:07.258,108.0,651.0,0.42,0.89,0.05,1.75,1.35,4.13
2024-12-06 13:20:07.359,105.07,665.0,0.42,0.89,0.05,1.26,1.66,3.95
2024-12-06 13:20:07.365,108.0,662.0,0.42,0.89,0.05,0.4,-0.54,3.22
2024-12-06 13:20:07.371,107.32,665.0,0.43,0.89,0.05,0.34,-0.11,3.16
2024-12-06 13:20:07.385,108.0,645.0,0.43,0.89,0.05,0.46,0.31,3.22
2024-12-06 13:20:07.389,105.97,670.0,0.43,0.89,0.04,0.83,0.74,3.4
2024-12-06 13:20:07.395,102.82,659.0,0.43,0.89,0.04,1.01,1.23,3.52
2024-12-06 13:20:07.404,102.15,662.0,0.43,0.89,0.04,1.01,1.23,3.52
2024-12-06 13:20:07.411,102.6,657.0,0.43,0.89,0.04,1.14,1.41,3.64
2024-12-06 13:20:07.418,105.75,639.0,0.43,0.89,0.04,1.14,1.29,3.52
2024-12-06 13:20:07.427,102.38,657.0,0.42,0.89,0.04,1.08,1.41,3.28
2024-12-06 13:20:07.434,103.5,657.0,0.42,0.89,0.04,0.95,1.53,3.16
2024-12-06 13:20:07.441,102.15,671.0,0.43,0.9,0.04,0.95,1.66,3.1
2024-12-06 13:20:07.449,104.4,662.0,0.43,0.9,0.04,0.95,1.66,3.1
2024-12-06 13:20:07.457,98.55,652.0,0.43,0.9,0.04,0.95,1.66,3.03
2024-12-06 13:20:07.465,108.22,649.0,0.43,0.9,0.04,1.14,1.78,3.03
2024-12-06 13:20:07.473,105.07,652.0,0.43,0.9,0.04,1.26,2.02,3.16
2024-12-06 13:20:07.481,105.52,672.0,0.43,0.9,0.04,1.32,2.21,3.34
2024-12-06 13:20:07.489,105.07,650.0,0.43,0.89,0.04,1.44,2.08,3.46
2024-12-06 13:20:07.497,106.2,652.0,0.43,0.89,0.04,1.44,2.08,3.46
2024-12-06 13:20:07.505,107.55,649.0,0.43,0.89,0.04,1.44,1.6,3.52
2024-12-06 13:20:07.513,108.22,655.0,0.43,0.89,0.05,1.26,1.41,3.58
2024-12-06 13:20:07.522,105.52,659.0,0.43,0.89,0.05,1.08,1.41,3.71
2024-12-06 13:20:07.532,106.42,642.0,0.43,0.89,0.05,0.89,1.29,3.89
2024-12-06 13:20:07.590,102.82,647.0,0.42,0.9,0.05,0.22,-0.36,4.26
2024-12-06 13:20:07.598,104.85,642.0,0.41,0.91,0.04,-0.02,-0.42,3.28
2024-12-06 13:20:07.607,105.75,650.0,0.41,0.91,0.04,-0.21,-0.48,2.79
2024-12-06 13:20:07.613,106.88,644.0,0.42,0.91,0.04,-0.51,-0.6,2.42
2024-12-06 13:20:07.622,108.0,650.0,0.42,0.91,0.04,-0.51,-0.6,2.12
2024-12-06 13:20:07.629,104.85,650.0,0.42,0.91,0.05,-0.7,-0.91,2.12
2024-12-06 13:20:07.650,105.52,660.0,0.43,0.9,0.04,-0.82,-1.88,1.94
2024-12-06 13:20:07.653,107.32,641.0,0.43,0.9,0.04,-0.57,-4.26,1.75
2024-12-06 13:20:07.659,102.15,652.0,0.43,0.9,0.04,-0.57,-4.75,1.63
2024-12-06 13:20:07.669,104.85,643.0,0.44,0.89,0.03,-0.45,-4.75,1.63
2024-12-06 13:20:07.674,105.07,631.0,0.43,0.88,0.04,-0.02,-4.87,1.26
2024-12-06 13:20:07.682,103.72,640.0,0.42,0.88,0.04,0.46,-5.3,0.65
2024-12-06 13:20:07.692,105.97,641.0,0.43,0.88,0.05,0.71,-5.79,0.29
2024-12-06 13:20:07.702,105.75,653.0,0.43,0.88,0.05,1.01,-5.55,-0.14
2024-12-06 13:20:07.706,103.5,642.0,0.44,0.87,0.05,1.2,-4.94,-1.67
2024-12-06 13:20:07.714,101.47,631.0,0.45,0.86,0.05,1.2,-4.94,-1.67
2024-12-06 13:20:07.722,101.92,631.0,0.46,0.88,0.05,0.89,-4.14,-3.56
2024-12-06 13:20:07.731,103.72,619.0,0.44,0.89,0.04,0.65,-3.53,-4.66
2024-12-06 13:20:07.738,107.77,644.0,0.43,0.88,0.04,0.71,-3.29,-4.96
2024-12-06 13:20:07.767,104.85,626.0,0.43,0.87,0.04,1.32,-3.53,-3.86
2024-12-06 13:20:07.769,104.62,611.0,0.42,0.88,0.05,1.87,-3.84,-2.76
2024-12-06 13:20:07.789,108.0,622.0,0.41,0.89,0.05,2.17,-3.78,-1.6
2024-12-06 13:20:07.792,105.75,621.0,0.41,0.89,0.05,1.99,-4.75,-0.02
2024-12-06 13:20:07.807,99.67,612.0,0.41,0.92,0.05,1.56,-5.55,0.47
2024-12-06 13:20:07.816,103.27,610.0,0.42,0.92,0.04,0.95,-5.85,0.41
2024-12-06 13:20:07.823,107.55,612.0,0.42,0.92,0.04,0.28,-6.1,-0.08
2024-12-06 13:20:07.830,106.42,630.0,0.42,0.92,0.04,-0.15,-6.52,-0.2
2024-12-06 13:20:07.838,102.82,603.0,0.41,0.94,0.03,-0.88,-8.54,1.51
2024-12-06 13:20:07.851,101.25,617.0,0.38,0.97,0.04,-0.88,-8.54,1.51
2024-12-06 13:20:07.854,101.7,673.0,0.37,0.98,0.04,-1.61,-10.79,3.64
2024-12-06 13:20:07.862,104.85,610.0,0.37,0.96,0.03,-2.1,-11.41,4.87
2024-12-06 13:20:07.881,100.12,604.0,0.37,0.95,0.03,-2.59,-11.83,6.15
2024-12-06 13:20:07.884,103.05,591.0,0.37,0.91,0.02,-2.77,-12.32,7.25
2024-12-06 13:20:07.889,103.27,610.0,0.39,0.92,0.02,-2.95,-13.24,8.28
2024-12-06 13:20:07.893,104.4,595.0,0.4,0.92,0.02,-2.95,-13.24,8.28
2024-12-06 13:20:07.906,99.9,590.0,0.41,0.9,0.02,-3.26,-14.52,9.08
2024-12-06 13:20:07.911,100.12,588.0,0.41,0.89,0.02,-3.14,-14.82,9.32
2024-12-06 13:20:07.920,95.85,586.0,0.42,0.88,0.01,-2.77,-14.58,9.02
2024-12-06 13:20:07.924,94.95,588.0,0.42,0.88,0.01,-2.59,-13.85,8.89
2024-12-06 13:20:07.937,100.35,577.0,0.42,0.89,-0.0,-2.71,-12.87,8.83
2024-12-06 13:20:07.940,97.65,576.0,0.42,0.9,0.01,-2.71,-12.87,8.83
2024-12-06 13:20:07.948,99.67,582.0,0.4,0.88,0.02,-2.34,-12.2,8.1
2024-12-06 13:20:07.988,98.77,587.0,0.4,0.86,0.02,-1.73,-9.64,6.82
2024-12-06 13:20:07.991,94.95,591.0,0.4,0.89,0.04,-1.67,-8.54,5.23
2024-12-06 13:20:07.994,97.42,574.0,0.39,0.87,0.02,-0.94,-7.38,4.32
2024-12-06 13:20:08.2,97.42,586.0,0.38,0.87,0.0,-0.39,-4.87,2.85
2024-12-06 13:20:08.9,96.07,583.0,0.38,0.87,0.0,-0.33,-3.1,1.81
2024-12-06 13:20:08.18,94.95,580.0,0.38,0.89,0.01,-0.33,-2.49,1.39
2024-12-06 13:20:08.25,96.75,569.0,0.38,0.9,0.02,-0.33,-2.49,1.39
2024-12-06 13:20:08.35,93.82,568.0,0.38,0.89,0.03,0.22,-1.58,1.14
2024-12-06 13:20:08.45,92.47,585.0,0.39,0.89,0.03,0.83,-0.6,0.9
2024-12-06 13:20:08.49,92.92,566.0,0.4,0.89,0.02,1.01,0.31,0.65
2024-12-06 13:20:08.71,90.9,570.0,0.4,0.89,0.01,1.01,1.35,0.04
2024-12-06 13:20:08.75,94.95,583.0,0.4,0.88,0.01,1.01,1.35,0.04
2024-12-06 13:20:08.79,94.27,578.0,0.4,0.89,0.02,1.08,0.74,-0.32
2024-12-06 13:20:08.93,89.1,573.0,0.4,0.89,0.01,1.26,0.44,-0.57
2024-12-06 13:20:08.98,92.25,561.0,0.4,0.89,0.01,1.44,0.56,-0.75
2024-12-06 13:20:08.104,90.9,574.0,0.4,0.91,0.02,1.5,0.8,-0.81
2024-12-06 13:20:08.122,90.22,581.0,0.4,0.92,0.04,1.56,0.31,-0.87
2024-12-06 13:20:08.133,89.77,574.0,0.4,0.92,0.04,1.5,0.19,-0.99
2024-12-06 13:20:08.138,91.12,552.0,0.4,0.91,0.03,1.69,0.19,-1.24
2024-12-06 13:20:08.142,87.52,574.0,0.4,0.91,0.03,1.99,1.11,-1.48
2024-12-06 13:20:08.149,91.8,564.0,0.41,0.89,0.02,1.99,1.11,-1.48
2024-12-06 13:20:08.159,88.88,563.0,0.42,0.89,0.02,2.23,1.47,-1.48
2024-12-06 13:20:08.170,88.42,557.0,0.43,0.89,0.01,2.48,2.33,-1.3
2024-12-06 13:20:08.172,87.75,568.0,0.42,0.89,0.01,2.85,2.69,-0.93
2024-12-06 13:20:08.222,88.65,578.0,0.42,0.9,0.02,2.91,2.08,-0.32
2024-12-06 13:20:08.227,84.6,573.0,0.41,0.93,0.02,0.71,-1.21,2.0
2024-12-06 13:20:08.235,82.12,562.0,0.4,0.93,0.02,0.71,-1.21,2.0
2024-12-06 13:20:08.249,87.07,576.0,0.41,0.92,0.02,0.77,-2.13,2.49
2024-12-06 13:20:08.252,86.85,567.0,0.41,0.9,0.01,1.26,-2.31,2.61
2024-12-06 13:20:08.257,80.55,562.0,0.41,0.89,0.02,1.44,-1.94,2.3
2024-12-06 13:20:08.264,85.72,564.0,0.41,0.89,0.02,1.08,-2.13,2.36
2024-12-06 13:20:08.274,85.5,571.0,0.41,0.91,0.01,1.08,-2.13,2.79
2024-12-06 13:20:08.284,85.05,579.0,0.41,0.92,0.01,0.71,-2.43,2.79
2024-12-06 13:20:08.287,83.03,576.0,0.4,0.91,0.01,1.01,-2.92,2.97
2024-12-06 13:20:08.302,81.22,546.0,0.4,0.91,0.01,1.14,-2.74,2.91
2024-12-06 13:20:08.304,83.25,551.0,0.4,0.93,-0.0,0.46,-2.13,3.28
2024-12-06 13:20:08.316,81.0,559.0,0.4,0.93,-0.0,0.46,-1.64,3.52
2024-12-06 13:20:08.438,65.03,562.0,0.39,0.89,0.01,1.2,0.74,3.95
2024-12-06 13:20:08.442,71.1,553.0,0.4,0.89,0.01,1.5,2.02,3.34
2024-12-06 13:20:08.444,69.97,546.0,0.41,0.89,0.0,1.99,2.57,3.34
2024-12-06 13:20:08.453,68.17,542.0,0.41,0.89,0.0,1.99,3.12,3.46
2024-12-06 13:20:08.464,70.88,541.0,0.41,0.91,0.0,1.99,3.12,3.52
2024-12-06 13:20:08.468,70.2,563.0,0.4,0.92,0.0,1.87,2.76,3.52
2024-12-06 13:20:08.476,69.97,538.0,0.39,0.91,0.0,2.05,2.82,3.22
2024-12-06 13:20:08.483,69.53,554.0,0.39,0.9,-0.01,2.36,3.98,2.73
2024-12-06 13:20:08.491,66.15,538.0,0.39,0.9,0.0,2.54,5.07,2.3
2024-12-06 13:20:08.499,65.47,528.0,0.39,0.9,0.0,2.3,4.53,2.55
2024-12-06 13:20:08.507,65.92,589.0,0.4,0.92,0.02,2.3,4.53,2.55
2024-12-06 13:20:08.515,70.42,530.0,0.39,0.9,0.01,2.85,4.1,2.67
2024-12-06 13:20:08.523,70.2,535.0,0.39,0.89,0.0,3.64,4.04,2.3
2024-12-06 13:20:08.534,65.03,534.0,0.39,0.9,-0.0,3.52,4.46,1.81
2024-12-06 13:20:08.538,64.8,543.0,0.39,0.9,-0.0,3.46,5.07,1.26
2024-12-06 13:20:08.546,67.28,528.0,0.39,0.9,-0.01,3.64,4.28,1.2
2024-12-06 13:20:08.554,68.4,540.0,0.39,0.9,0.0,3.64,4.28,1.2
2024-12-06 13:20:08.561,66.15,529.0,0.4,0.9,0.01,4.13,2.94,1.2
2024-12-06 13:20:08.569,64.57,552.0,0.39,0.89,-0.01,4.31,2.69,1.14
2024-12-06 13:20:08.577,61.65,552.0,0.39,0.91,-0.01,4.19,3.12,0.84
2024-12-06 13:20:08.592,64.35,533.0,0.39,0.91,-0.01,3.64,3.37,1.08
2024-12-06 13:20:08.605,63.67,533.0,0.37,0.94,-0.0,3.64,3.73,1.39
2024-12-06 13:20:08.617,60.3,590.0,0.38,0.92,0.0,3.64,3.98,1.08
2024-12-06 13:20:08.622,62.77,526.0,0.38,0.92,0.0,3.27,4.65,1.2
2024-12-06 13:20:08.634,61.65,521.0,0.38,0.92,0.01,3.15,4.28,1.51
2024-12-06 13:20:08.665,65.92,531.0,0.38,0.91,0.01,3.03,3.73,1.69
2024-12-06 13:20:08.669,58.05,539.0,0.39,0.9,0.01,2.48,3.98,1.63
2024-12-06 13:20:08.680,58.72,525.0,0.39,0.91,0.01,2.48,3.98,1.63
2024-12-06 13:20:08.687,62.77,542.0,0.39,0.91,0.01,2.17,3.61,1.75
2024-12-06 13:20:08.692,60.75,548.0,0.39,0.9,0.02,2.23,2.51,1.81
2024-12-06 13:20:08.729,56.47,524.0,0.39,0.91,0.0,1.75,2.94,1.33
2024-12-06 13:20:08.733,56.02,535.0,0.38,0.9,0.01,1.93,2.33,1.57
2024-12-06 13:20:08.737,55.57,533.0,0.38,0.9,0.01,2.3,1.53,1.33
2024-12-06 13:20:08.745,50.85,519.0,0.38,0.9,0.01,2.05,2.33,1.14
2024-12-06 13:20:08.754,53.1,535.0,0.39,0.91,-0.0,2.05,2.33,1.33
2024-12-06 13:20:08.760,53.77,523.0,0.4,0.92,0.0,1.87,2.82,1.33
2024-12-06 13:20:08.770,50.85,532.0,0.39,0.91,0.01,1.99,2.21,1.51
2024-12-06 13:20:08.778,54.9,569.0,0.38,0.9,0.01,2.42,1.72,1.2
2024-12-06 13:20:08.784,50.62,511.0,0.38,0.93,0.01,2.36,1.96,0.84
2024-12-06 13:20:08.795,42.08,535.0,0.39,0.92,0.01,2.23,2.45,0.84
2024-12-06 13:20:08.801,49.5,527.0,0.39,0.93,0.0,2.23,2.45,0.84
2024-12-06 13:20:08.809,53.32,514.0,0.38,0.92,0.01,2.42,2.14,0.78
2024-12-06 13:20:08.815,47.92,517.0,0.37,0.92,0.02,2.66,1.66,0.41
2024-12-06 13:20:08.824,46.8,507.0,0.39,0.93,0.01,2.3,2.76,0.23
2024-12-06 13:20:08.830,50.17,508.0,0.39,0.93,0.01,2.17,4.04,0.59
2024-12-06 13:20:08.851,48.82,548.0,0.36,0.92,0.01,2.54,2.94,0.59
2024-12-06 13:20:08.856,49.5,548.0,0.36,0.93,0.0,2.17,2.82,0.53
2024-12-06 13:20:08.861,43.88,522.0,0.37,0.94,-0.0,1.5,3.49,1.08
2024-12-06 13:20:08.868,44.1,527.0,0.37,0.94,-0.0,1.32,2.76,1.57
2024-12-06 13:20:08.881,45.45,483.0,0.36,0.93,-0.01,1.32,2.08,1.57
2024-12-06 13:20:08.884,45.45,511.0,0.35,0.92,-0.01,1.32,2.08,1.57
2024-12-06 13:20:08.891,42.52,530.0,0.37,0.94,-0.01,0.53,2.33,1.94
2024-12-06 13:20:08.901,43.42,519.0,0.36,0.93,-0.0,-0.02,1.66,2.49
2024-12-06 13:20:08.907,43.2,515.0,0.36,0.92,0.0,-0.02,1.11,2.61
2024-12-06 13:20:08.938,44.55,502.0,0.37,0.92,0.01,-0.02,1.29,3.16
2024-12-06 13:20:08.946,40.27,513.0,0.38,0.91,0.0,0.34,2.02,3.16
2024-12-06 13:20:08.953,39.15,507.0,0.38,0.91,0.0,0.83,2.82,3.46
2024-12-06 13:20:08.961,35.55,496.0,0.39,0.9,0.01,1.32,1.9,3.4
2024-12-06 13:20:08.969,38.47,498.0,0.37,0.9,0.02,1.32,1.9,3.4
2024-12-06 13:20:08.978,40.95,506.0,0.37,0.9,0.01,1.32,2.21,2.91
2024-12-06 13:20:08.988,37.12,502.0,0.38,0.91,0.01,1.44,3.0,2.73
2024-12-06 13:20:08.995,32.17,497.0,0.38,0.91,0.01,1.75,2.63,2.79
2024-12-06 13:20:09.0,29.92,484.0,0.38,0.91,0.01,2.17,2.88,2.61
2024-12-06 13:20:09.8,32.17,495.0,0.37,0.91,0.0,2.11,3.24,2.73
2024-12-06 13:20:09.19,33.97,514.0,0.38,0.91,-0.0,2.11,3.24,2.73
2024-12-06 13:20:09.24,32.17,505.0,0.37,0.91,0.0,2.3,2.33,2.91
2024-12-06 13:20:09.44,35.77,500.0,0.36,0.91,0.0,2.36,1.72,2.67
2024-12-06 13:20:09.48,31.05,509.0,0.38,0.93,-0.01,1.93,2.45,2.79
2024-12-06 13:20:09.50,33.3,507.0,0.38,0.93,-0.01,1.62,3.0,3.28
2024-12-06 13:20:09.54,26.32,499.0,0.37,0.93,-0.0,1.62,3.0,3.28
2024-12-06 13:20:09.62,29.47,495.0,0.35,0.93,0.0,1.69,2.21,3.28
2024-12-06 13:20:09.71,26.32,482.0,0.36,0.93,-0.01,1.38,2.63,3.16
2024-12-06 13:20:09.80,29.02,488.0,0.37,0.94,0.0,1.01,2.94,3.58
2024-12-06 13:20:09.113,27.67,502.0,0.37,0.92,0.0,1.26,1.78,3.4
2024-12-06 13:20:09.115,28.57,478.0,0.38,0.92,0.0,0.95,3.3,3.52
2024-12-06 13:20:09.117,25.42,477.0,0.36,0.92,-0.0,1.2,2.45,3.58
2024-12-06 13:20:09.123,23.85,499.0,0.36,0.92,-0.0,1.26,2.76,3.46
2024-12-06 13:20:09.134,23.17,482.0,0.37,0.92,-0.01,0.95,3.43,4.01
2024-12-06 13:20:09.139,21.82,496.0,0.38,0.93,0.0,0.95,3.43,4.01
2024-12-06 13:20:09.151,24.97,485.0,0.36,0.92,0.0,1.08,1.6,4.32
2024-12-06 13:20:09.161,24.07,493.0,0.36,0.91,-0.0,0.89,1.47,4.26
2024-12-06 13:20:09.171,22.5,492.0,0.38,0.91,0.0,0.4,2.51,5.05
2024-12-06 13:20:09.174,23.62,491.0,0.38,0.91,0.0,0.4,1.17,5.41
2024-12-06 13:20:09.180,22.05,484.0,0.36,0.91,-0.0,0.4,1.17,5.72
2024-12-06 13:20:09.190,23.17,482.0,0.38,0.91,-0.01,-0.02,2.21,5.72
2024-12-06 13:20:09.193,22.95,486.0,0.38,0.92,0.01,-0.21,2.33,6.64
2024-12-06 13:20:09.200,16.42,489.0,0.37,0.92,0.0,-0.02,1.9,7.06
2024-12-06 13:20:09.208,19.8,483.0,0.37,0.92,0.01,-0.45,3.12,7.55
2024-12-06 13:20:09.254,20.92,476.0,0.39,0.93,0.01,-0.7,3.12,8.16
2024-12-06 13:20:09.258,19.35,480.0,0.39,0.91,0.0,-0.21,2.82,8.41
2024-12-06 13:20:09.264,13.72,466.0,0.39,0.91,-0.0,-0.21,2.82,8.41
2024-12-06 13:20:09.270,15.52,471.0,0.4,0.92,0.0,-0.39,4.59,8.83
2024-12-06 13:20:09.278,12.6,473.0,0.38,0.92,0.02,-0.39,3.73,9.2
2024-12-06 13:20:09.287,10.8,484.0,0.39,0.92,-0.0,-0.08,4.1,9.08
2024-12-06 13:20:09.293,10.57,465.0,0.39,0.92,0.03,-0.08,5.26,9.63
2024-12-06 13:20:09.301,9.22,454.0,0.4,0.92,0.0,-0.02,4.1,9.81
2024-12-06 13:20:09.308,10.8,473.0,0.38,0.92,0.0,-0.02,4.1,9.81
2024-12-06 13:20:09.339,7.42,478.0,0.39,0.91,-0.01,-0.21,4.77,9.69
2024-12-06 13:20:09.345,8.32,469.0,0.38,0.91,0.0,0.04,5.01,9.81
2024-12-06 13:20:09.348,6.07,478.0,0.39,0.92,-0.0,0.04,5.01,9.81
2024-12-06 13:20:09.354,0.22,465.0,0.38,0.92,0.0,0.34,5.26,10.18
2024-12-06 13:20:09.362,-1.12,454.0,0.37,0.91,0.01,0.77,4.34,9.81
2024-12-06 13:20:09.471,-5.4,490.0,0.34,0.87,0.03,2.66,1.05,-5.45
2024-12-06 13:20:09.496,-3.6,477.0,0.32,0.86,0.01,3.39,-0.72,-8.14
2024-12-06 13:20:09.499,-2.02,469.0,0.33,0.87,0.0,3.15,-1.64,-9.72
2024-12-06 13:20:09.503,-2.7,490.0,0.34,0.89,-0.01,2.6,-1.33,-11.0
2024-12-06 13:20:09.513,-3.15,487.0,0.34,0.9,-0.01,2.11,-0.6,-11.92
2024-12-06 13:20:09.520,-5.17,483.0,0.34,0.9,-0.01,2.05,0.01,-12.04
2024-12-06 13:20:09.527,-4.72,470.0,0.35,0.91,-0.01,2.05,0.07,-11.37
2024-12-06 13:20:09.536,-2.7,481.0,0.36,0.92,-0.01,1.99,0.07,-11.37
2024-12-06 13:20:09.543,-7.2,479.0,0.36,0.93,-0.01,1.93,0.44,-10.52
2024-12-06 13:20:09.551,-5.85,492.0,0.37,0.93,-0.01,1.75,0.74,-9.54
2024-12-06 13:20:09.558,-1.8,483.0,0.37,0.94,0.0,1.56,0.86,-8.68
2024-12-06 13:20:09.568,-1.57,484.0,0.37,0.94,0.0,1.32,0.25,-8.32
2024-12-06 13:20:09.610,-1.8,473.0,0.37,0.94,0.01,1.08,-0.6,-8.2
2024-12-06 13:20:09.614,-5.62,496.0,0.38,0.93,-0.01,0.34,-0.6,-7.95
2024-12-06 13:20:09.618,-2.7,497.0,0.39,0.93,-0.01,0.34,0.56,-7.46
2024-12-06 13:20:09.638,-5.85,501.0,0.38,0.93,-0.0,0.46,1.35,-6.67
2024-12-06 13:20:09.642,-3.82,491.0,0.37,0.94,0.01,0.59,1.47,-4.6
2024-12-06 13:20:09.649,-3.38,486.0,0.36,0.94,0.01,0.59,1.47,-4.6
2024-12-06 13:20:09.687,-12.6,484.0,0.35,0.93,-0.0,0.46,1.53,0.41
2024-12-06 13:20:09.690,-6.52,553.0,0.36,0.93,-0.01,0.46,1.53,0.41
2024-12-06 13:20:09.695,-7.2,493.0,0.36,0.94,-0.0,0.28,2.63,1.14
2024-12-06 13:20:09.705,-6.07,494.0,0.36,0.94,-0.0,0.22,3.18,2.06
2024-12-06 13:20:09.709,-6.52,498.0,0.36,0.94,-0.0,0.28,3.91,3.16
2024-12-06 13:20:09.717,-6.3,498.0,0.36,0.94,-0.0,0.53,3.85,4.26
2024-12-06 13:20:09.725,0.45,489.0,0.35,0.94,0.0,0.53,3.85,5.11
2024-12-06 13:20:09.734,-3.82,502.0,0.35,0.93,-0.0,0.71,3.73,5.11
2024-12-06 13:20:09.741,-8.32,493.0,0.35,0.93,-0.01,0.95,3.67,5.78
2024-12-06 13:20:09.748,-1.57,493.0,0.35,0.93,-0.01,0.95,3.98,6.27
2024-12-06 13:20:09.756,-4.95,492.0,0.35,0.93,-0.01,1.01,3.67,6.51
2024-12-06 13:20:09.767,-1.35,490.0,0.35,0.93,-0.01,0.95,3.43,6.82
2024-12-06 13:20:09.773,-5.85,500.0,0.35,0.93,-0.01,0.95,3.43,6.82
2024-12-06 13:20:09.780,-4.5,496.0,0.35,0.93,-0.01,0.89,3.79,7.12
2024-12-06 13:20:09.815,-6.75,487.0,0.35,0.93,-0.01,1.01,3.91,7.43
2024-12-06 13:20:09.817,-4.05,494.0,0.35,0.93,-0.01,1.69,4.34,8.47
2024-12-06 13:20:09.819,-5.62,482.0,0.34,0.93,-0.01,1.69,4.34,8.47
2024-12-06 13:20:09.825,-3.82,497.0,0.34,0.93,-0.01,1.87,4.71,8.53
2024-12-06 13:20:09.834,-5.62,494.0,0.34,0.93,-0.01,1.93,5.2,8.53
2024-12-06 13:20:09.843,-6.97,497.0,0.34,0.93,-0.0,1.87,5.2,8.59
2024-12-06 13:20:09.853,-1.12,493.0,0.34,0.93,-0.0,1.81,4.95,8.71
2024-12-06 13:20:09.858,-2.47,491.0,0.34,0.93,-0.0,1.81,4.95,8.71
2024-12-06 13:20:09.863,-4.05,498.0,0.35,0.92,-0.0,1.75,4.77,8.65
2024-12-06 13:20:09.874,-3.6,492.0,0.35,0.92,-0.0,1.69,4.4,8.59
2024-12-06 13:20:09.922,-2.25,501.0,0.35,0.91,-0.0,1.62,3.91,8.47
2024-12-06 13:20:09.925,-2.02,491.0,0.35,0.92,-0.0,1.5,3.3,6.03
2024-12-06 13:20:09.935,-6.97,506.0,0.35,0.92,-0.0,1.5,3.3,6.03
2024-12-06 13:20:09.942,-2.25,486.0,0.35,0.92,-0.0,1.38,3.55,5.54
2024-12-06 13:20:09.947,-3.6,488.0,0.35,0.92,0.0,1.44,3.67,5.17
2024-12-06 13:20:09.955,-7.65,500.0,0.35,0.92,0.0,1.56,3.55,4.93
2024-12-06 13:20:09.962,-6.52,492.0,0.35,0.92,0.0,1.5,3.24,4.56
2024-12-06 13:20:09.970,-3.15,486.0,0.34,0.92,0.0,1.5,3.24,4.56
2024-12-06 13:20:09.977,-3.15,506.0,0.34,0.92,-0.0,1.56,2.88,4.13
2024-12-06 13:20:09.985,-3.82,513.0,0.35,0.92,-0.01,1.44,2.76,3.64
2024-12-06 13:20:10.19,-5.62,491.0,0.35,0.92,-0.01,1.26,2.94,3.34
2024-12-06 13:20:10.23,-6.97,499.0,0.34,0.92,-0.01,1.01,2.76,3.4
2024-12-06 13:20:10.32,-6.97,501.0,0.34,0.92,-0.0,0.95,2.94,3.46
2024-12-06 13:20:10.40,-8.77,503.0,0.34,0.92,-0.0,0.95,3.0,3.4
2024-12-06 13:20:10.49,-8.77,490.0,0.34,0.92,-0.0,0.83,3.0,3.34
2024-12-06 13:20:10.57,-7.2,506.0,0.34,0.92,0.0,0.83,3.0,3.34
2024-12-06 13:20:10.62,-4.05,495.0,0.34,0.92,0.0,0.77,2.69,3.16
2024-12-06 13:20:10.69,-4.28,497.0,0.34,0.92,-0.0,0.65,2.63,2.91
2024-12-06 13:20:10.77,-4.05,514.0,0.35,0.92,-0.0,0.46,2.51,2.79
2024-12-06 13:20:10.86,-5.85,495.0,0.35,0.92,-0.0,0.34,2.39,2.73
2024-12-06 13:20:10.93,-4.05,489.0,0.35,0.92,-0.0,0.34,2.27,2.67
2024-12-06 13:20:10.101,-3.6,507.0,0.35,0.93,0.0,0.16,2.27,2.67
2024-12-06 13:20:10.132,-3.38,502.0,0.35,0.92,0.01,0.16,2.27,2.79
2024-12-06 13:20:10.134,-5.4,491.0,0.35,0.92,0.0,0.16,2.27,2.79
2024-12-06 13:20:10.139,-4.5,493.0,0.35,0.93,0.0,0.16,2.33,2.79
2024-12-06 13:20:10.147,-2.02,489.0,0.35,0.93,0.0,0.1,2.39,2.79
2024-12-06 13:20:10.158,-5.85,505.0,0.35,0.93,0.01,-0.02,2.21,2.73
2024-12-06 13:20:10.161,-3.6,496.0,0.35,0.93,0.01,-0.08,2.02,2.67
2024-12-06 13:20:10.172,-4.28,507.0,0.35,0.92,0.01,-0.15,1.72,2.79
2024-12-06 13:20:10.177,-3.15,495.0,0.35,0.92,0.0,-0.15,1.72,2.79
2024-12-06 13:20:10.185,-2.47,493.0,0.35,0.92,0.0,-0.27,1.41,2.91
2024-12-06 13:20:10.197,-6.52,492.0,0.35,0.92,0.0,-0.39,1.17,3.1
2024-12-06 13:20:10.205,-1.57,492.0,0.35,0.92,0.0,-0.45,1.05,3.16
2024-12-06 13:20:10.209,-6.3,516.0,0.35,0.92,0.0,-0.45,1.23,3.34
2024-12-06 13:20:10.245,-3.82,513.0,0.35,0.93,0.0,-0.33,1.72,3.77
2024-12-06 13:20:10.247,-4.28,539.0,0.35,0.93,0.0,-0.27,1.78,3.89
2024-12-06 13:20:10.253,-3.6,517.0,0.35,0.93,0.0,-0.27,1.78,3.89
2024-12-06 13:20:10.261,-1.12,497.0,0.35,0.93,0.0,-0.27,1.72,3.95
2024-12-06 13:20:10.270,-1.8,490.0,0.35,0.93,0.0,-0.33,1.66,3.89
2024-12-06 13:20:10.277,-5.85,501.0,0.35,0.93,0.01,-0.39,1.6,3.83
2024-12-06 13:20:10.283,-2.92,492.0,0.35,0.93,0.01,-0.33,1.41,3.77
2024-12-06 13:20:10.293,-6.07,493.0,0.35,0.93,0.01,-0.33,1.23,3.83
2024-12-06 13:20:10.301,-6.3,483.0,0.35,0.93,0.0,-0.33,1.23,3.83
2024-12-06 13:20:10.309,-4.28,489.0,0.35,0.92,0.0,-0.21,1.29,3.89
2024-12-06 13:20:10.319,-6.07,493.0,0.35,0.92,0.0,-0.08,1.41,3.89
2024-12-06 13:20:10.324,-3.82,494.0,0.35,0.92,0.01,0.16,1.41,3.89
2024-12-06 13:20:10.329,-4.72,504.0,0.35,0.92,0.01,0.34,1.47,3.95
2024-12-06 13:20:10.337,-3.6,486.0,0.35,0.92,0.01,0.34,1.47,3.95
2024-12-06 13:20:10.345,-3.38,504.0,0.35,0.92,0.01,0.59,1.6,4.01
2024-12-06 13:20:10.355,-3.15,495.0,0.35,0.92,0.01,0.77,1.47,4.13
2024-12-06 13:20:10.361,-2.25,506.0,0.35,0.92,0.0,0.89,1.29,4.19
2024-12-06 13:20:10.369,-0.67,495.0,0.35,0.92,0.0,0.95,1.05,4.13
2024-12-06 13:20:10.376,-9.68,497.0,0.35,0.93,0.0,0.95,1.05,4.01
2024-12-06 13:20:10.392,-3.82,503.0,0.35,0.94,0.0,0.89,0.92,4.01
2024-12-06 13:20:10.399,0.22,542.0,0.35,0.94,0.0,0.89,0.74,4.01
2024-12-06 13:20:10.501,-1.57,486.0,0.34,0.94,0.0,0.95,0.44,3.95
2024-12-06 13:20:10.517,-3.82,490.0,0.35,0.92,0.01,0.34,1.66,4.01
2024-12-06 13:20:10.520,-8.55,517.0,0.35,0.92,0.01,0.34,1.66,4.01
2024-12-06 13:20:10.525,-9.45,515.0,0.35,0.92,0.0,0.28,1.66,3.95
2024-12-06 13:20:10.534,-2.47,494.0,0.35,0.93,0.0,0.22,1.84,3.83
2024-12-06 13:20:10.564,-3.15,503.0,0.35,0.93,0.0,0.16,1.78,3.71
2024-12-06 13:20:10.566,-4.05,505.0,0.35,0.93,0.01,-0.02,1.05,3.46
2024-12-06 13:20:10.570,-3.6,509.0,0.35,0.93,0.0,-0.02,0.68,3.34
2024-12-06 13:20:10.578,-5.62,495.0,0.35,0.93,0.0,-0.02,0.62,3.22
2024-12-06 13:20:10.588,-3.38,502.0,0.35,0.93,0.0,-0.02,0.68,3.03
2024-12-06 13:20:10.602,-4.72,498.0,0.34,0.93,-0.0,0.04,1.11,2.97
2024-12-06 13:20:10.603,-1.12,494.0,0.34,0.94,-0.01,0.04,1.11,2.97
2024-12-06 13:20:10.609,-1.12,506.0,0.34,0.94,-0.01,0.22,1.6,3.1
2024-12-06 13:20:10.619,-3.6,526.0,0.34,0.93,0.0,0.4,1.78,3.28
2024-12-06 13:20:10.633,-4.5,496.0,0.33,0.92,0.0,0.71,2.76,3.46
2024-12-06 13:20:10.640,-6.75,501.0,0.33,0.93,0.0,0.71,2.76,3.46
2024-12-06 13:20:10.647,-4.5,498.0,0.34,0.93,0.01,0.71,2.94,3.52
2024-12-06 13:20:10.657,-2.02,489.0,0.34,0.93,0.01,0.77,2.94,3.64
2024-12-06 13:20:10.665,-1.12,493.0,0.35,0.93,0.0,0.83,2.76,3.77
2024-12-06 13:20:10.698,-8.77,490.0,0.35,0.92,-0.0,0.71,2.02,3.77
2024-12-06 13:20:10.700,-6.07,468.0,0.35,0.92,0.0,0.65,1.78,3.64
2024-12-06 13:20:10.708,-5.17,509.0,0.35,0.92,0.0,0.65,1.78,3.71
2024-12-06 13:20:10.715,-5.85,505.0,0.35,0.93,0.01,0.65,1.78,3.71
2024-12-06 13:20:10.729,-3.15,507.0,0.35,0.93,0.01,0.77,1.53,3.83
2024-12-06 13:20:10.732,-9.22,501.0,0.35,0.93,0.01,0.89,1.53,3.95
2024-12-06 13:20:10.738,-3.38,504.0,0.35,0.93,0.01,0.95,1.9,4.07
2024-12-06 13:20:10.747,-4.05,493.0,0.35,0.93,0.01,0.95,2.27,4.19
2024-12-06 13:20:10.754,-8.32,490.0,0.35,0.93,0.01,0.95,2.51,4.32
2024-12-06 13:20:10.774,-1.57,490.0,0.35,0.93,0.01,0.89,2.63,4.56
2024-12-06 13:20:10.780,-0.67,521.0,0.35,0.93,0.01,0.71,2.63,4.68
2024-12-06 13:20:10.794,-6.07,499.0,0.35,0.93,0.01,0.59,2.39,4.74
2024-12-06 13:20:10.798,-3.38,532.0,0.35,0.93,0.01,0.34,2.21,4.8
2024-12-06 13:20:10.801,-8.32,497.0,0.34,0.93,0.01,0.34,2.21,4.8
2024-12-06 13:20:10.809,-9.45,504.0,0.34,0.93,0.01,0.1,2.21,4.87
2024-12-06 13:20:10.815,-3.15,509.0,0.34,0.92,0.01,-0.08,2.27,4.93
2024-12-06 13:20:10.823,-1.57,500.0,0.34,0.91,0.01,-0.15,2.33,5.11
2024-12-06 13:20:10.834,-2.02,506.0,0.34,0.91,0.01,-0.21,2.51,5.29
2024-12-06 13:20:10.840,-6.3,528.0,0.35,0.91,0.01,-0.21,2.39,5.41
2024-12-06 13:20:10.847,-3.82,498.0,0.35,0.92,0.0,-0.21,2.39,5.41
2024-12-06 13:20:10.858,-0.9,506.0,0.35,0.92,0.01,-0.27,2.21,5.48
2024-12-06 13:20:10.862,-6.75,501.0,0.35,0.92,0.01,-0.33,2.08,5.48
2024-12-06 13:20:10.870,-4.72,507.0,0.35,0.93,0.01,-0.39,1.72,5.35
2024-12-06 13:20:10.878,-9.0,505.0,0.35,0.93,0.01,-0.39,1.17,5.29
2024-12-06 13:20:10.887,-1.57,495.0,0.35,0.93,0.02,-0.39,1.17,5.29
2024-12-06 13:20:10.918,-6.07,509.0,0.35,0.93,0.01,-0.39,0.56,5.29
2024-12-06 13:20:10.922,-5.85,506.0,0.35,0.93,0.01,-0.76,0.37,4.68
2024-12-06 13:20:10.926,-2.7,502.0,0.35,0.93,0.0,-0.76,0.37,4.68
2024-12-06 13:20:10.931,-3.38,513.0,0.35,0.93,0.0,-0.63,0.56,4.56
2024-12-06 13:20:10.939,-1.8,494.0,0.34,0.93,-0.0,-0.39,0.56,4.62
2024-12-06 13:20:10.967,-2.02,523.0,0.34,0.91,-0.0,0.22,1.05,4.68
2024-12-06 13:20:10.977,-3.6,509.0,0.34,0.91,-0.01,0.65,1.17,4.56
2024-12-06 13:20:10.979,-4.05,497.0,0.34,0.91,-0.01,0.95,0.62,4.38
2024-12-06 13:20:10.988,-5.17,496.0,0.34,0.91,-0.01,1.08,0.8,3.89
2024-12-06 13:20:10.995,-6.3,499.0,0.34,0.91,-0.01,1.14,0.8,3.46
2024-12-06 13:20:10.999,-3.82,496.0,0.34,0.91,-0.0,1.14,0.8,3.46
2024-12-06 13:20:11.6,-4.05,488.0,0.34,0.92,-0.01,1.01,1.29,3.16
2024-12-06 13:20:11.14,-3.38,499.0,0.33,0.93,0.0,0.95,2.27,2.79
2024-12-06 13:20:11.39,-5.17,508.0,0.33,0.93,0.01,1.01,2.45,2.67
2024-12-06 13:20:11.44,-6.75,515.0,0.34,0.94,0.01,1.44,4.04,3.1
2024-12-06 13:20:11.46,-4.05,505.0,0.34,0.94,0.01,1.44,4.04,3.1
2024-12-06 13:20:11.52,-4.28,494.0,0.34,0.94,0.01,1.5,4.83,3.28
2024-12-06 13:20:11.64,-1.8,529.0,0.35,0.93,0.01,1.38,5.14,3.4
2024-12-06 13:20:11.75,-4.05,511.0,0.35,0.93,0.01,1.14,5.68,3.34
2024-12-06 13:20:11.81,-1.8,493.0,0.35,0.93,0.01,0.83,5.01,3.4
2024-12-06 13:20:11.99,-3.82,497.0,0.36,0.93,0.02,0.83,5.01,3.4
2024-12-06 13:20:11.102,-5.4,492.0,0.36,0.93,0.02,0.34,3.49,3.46
2024-12-06 13:20:11.117,-4.72,535.0,0.36,0.93,0.02,0.1,2.76,3.34
2024-12-06 13:20:11.144,-3.15,502.0,0.37,0.91,0.02,-0.39,1.47,3.46
2024-12-06 13:20:11.150,-6.07,515.0,0.37,0.92,0.02,-0.39,1.47,3.46
2024-12-06 13:20:11.165,-5.4,507.0,0.37,0.92,0.02,-0.51,0.62,3.58
2024-12-06 13:20:11.176,-2.92,500.0,0.36,0.93,0.02,-0.88,-0.97,3.58
2024-12-06 13:20:11.182,-6.52,504.0,0.36,0.93,0.02,-1.18,-1.46,3.52
2024-12-06 13:20:11.196,-1.8,490.0,0.36,0.93,0.02,-1.37,-1.64,3.46
2024-12-06 13:20:11.201,-5.85,514.0,0.35,0.93,0.02,-1.37,-1.64,3.46
2024-12-06 13:20:11.214,-3.15,505.0,0.35,0.93,0.02,-1.55,-1.52,3.52
2024-12-06 13:20:11.218,-9.0,515.0,0.35,0.93,0.02,-1.61,-1.15,3.71
2024-12-06 13:20:11.222,-1.8,508.0,0.35,0.93,0.01,-1.55,-0.85,3.89
2024-12-06 13:20:11.232,-4.28,510.0,0.35,0.93,0.01,-1.55,-0.54,4.13
2024-12-06 13:20:11.235,-11.02,507.0,0.34,0.93,0.01,-1.55,-0.54,4.13
2024-12-06 13:20:11.244,-2.7,492.0,0.34,0.93,0.01,-1.55,-0.24,4.19
2024-12-06 13:20:11.250,-3.6,497.0,0.34,0.93,0.01,-1.55,0.19,4.26
2024-12-06 13:20:11.258,-6.07,505.0,0.34,0.93,0.0,-1.55,0.8,4.26
2024-12-06 13:20:11.265,-6.97,481.0,0.34,0.93,0.0,-1.61,1.41,4.32
2024-12-06 13:20:11.273,-4.72,511.0,0.34,0.93,0.0,-1.61,1.96,4.5
2024-12-06 13:20:11.282,-1.57,489.0,0.34,0.93,0.0,-1.61,1.96,4.5
2024-12-06 13:20:11.297,-3.6,500.0,0.34,0.94,0.01,-1.55,2.51,4.99
2024-12-06 13:20:11.299,-2.25,501.0,0.34,0.94,0.01,-1.31,2.94,5.66
2024-12-06 13:20:11.303,-6.97,503.0,0.34,0.94,0.0,-1.06,3.24,6.21
2024-12-06 13:20:11.313,-3.82,484.0,0.34,0.94,0.0,-0.94,3.24,6.51
2024-12-06 13:20:11.319,-3.38,497.0,0.35,0.94,0.0,-0.94,3.24,6.51
2024-12-06 13:20:11.327,-4.05,506.0,0.35,0.93,-0.01,-0.88,3.37,6.57
2024-12-06 13:20:11.337,-4.05,522.0,0.35,0.93,-0.0,-0.82,3.3,6.51
2024-12-06 13:20:11.344,-3.6,506.0,0.35,0.92,0.0,-0.76,2.76,6.45
2024-12-06 13:20:11.371,-5.4,506.0,0.36,0.92,0.01,-0.33,1.41,6.88
2024-12-06 13:20:11.373,-4.05,512.0,0.36,0.92,0.01,-0.15,0.68,7.0
2024-12-06 13:20:11.386,-4.28,508.0,0.37,0.92,0.01,0.04,0.44,7.0
2024-12-06 13:20:11.388,-4.05,505.0,0.37,0.92,0.01,0.28,0.99,7.0
2024-12-06 13:20:11.395,-5.85,498.0,0.37,0.93,0.02,0.28,0.99,7.0
2024-12-06 13:20:11.402,-1.8,508.0,0.36,0.93,0.02,0.59,0.92,7.06
2024-12-06 13:20:11.411,-4.05,508.0,0.36,0.94,0.02,0.83,1.9,6.94
2024-12-06 13:20:11.424,-6.75,513.0,0.35,0.94,0.03,1.08,2.21,6.82
2024-12-06 13:20:11.428,-0.9,550.0,0.35,0.94,0.03,0.89,1.96,6.09
2024-12-06 13:20:11.439,-1.35,529.0,0.34,0.93,0.04,0.89,1.96,6.09
2024-12-06 13:20:11.442,-7.88,509.0,0.33,0.93,0.04,0.53,1.41,4.99
2024-12-06 13:20:11.447,-2.25,495.0,0.34,0.92,0.03,0.46,1.35,4.13
2024-12-06 13:20:11.457,-7.88,511.0,0.35,0.92,0.01,0.83,0.68,3.77
2024-12-06 13:20:11.549,-0.9,503.0,0.35,0.92,0.01,1.26,0.92,3.83
2024-12-06 13:20:11.560,-2.02,521.0,0.37,0.93,0.02,0.95,2.88,8.41
2024-12-06 13:20:11.572,0.45,507.0,0.37,0.93,0.02,0.53,1.96,8.77
2024-12-06 13:20:11.576,-1.57,538.0,0.37,0.94,0.01,0.53,1.96,8.77
2024-12-06 13:20:11.584,-3.15,520.0,0.37,0.93,0.02,0.16,1.78,9.02
2024-12-06 13:20:11.601,0.22,512.0,0.37,0.91,0.01,0.59,1.66,9.38
2024-12-06 13:20:11.605,3.15,507.0,0.37,0.91,0.01,0.89,1.96,9.44
2024-12-06 13:20:11.613,-2.02,513.0,0.37,0.91,0.01,1.01,2.51,9.32
2024-12-06 13:20:11.620,2.25,493.0,0.37,0.9,0.01,1.01,2.51,9.32
2024-12-06 13:20:11.629,-1.12,516.0,0.36,0.9,0.01,0.95,2.69,8.95
2024-12-06 13:20:11.660,3.82,511.0,0.36,0.91,0.01,0.77,0.8,7.86
2024-12-06 13:20:11.671,1.57,522.0,0.36,0.91,0.02,0.46,0.8,7.55
2024-12-06 13:20:11.674,-2.92,510.0,0.35,0.91,0.03,0.1,0.56,6.94
2024-12-06 13:20:11.682,2.02,509.0,0.35,0.9,0.03,-0.27,0.31,6.09
2024-12-06 13:20:11.692,3.38,524.0,0.35,0.9,0.03,-0.45,-0.17,5.6
2024-12-06 13:20:11.700,0.9,513.0,0.36,0.9,0.03,-0.63,-0.48,5.54
2024-12-06 13:20:11.705,-0.22,512.0,0.37,0.91,0.03,-0.63,-0.48,5.54
2024-12-06 13:20:11.713,0.45,531.0,0.37,0.91,0.02,-1.12,-0.48,5.66
2024-12-06 13:20:11.721,5.85,514.0,0.35,0.9,0.02,-1.43,-0.54,5.29
2024-12-06 13:20:11.733,6.3,526.0,0.34,0.9,0.01,-1.79,-0.05,4.44
2024-12-06 13:20:11.745,4.5,525.0,0.34,0.9,0.01,-2.1,1.6,3.95
2024-12-06 13:20:11.748,4.72,545.0,0.36,0.9,0.01,-1.92,2.27,4.44
2024-12-06 13:20:11.752,4.28,529.0,0.37,0.91,0.0,-1.92,2.27,4.44
2024-12-06 13:20:11.760,5.62,519.0,0.37,0.93,0.01,-1.61,3.18,5.17
2024-12-06 13:20:11.768,0.67,521.0,0.35,0.93,0.03,-1.55,2.94,5.54
2024-12-06 13:20:11.776,6.07,520.0,0.34,0.93,0.04,-1.55,1.47,4.8
2024-12-06 13:20:11.784,4.95,539.0,0.34,0.93,0.04,-1.79,1.9,3.95
2024-12-06 13:20:11.824,5.4,526.0,0.36,0.91,0.01,-1.98,6.72,0.78
2024-12-06 13:20:11.834,12.6,532.0,0.37,0.91,0.03,-1.98,6.72,0.53
2024-12-06 13:20:11.858,16.2,545.0,0.34,0.91,0.05,-1.31,2.88,0.53
2024-12-06 13:20:11.861,3.82,542.0,0.37,0.9,0.02,-1.67,-1.52,-0.14
2024-12-06 13:20:11.872,17.77,532.0,0.35,0.9,0.03,-1.67,-1.52,-0.75
2024-12-06 13:20:11.876,16.88,537.0,0.36,0.91,0.02,-2.1,-2.74,-0.75
2024-12-06 13:20:11.895,19.12,535.0,0.35,0.9,0.02,-1.18,-5.18,-1.54
2024-12-06 13:20:11.913,21.6,573.0,0.38,0.92,0.02,-2.04,-4.08,-1.24
2024-12-06 13:20:11.920,19.35,552.0,0.36,0.93,0.04,-2.04,-4.08,-1.24
2024-12-06 13:20:11.924,18.67,562.0,0.35,0.91,0.01,-1.24,-3.9,-1.54
2024-12-06 13:20:11.934,26.1,557.0,0.36,0.91,0.01,-0.88,-2.43,-1.42
2024-12-06 13:20:11.938,24.07,546.0,0.35,0.92,0.02,-0.39,-3.9,-1.54
2024-12-06 13:20:11.950,22.05,562.0,0.35,0.92,0.02,-0.57,-2.01,-1.6
2024-12-06 13:20:11.953,26.1,544.0,0.36,0.92,0.02,-0.21,-2.8,-2.34
2024-12-06 13:20:11.961,22.27,552.0,0.36,0.92,0.02,-0.21,-2.8,-2.34
2024-12-06 13:20:11.969,27.45,560.0,0.37,0.94,0.02,-0.39,-0.48,-2.09
2024-12-06 13:20:11.981,25.2,580.0,0.37,0.94,0.03,-0.39,-1.46,-1.97
2024-12-06 13:20:11.985,27.67,553.0,0.36,0.94,0.01,-0.21,-0.78,-2.46
2024-12-06 13:20:11.993,29.7,551.0,0.36,0.94,0.01,-1.0,-0.48,-1.42
2024-12-06 13:20:12.0,27.45,579.0,0.36,0.94,0.04,-0.33,-1.7,-2.15
2024-12-06 13:20:12.12,31.5,563.0,0.35,0.93,0.0,-0.33,-1.7,-2.15
2024-12-06 13:20:12.16,27.45,555.0,0.35,0.92,0.0,-0.45,1.41,-1.79
2024-12-06 13:20:12.24,34.65,572.0,0.34,0.91,0.02,-0.15,-1.52,-2.4
2024-12-06 13:20:12.34,27.0,564.0,0.34,0.94,0.02,-0.76,0.44,-1.6
2024-12-06 13:20:12.49,33.08,580.0,0.33,0.94,0.04,0.1,-2.43,0.04
2024-12-06 13:20:12.54,36.22,552.0,0.34,0.93,0.0,0.1,-2.43,0.04
2024-12-06 13:20:12.87,36.45,558.0,0.35,0.93,-0.0,-0.08,-4.39,1.14
2024-12-06 13:20:12.95,40.27,561.0,0.33,0.92,0.02,-0.08,-4.39,1.14
2024-12-06 13:20:12.101,40.05,583.0,0.33,0.91,0.0,0.34,-3.71,0.41
2024-12-06 13:20:12.108,40.95,565.0,0.35,0.93,0.02,-0.02,-2.62,0.78
2024-12-06 13:20:12.118,40.05,568.0,0.34,0.94,0.03,-0.33,-4.2,1.2
2024-12-06 13:20:12.124,42.52,560.0,0.34,0.94,0.03,-0.08,-2.56,1.39
2024-12-06 13:20:12.143,45.9,564.0,0.34,0.93,0.02,0.22,-1.52,2.0
2024-12-06 13:20:12.150,43.42,580.0,0.33,0.93,0.03,0.53,-3.29,2.0
2024-12-06 13:20:12.155,43.2,576.0,0.34,0.95,0.01,0.04,-1.88,2.36
2024-12-06 13:20:12.164,45.45,572.0,0.33,0.93,0.02,0.16,-1.64,2.55
2024-12-06 13:20:12.180,46.57,571.0,0.33,0.93,0.02,0.46,-2.37,2.06
2024-12-06 13:20:12.187,45.22,571.0,0.35,0.95,0.02,-0.57,-1.94,2.85
2024-12-06 13:20:12.198,50.17,580.0,0.32,0.93,0.03,-0.82,-3.1,3.28
2024-12-06 13:20:12.207,47.25,577.0,0.33,0.92,0.03,-1.0,-3.29,3.28
2024-12-06 13:20:12.211,48.82,566.0,0.33,0.92,0.03,-1.98,-2.01,4.01
2024-12-06 13:20:12.216,47.7,580.0,0.35,0.94,0.02,-1.98,-2.01,4.8
2024-12-06 13:20:12.224,45.67,581.0,0.33,0.93,0.03,-2.1,-3.47,4.8
2024-12-06 13:20:12.234,52.42,580.0,0.33,0.92,0.02,-1.61,-4.26,4.74
2024-12-06 13:20:12.240,53.77,575.0,0.36,0.95,0.02,-2.16,-2.62,4.93
2024-12-06 13:20:12.280,52.88,582.0,0.35,0.94,0.03,-2.34,-2.13,5.23
2024-12-06 13:20:12.296,51.75,580.0,0.35,0.95,0.02,-2.04,-2.43,5.17
2024-12-06 13:20:12.300,55.8,588.0,0.33,0.93,0.03,-2.04,-4.14,5.05
2024-12-06 13:20:12.304,59.17,586.0,0.33,0.93,0.02,-2.04,-4.14,5.05
2024-12-06 13:20:12.308,57.6,596.0,0.35,0.95,0.01,-2.83,-2.86,5.66
2024-12-06 13:20:12.316,58.27,577.0,0.34,0.94,0.02,-3.08,-2.56,6.88
2024-12-06 13:20:12.327,59.17,585.0,0.33,0.92,0.03,-2.47,-2.98,7.49
2024-12-06 13:20:12.335,60.07,586.0,0.33,0.92,0.03,-2.16,-2.07,7.67
2024-12-06 13:20:12.342,60.07,582.0,0.35,0.92,0.02,-2.22,-1.27,7.98
2024-12-06 13:20:12.347,59.85,586.0,0.37,0.94,0.02,-2.22,-1.27,7.98
2024-12-06 13:20:12.367,60.97,606.0,0.37,0.92,0.04,-1.31,-3.1,7.49
2024-12-06 13:20:12.375,64.57,594.0,0.38,0.93,0.03,-1.12,-2.92,6.88
2024-12-06 13:20:12.382,61.42,594.0,0.38,0.93,0.03,-1.06,-2.92,6.64
2024-12-06 13:20:12.391,62.1,581.0,0.38,0.93,0.02,-1.06,-2.92,6.64
2024-12-06 13:20:12.394,59.62,587.0,0.36,0.93,0.03,-0.63,-3.78,6.33
2024-12-06 13:20:12.403,65.92,597.0,0.35,0.93,0.03,-0.33,-4.2,6.09
2024-12-06 13:20:12.410,59.85,598.0,0.34,0.95,0.03,-0.63,-3.53,6.21
2024-12-06 13:20:12.424,62.77,609.0,0.33,0.95,0.03,-1.06,-3.17,6.88
2024-12-06 13:20:12.427,65.03,594.0,0.33,0.95,0.03,-1.06,-3.47,7.37
2024-12-06 13:20:12.433,62.1,598.0,0.32,0.94,0.03,-1.06,-3.47,7.37
2024-12-06 13:20:12.445,66.15,588.0,0.32,0.93,0.03,-1.24,-3.47,7.67
2024-12-06 13:20:12.458,68.62,595.0,0.35,0.96,0.02,-2.04,-2.31,8.53
2024-12-06 13:20:12.464,65.47,595.0,0.35,0.96,0.02,-2.22,-2.49,9.69
2024-12-06 13:20:12.472,66.38,594.0,0.34,0.96,0.03,-1.92,-2.98,10.24
2024-12-06 13:20:12.480,66.82,589.0,0.34,0.95,0.03,-1.92,-2.98,10.24
2024-12-06 13:20:12.512,69.75,604.0,0.34,0.92,0.03,-2.28,-3.9,8.77
2024-12-06 13:20:12.521,68.17,586.0,0.35,0.92,0.04,-2.28,-3.9,8.77
2024-12-06 13:20:12.527,66.6,595.0,0.35,0.92,0.04,-1.98,-4.33,8.47
2024-12-06 13:20:12.533,68.4,607.0,0.36,0.93,0.04,-1.37,-4.57,8.41
2024-12-06 13:20:12.541,71.32,590.0,0.36,0.93,0.03,-0.94,-4.63,8.34
2024-12-06 13:20:12.554,69.53,588.0,0.36,0.93,0.03,-0.63,-4.69,7.8
2024-12-06 13:20:12.559,67.95,596.0,0.35,0.91,0.03,-0.51,-4.69,6.94
2024-12-06 13:20:12.569,69.3,593.0,0.35,0.89,0.03,-0.51,-4.69,6.94
2024-12-06 13:20:12.672,70.65,621.0,0.36,0.94,0.03,-1.18,-1.88,5.54
2024-12-06 13:20:12.680,71.78,603.0,0.36,0.92,0.02,-1.18,-1.88,5.54
2024-12-06 13:20:12.686,73.35,600.0,0.37,0.91,0.02,-1.18,-1.76,5.05
2024-12-06 13:20:12.724,78.75,615.0,0.38,0.93,0.01,-1.37,-1.58,5.11
2024-12-06 13:20:12.727,75.82,610.0,0.35,0.94,0.02,-0.21,-1.82,5.41
2024-12-06 13:20:12.732,79.2,619.0,0.36,0.95,0.02,-0.63,-1.76,5.29
2024-12-06 13:20:12.744,78.97,621.0,0.36,0.95,0.01,-1.06,-1.76,5.41
2024-12-06 13:20:12.752,79.2,603.0,0.36,0.95,0.02,-0.76,-2.01,5.78
2024-12-06 13:20:12.756,79.65,615.0,0.36,0.94,0.02,-0.27,-2.8,6.21
2024-12-06 13:20:12.766,76.95,612.0,0.37,0.93,0.01,-0.27,-2.8,6.21
2024-12-06 13:20:12.778,77.62,613.0,0.36,0.94,0.01,-0.27,-3.17,6.76
2024-12-06 13:20:12.781,82.8,604.0,0.33,0.96,0.01,-0.51,-3.23,8.34
2024-12-06 13:20:12.786,78.53,610.0,0.3,0.96,0.02,-0.08,-4.02,11.82
2024-12-06 13:20:12.805,82.12,611.0,0.3,0.96,0.02,1.14,-5.42,14.33
2024-12-06 13:20:12.809,81.45,606.0,0.32,0.92,0.02,1.5,-5.06,15.36
2024-12-06 13:20:12.815,83.7,614.0,0.36,0.92,0.01,1.5,-5.06,15.36
2024-12-06 13:20:12.819,77.4,611.0,0.39,0.94,0.01,0.89,-4.33,16.03
2024-12-06 13:20:12.826,86.17,612.0,0.44,0.93,0.01,0.34,-4.51,13.72
2024-12-06 13:20:12.833,85.05,607.0,0.43,0.96,0.01,-0.7,-4.26,11.03
2024-12-06 13:20:12.843,83.03,607.0,0.43,0.96,0.01,-0.57,-6.22,10.6
2024-12-06 13:20:12.849,87.97,611.0,0.37,0.95,0.02,-0.57,-7.62,9.2
2024-12-06 13:20:12.862,83.7,609.0,0.39,0.88,0.02,-1.49,-7.62,9.2
2024-12-06 13:20:12.869,82.8,606.0,0.39,0.87,0.02,-1.67,-8.6,8.28
2024-12-06 13:20:12.876,83.7,612.0,0.38,0.9,0.02,-1.67,-9.02,8.22
2024-12-06 13:20:12.893,80.78,620.0,0.36,0.9,0.04,-1.24,-8.35,8.28
2024-12-06 13:20:12.895,82.12,622.0,0.36,0.9,0.04,-0.21,-7.74,7.92
2024-12-06 13:20:12.898,81.67,632.0,0.35,0.89,0.04,-0.21,-7.74,7.92
2024-12-06 13:20:12.904,84.6,610.0,0.36,0.9,0.02,0.1,-6.77,7.37
2024-12-06 13:20:12.911,83.92,630.0,0.36,0.9,0.01,-0.08,-6.16,6.76
2024-12-06 13:20:12.926,83.47,646.0,0.36,0.9,0.01,-0.21,-6.03,6.27
2024-12-06 13:20:12.956,86.4,610.0,0.36,0.88,0.0,-0.15,-2.49,4.5
2024-12-06 13:20:12.959,90.0,611.0,0.36,0.9,0.01,-0.21,-0.97,4.5
2024-12-06 13:20:12.965,88.65,614.0,0.35,0.92,0.01,-0.39,0.13,4.8
2024-12-06 13:20:12.973,85.72,655.0,0.35,0.92,0.01,-0.45,0.56,5.11
2024-12-06 13:20:12.981,85.95,626.0,0.36,0.93,0.02,-0.45,0.56,4.99
2024-12-06 13:20:12.991,91.35,625.0,0.37,0.91,0.02,-0.27,0.56,4.99
2024-12-06 13:20:12.998,89.55,622.0,0.38,0.89,0.01,0.16,1.41,4.38
2024-12-06 13:20:13.6,85.5,645.0,0.39,0.9,0.01,0.22,2.51,3.95
2024-12-06 13:20:13.28,90.0,652.0,0.39,0.91,0.0,0.22,3.06,4.38
2024-12-06 13:20:13.32,87.97,641.0,0.38,0.91,0.01,0.71,2.94,4.38
2024-12-06 13:20:13.35,93.38,642.0,0.38,0.9,0.01,1.56,2.39,4.38
2024-12-06 13:20:13.46,89.32,643.0,0.38,0.91,0.01,1.75,3.06,4.01
2024-12-06 13:20:13.50,88.65,661.0,0.38,0.92,0.0,1.2,3.98,4.01
2024-12-06 13:20:13.58,90.22,646.0,0.38,0.92,0.0,0.59,4.28,4.44
2024-12-06 13:20:13.72,89.1,656.0,0.39,0.92,0.01,1.32,3.43,5.05
2024-12-06 13:20:13.75,95.62,678.0,0.39,0.92,0.02,1.32,3.43,5.05
2024-12-06 13:20:13.82,96.75,647.0,0.39,0.93,0.01,1.56,3.37,5.35
2024-12-06 13:20:13.90,93.38,660.0,0.38,0.95,0.01,0.83,3.49,5.9
2024-12-06 13:20:13.97,92.02,652.0,0.38,0.95,0.01,0.22,3.18,6.45
2024-12-06 13:20:13.106,93.38,666.0,0.38,0.95,0.01,0.4,2.82,6.64
2024-12-06 13:20:13.114,95.85,668.0,0.38,0.94,0.02,0.46,2.88,6.82
2024-12-06 13:20:13.124,92.92,670.0,0.39,0.93,0.02,0.46,2.88,6.82
2024-12-06 13:20:13.145,92.7,656.0,0.38,0.93,0.03,0.04,1.72,7.06
2024-12-06 13:20:13.152,97.2,662.0,0.38,0.93,0.03,-0.08,1.11,7.43
2024-12-06 13:20:13.160,96.75,660.0,0.38,0.93,0.03,-0.08,1.11,7.43
2024-12-06 13:20:13.168,93.82,667.0,0.38,0.92,0.03,-0.02,0.86,7.43
2024-12-06 13:20:13.204,100.12,652.0,0.37,0.89,0.02,0.16,0.31,6.39
2024-12-06 13:20:13.206,98.77,662.0,0.37,0.9,0.03,0.34,0.31,6.39
2024-12-06 13:20:13.214,96.75,697.0,0.36,0.91,0.03,0.4,0.44,6.21
2024-12-06 13:20:13.226,96.52,688.0,0.36,0.92,0.02,0.22,0.62,5.96
2024-12-06 13:20:13.232,98.55,670.0,0.37,0.92,0.03,-0.08,0.56,5.54
2024-12-06 13:20:13.240,98.32,660.0,0.37,0.92,0.03,0.04,0.19,5.05
2024-12-06 13:20:13.259,100.12,668.0,0.37,0.92,0.02,0.04,0.07,4.56
2024-12-06 13:20:13.264,96.3,708.0,0.38,0.9,0.02,0.16,-0.11,4.32
2024-12-06 13:20:13.289,97.42,692.0,0.37,0.91,0.02,0.28,-0.17,4.07
2024-12-06 13:20:13.292,99.9,667.0,0.37,0.89,0.03,-0.33,0.86,3.22
2024-12-06 13:20:13.302,102.6,672.0,0.37,0.91,0.03,-0.21,0.62,3.03
2024-12-06 13:20:13.308,98.77,670.0,0.37,0.91,0.02,-0.15,0.8,2.79
2024-12-06 13:20:13.313,103.5,669.0,0.37,0.91,0.02,-0.15,1.05,2.73
2024-12-06 13:20:13.321,102.82,674.0,0.38,0.92,0.02,0.04,0.68,3.22
2024-12-06 13:20:13.329,99.22,671.0,0.38,0.93,0.02,0.04,0.68,3.22
2024-12-06 13:20:13.338,101.92,671.0,0.38,0.93,0.02,0.4,0.19,3.95
2024-12-06 13:20:13.346,99.9,693.0,0.38,0.93,0.02,0.83,-0.36,4.93
2024-12-06 13:20:13.356,103.05,691.0,0.4,0.92,0.01,1.14,-1.15,5.6
2024-12-06 13:20:13.367,104.62,690.0,0.4,0.89,0.01,1.2,-1.46,5.9
2024-12-06 13:20:13.371,102.6,679.0,0.42,0.9,0.01,1.2,-1.27,5.78
2024-12-06 13:20:13.401,104.85,673.0,0.43,0.89,0.01,1.2,-1.27,5.78
2024-12-06 13:20:13.411,101.7,704.0,0.42,0.88,0.02,1.99,-0.05,6.03
2024-12-06 13:20:13.423,106.2,673.0,0.42,0.89,0.03,2.17,-0.05,6.51
2024-12-06 13:20:13.428,103.95,701.0,0.4,0.9,0.02,2.11,-0.72,7.18
2024-12-06 13:20:13.431,105.3,689.0,0.39,0.91,0.01,1.56,0.07,7.49
2024-12-06 13:20:13.437,104.85,694.0,0.39,0.91,0.01,0.83,1.84,7.49
2024-12-06 13:20:13.457,106.88,685.0,0.39,0.91,0.01,0.65,3.37,7.49
2024-12-06 13:20:13.468,105.52,698.0,0.27,1.08,0.05,-2.4,-1.58,17.99
2024-12-06 13:20:13.476,108.45,692.0,0.35,0.9,0.03,-0.51,-1.33,18.48
2024-12-06 13:20:13.488,105.97,675.0,0.44,0.88,0.02,0.1,-0.11,17.26
2024-12-06 13:20:13.492,101.92,674.0,0.44,0.88,0.02,-1.18,0.62,16.46
2024-12-06 13:20:13.499,108.22,687.0,0.44,0.91,0.02,-1.18,0.62,16.46
2024-12-06 13:20:13.511,104.4,676.0,0.41,0.91,0.02,-1.37,-0.48,16.1
2024-12-06 13:20:13.515,103.5,668.0,0.42,0.9,0.01,-0.88,-2.25,16.1
2024-12-06 13:20:13.524,104.17,674.0,0.42,0.89,0.01,-1.12,-3.17,15.91
2024-12-06 13:20:13.534,107.1,684.0,0.42,0.89,0.01,-1.92,-3.1,15.36
2024-12-06 13:20:13.538,103.72,672.0,0.42,0.88,0.01,-2.28,-2.8,14.69
2024-12-06 13:20:13.548,105.3,664.0,0.42,0.89,0.01,-2.28,-2.8,14.69
2024-12-06 13:20:13.554,108.45,660.0,0.41,0.89,0.01,-1.92,-2.68,14.14
2024-12-06 13:20:13.568,108.45,671.0,0.42,0.89,0.01,-1.85,-2.68,13.59
2024-12-06 13:20:13.571,105.52,665.0,0.42,0.89,0.02,-1.31,-3.35,13.17
2024-12-06 13:20:13.583,103.5,680.0,0.42,0.89,0.01,-0.45,-3.23,12.13
2024-12-06 13:20:13.591,103.5,691.0,0.41,0.9,0.01,-0.51,-2.68,10.66
2024-12-06 13:20:13.595,105.97,671.0,0.41,0.89,0.01,-0.51,-2.68,10.66
2024-12-06 13:20:13.755,106.2,682.0,0.41,0.9,0.02,0.4,2.21,3.16
2024-12-06 13:20:13.759,105.97,675.0,0.42,0.89,0.02,0.28,2.94,3.4
2024-12-06 13:20:13.768,108.45,660.0,0.42,0.89,0.02,0.4,2.88,3.64
2024-12-06 13:20:13.798,103.5,666.0,0.43,0.89,0.02,0.4,2.63,3.95
2024-12-06 13:20:13.802,102.82,673.0,0.43,0.9,0.02,0.22,2.27,4.38
2024-12-06 13:20:13.804,105.75,658.0,0.43,0.9,0.02,0.16,2.33,4.5
2024-12-06 13:20:13.829,106.65,666.0,0.43,0.9,0.02,0.28,2.27,4.68
2024-12-06 13:20:13.834,107.1,669.0,0.43,0.9,0.02,0.59,2.02,4.87
2024-12-06 13:20:13.856,105.75,657.0,0.43,0.9,0.02,0.71,1.9,4.99
2024-12-06 13:20:13.859,107.77,688.0,0.42,0.9,0.02,0.53,1.72,5.11
2024-12-06 13:20:13.866,108.9,662.0,0.42,0.89,0.01,0.59,1.6,5.17
2024-12-06 13:20:13.880,105.3,652.0,0.42,0.89,0.01,0.59,1.53,5.23
2024-12-06 13:20:13.912,104.17,656.0,0.42,0.89,0.02,0.65,1.78,5.23
2024-12-06 13:20:13.918,103.5,658.0,0.41,0.89,0.02,0.71,2.08,5.05
2024-12-06 13:20:13.920,107.1,670.0,0.42,0.89,0.02,0.83,2.14,4.87
2024-12-06 13:20:13.926,96.3,673.0,0.42,0.89,0.02,0.83,2.08,4.62
2024-12-06 13:20:13.933,103.72,678.0,0.42,0.89,0.02,0.83,2.08,4.62
2024-12-06 13:20:13.941,104.4,656.0,0.42,0.89,0.02,0.83,2.08,4.44
2024-12-06 13:20:13.954,106.42,670.0,0.42,0.89,0.02,0.83,2.08,4.26
2024-12-06 13:20:13.961,105.52,657.0,0.42,0.9,0.02,0.83,2.02,4.07
2024-12-06 13:20:13.966,105.52,653.0,0.41,0.9,0.02,0.89,2.02,3.95
2024-12-06 13:20:13.975,106.65,660.0,0.41,0.9,0.02,0.89,2.08,3.77
2024-12-06 13:20:13.984,108.67,663.0,0.41,0.9,0.02,0.89,2.08,3.58
2024-12-06 13:20:13.989,109.12,655.0,0.41,0.9,0.02,0.95,2.14,3.58
2024-12-06 13:20:14.16,106.65,655.0,0.42,0.89,0.02,0.77,2.08,3.46
2024-12-06 13:20:14.20,105.75,666.0,0.42,0.89,0.02,0.77,1.78,3.52
2024-12-06 13:20:14.29,108.67,669.0,0.42,0.89,0.02,0.77,1.78,3.52
2024-12-06 13:20:14.36,105.97,652.0,0.42,0.9,0.02,0.71,1.6,3.52
2024-12-06 13:20:14.47,106.65,647.0,0.43,0.89,0.02,0.53,1.53,3.52
2024-12-06 13:20:14.52,110.25,657.0,0.43,0.89,0.03,0.59,1.35,3.58
2024-12-06 13:20:14.91,103.95,656.0,0.43,0.9,0.02,0.83,0.92,3.77
2024-12-06 13:20:14.103,101.47,679.0,0.43,0.9,0.01,0.83,1.05,4.07
2024-12-06 13:20:14.105,101.25,650.0,0.42,0.9,0.02,0.83,1.17,4.32
2024-12-06 13:20:14.115,103.27,681.0,0.42,0.9,0.02,0.83,1.17,4.32
2024-12-06 13:20:14.123,106.2,658.0,0.42,0.9,0.02,0.77,1.35,4.44
2024-12-06 13:20:14.130,107.1,659.0,0.42,0.9,0.02,0.71,1.6,4.5
2024-12-06 13:20:14.138,106.2,657.0,0.42,0.9,0.02,0.71,1.84,4.5
2024-12-06 13:20:14.146,106.2,669.0,0.42,0.9,0.02,0.65,1.9,4.56
2024-12-06 13:20:14.153,108.45,645.0,0.42,0.9,0.02,0.71,1.66,4.62
2024-12-06 13:20:14.164,106.88,655.0,0.43,0.9,0.02,0.71,1.66,4.62
2024-12-06 13:20:14.169,101.02,652.0,0.43,0.89,0.01,0.71,1.35,4.5
2024-12-06 13:20:14.179,108.45,645.0,0.42,0.89,0.01,0.65,1.17,4.38
2024-12-06 13:20:14.186,106.42,680.0,0.42,0.89,0.01,0.59,1.23,4.32
2024-12-06 13:20:14.192,103.27,660.0,0.42,0.89,0.02,0.59,1.41,4.26
2024-12-06 13:20:14.199,106.65,658.0,0.42,0.89,0.02,0.65,1.47,4.32
2024-12-06 13:20:14.213,103.95,661.0,0.42,0.89,0.02,0.65,1.47,4.32
2024-12-06 13:20:14.216,106.2,657.0,0.42,0.89,0.02,0.71,1.53,4.26
2024-12-06 13:20:14.222,107.32,647.0,0.42,0.89,0.02,0.77,1.84,4.19
2024-12-06 13:20:14.240,105.07,657.0,0.42,0.89,0.02,0.71,2.45,4.07
2024-12-06 13:20:14.246,108.22,652.0,0.42,0.89,0.02,0.71,2.45,4.07
2024-12-06 13:20:14.258,106.2,651.0,0.42,0.89,0.02,0.65,2.45,4.07
2024-12-06 13:20:14.266,102.6,653.0,0.42,0.89,0.02,0.65,2.33,4.07
2024-12-06 13:20:14.269,103.72,653.0,0.42,0.89,0.02,0.77,2.08,4.01
2024-12-06 13:20:14.277,106.88,657.0,0.42,0.89,0.02,0.83,1.96,3.83
2024-12-06 13:20:14.286,105.97,671.0,0.42,0.89,0.02,0.83,1.9,3.64
2024-12-06 13:20:14.326,106.42,651.0,0.42,0.89,0.02,0.83,1.9,3.4
2024-12-06 13:20:14.330,106.88,645.0,0.41,0.9,0.02,1.32,2.76,2.79
2024-12-06 13:20:14.333,108.22,648.0,0.42,0.9,0.02,1.32,2.76,2.61
2024-12-06 13:20:14.338,106.42,663.0,0.42,0.9,0.02,1.32,2.69,2.61
2024-12-06 13:20:14.346,104.4,644.0,0.42,0.9,0.02,1.2,2.63,2.49
2024-12-06 13:20:14.354,108.45,661.0,0.42,0.9,0.02,1.08,2.39,2.3
2024-12-06 13:20:14.363,103.72,656.0,0.42,0.9,0.02,0.95,2.14,2.18
2024-12-06 13:20:14.372,102.82,648.0,0.42,0.9,0.02,0.89,1.96,2.18
2024-12-06 13:20:14.379,103.95,655.0,0.42,0.9,0.02,0.89,1.96,2.18
2024-12-06 13:20:14.386,108.67,653.0,0.42,0.9,0.02,0.95,1.84,2.24
2024-12-06 13:20:14.393,106.65,657.0,0.42,0.89,0.02,1.01,1.66,2.3
2024-12-06 13:20:14.409,100.8,647.0,0.42,0.89,0.02,0.95,1.41,2.42
2024-12-06 13:20:14.411,106.2,644.0,0.42,0.89,0.02,1.01,0.99,2.49
2024-12-06 13:20:14.417,108.67,655.0,0.43,0.89,0.02,1.26,0.25,2.67
2024-12-06 13:20:14.428,105.3,661.0,0.43,0.89,0.02,1.26,0.25,2.67
2024-12-06 13:20:14.431,101.7,658.0,0.43,0.89,0.01,1.32,-0.42,2.73
2024-12-06 13:20:14.439,106.88,661.0,0.43,0.89,0.01,1.14,-0.72,2.61
2024-12-06 13:20:14.448,106.2,650.0,0.42,0.9,0.02,0.83,-0.72,2.61
2024-12-06 13:20:14.465,107.55,640.0,0.42,0.9,0.02,0.59,-0.97,2.67
2024-12-06 13:20:14.473,106.65,664.0,0.42,0.9,0.02,0.59,-0.97,2.67
2024-12-06 13:20:14.479,104.62,656.0,0.43,0.91,0.02,0.59,-1.21,2.91
2024-12-06 13:20:14.492,107.1,655.0,0.43,0.9,0.02,0.53,-1.52,3.16
2024-12-06 13:20:14.495,101.47,662.0,0.43,0.9,0.02,0.46,-2.19,3.22
2024-12-06 13:20:14.502,108.22,646.0,0.43,0.9,0.02,0.46,-2.86,3.16
2024-12-06 13:20:14.513,105.97,655.0,0.43,0.9,0.01,0.34,-3.41,3.03
2024-12-06 13:20:14.554,106.88,645.0,0.43,0.9,0.01,0.77,-4.02,2.85
2024-12-06 13:20:14.571,102.6,663.0,0.43,0.89,0.02,1.2,-1.82,2.42
2024-12-06 13:20:14.574,102.38,651.0,0.44,0.89,0.01,1.32,-1.52,2.3
2024-12-06 13:20:14.580,107.32,670.0,0.44,0.89,0.01,1.2,-1.94,1.87
2024-12-06 13:20:14.586,104.4,651.0,0.44,0.89,0.01,1.14,-2.74,1.69
2024-12-06 13:20:14.595,106.42,645.0,0.43,0.9,0.01,1.14,-2.74,1.69
2024-12-06 13:20:14.602,108.45,632.0,0.42,0.91,0.01,1.32,-3.41,1.81
2024-12-06 13:20:14.613,103.5,652.0,0.42,0.91,0.01,1.32,-3.78,2.12
2024-12-06 13:20:14.619,108.67,660.0,0.41,0.91,0.02,1.32,-3.71,2.36
2024-12-06 13:20:14.631,105.07,649.0,0.41,0.9,0.02,1.26,-3.41,2.55
2024-12-06 13:20:14.638,106.88,635.0,0.41,0.9,0.02,1.32,-2.8,2.73
2024-12-06 13:20:14.642,107.55,626.0,0.41,0.9,0.02,1.32,-2.8,3.28
2024-12-06 13:20:14.649,107.77,625.0,0.4,0.92,0.02,1.2,-2.37,3.28
2024-12-06 13:20:14.658,109.57,618.0,0.39,0.95,0.02,0.71,-2.92,4.56
2024-12-06 13:20:14.667,107.77,624.0,0.39,0.94,0.01,0.16,-3.17,5.29
2024-12-06 13:20:14.676,102.15,625.0,0.4,0.92,0.01,0.16,-3.78,5.72
2024-12-06 13:20:14.772,101.02,587.0,0.4,0.88,0.01,-1.49,-5.24,5.35
2024-12-06 13:20:14.777,102.15,594.0,0.4,0.88,0.0,-1.37,-4.26,5.05
2024-12-06 13:20:14.884,95.62,604.0,0.41,0.9,0.0,0.53,0.68,2.12
2024-12-06 13:20:14.892,95.4,573.0,0.41,0.91,0.0,0.59,0.92,2.0
2024-12-06 13:20:14.903,92.7,577.0,0.41,0.91,0.0,0.89,1.05,2.24
2024-12-06 13:20:14.907,94.27,553.0,0.42,0.91,0.0,0.89,1.05,2.24
2024-12-06 13:20:14.919,94.95,558.0,0.43,0.9,0.01,1.2,0.86,2.79
2024-12-06 13:20:14.923,93.82,549.0,0.42,0.88,-0.0,1.62,0.13,2.91
2024-12-06 13:20:14.928,95.62,556.0,0.4,0.87,0.0,1.75,1.35,2.18
2024-12-06 13:20:14.939,95.85,565.0,0.4,0.87,0.0,1.26,2.02,1.57
2024-12-06 13:20:14.949,87.97,556.0,0.4,0.89,0.01,0.65,2.76,1.57
2024-12-06 13:20:14.954,91.8,566.0,0.4,0.92,0.01,0.65,2.76,1.57
2024-12-06 13:20:14.988,92.02,556.0,0.41,0.89,-0.0,0.95,1.23,2.61
2024-12-06 13:20:14.997,89.32,557.0,0.42,0.9,-0.01,0.95,1.23,2.61
2024-12-06 13:20:15.20,90.0,555.0,0.42,0.89,0.02,1.2,1.29,2.55
2024-12-06 13:20:15.25,87.07,552.0,0.42,0.89,0.02,1.01,1.53,2.55
2024-12-06 13:20:15.28,85.95,545.0,0.43,0.9,0.01,1.01,1.53,2.55
2024-12-06 13:20:15.35,89.55,556.0,0.42,0.91,0.0,0.46,2.14,2.73
2024-12-06 13:20:15.44,85.5,548.0,0.42,0.9,0.01,0.34,2.69,2.91
2024-12-06 13:20:15.51,88.88,552.0,0.42,0.9,0.01,0.34,1.66,3.03
2024-12-06 13:20:15.61,82.35,554.0,0.42,0.9,0.01,0.34,1.11,3.34
2024-12-06 13:20:15.69,87.75,542.0,0.42,0.9,0.0,0.22,1.23,3.64
2024-12-06 13:20:15.74,87.3,537.0,0.42,0.9,-0.01,0.22,1.23,3.64
2024-12-06 13:20:15.83,87.97,544.0,0.42,0.9,-0.01,0.22,2.08,3.83
2024-12-06 13:20:15.90,81.22,554.0,0.42,0.9,0.01,0.34,2.69,4.07
2024-12-06 13:20:15.98,87.3,550.0,0.42,0.9,0.02,0.34,1.11,4.5
2024-12-06 13:20:15.107,87.07,556.0,0.42,0.9,0.02,0.53,0.5,4.5
2024-12-06 13:20:15.133,83.92,542.0,0.42,0.89,0.0,0.83,0.56,4.13
2024-12-06 13:20:15.140,81.22,537.0,0.42,0.88,0.0,0.83,1.05,3.52
2024-12-06 13:20:15.144,83.7,561.0,0.42,0.91,0.01,0.46,0.8,3.58
2024-12-06 13:20:15.146,80.78,553.0,0.42,0.91,0.01,0.83,0.8,3.71
2024-12-06 13:20:15.151,81.9,552.0,0.42,0.9,-0.0,1.69,0.68,3.77
2024-12-06 13:20:15.159,79.2,542.0,0.41,0.9,-0.0,1.69,0.68,3.77
2024-12-06 13:20:15.170,81.67,560.0,0.41,0.92,-0.0,1.81,0.68,3.83
2024-12-06 13:20:15.175,83.03,545.0,0.4,0.93,-0.01,1.38,0.5,3.89
2024-12-06 13:20:15.221,81.45,540.0,0.39,0.9,-0.01,1.44,1.23,3.71
2024-12-06 13:20:15.224,80.32,546.0,0.41,0.91,0.0,1.38,1.29,3.89
2024-12-06 13:20:15.227,78.07,546.0,0.41,0.91,0.0,2.17,0.31,4.13
2024-12-06 13:20:15.236,79.42,535.0,0.4,0.89,-0.01,2.17,0.31,4.13
2024-12-06 13:20:15.250,76.72,538.0,0.4,0.86,-0.01,2.97,1.11,3.46
2024-12-06 13:20:15.254,75.82,559.0,0.42,0.89,-0.01,2.3,1.17,3.16
2024-12-06 13:20:15.259,75.15,533.0,0.41,0.91,-0.01,1.32,1.9,3.52
2024-12-06 13:20:15.266,74.92,539.0,0.41,0.91,-0.01,2.17,1.05,3.22
2024-12-06 13:20:15.278,70.65,529.0,0.4,0.88,0.01,2.17,1.05,3.22
2024-12-06 13:20:15.282,73.57,525.0,0.41,0.87,0.01,2.54,1.05,2.73
2024-12-06 13:20:15.292,73.57,546.0,0.41,0.89,-0.0,2.17,2.21,2.36
2024-12-06 13:20:15.299,70.65,545.0,0.4,0.89,0.0,1.87,1.84,2.12
2024-12-06 13:20:15.305,72.22,543.0,0.4,0.89,0.0,2.11,1.53,1.87
2024-12-06 13:20:15.314,68.62,534.0,0.4,0.89,0.0,2.6,2.39,1.63
2024-12-06 13:20:15.324,70.65,528.0,0.41,0.88,-0.0,2.6,2.39,1.63
2024-12-06 13:20:15.328,71.32,547.0,0.41,0.89,-0.0,2.66,3.12,1.57
2024-12-06 13:20:15.338,67.5,544.0,0.4,0.9,-0.0,2.3,2.69,1.57
2024-12-06 13:20:15.343,69.97,540.0,0.39,0.87,-0.03,2.66,3.3,0.9
2024-12-06 13:20:15.353,71.32,535.0,0.39,0.87,-0.03,3.33,4.77,-0.44
2024-12-06 13:20:15.359,66.82,538.0,0.4,0.87,-0.01,2.66,4.59,-0.2
2024-12-06 13:20:15.368,67.5,545.0,0.41,0.9,0.02,2.66,4.59,-0.2
2024-12-06 13:20:15.377,67.5,523.0,0.4,0.91,0.01,2.54,3.06,-0.08
2024-12-06 13:20:15.382,65.7,591.0,0.4,0.9,-0.01,2.97,2.69,-0.08
2024-12-06 13:20:15.391,64.35,534.0,0.41,0.91,-0.02,3.27,3.06,-0.02
2024-12-06 13:20:15.398,66.6,525.0,0.41,0.91,-0.02,2.97,2.69,0.17
2024-12-06 13:20:15.437,67.72,519.0,0.39,0.9,-0.02,3.09,2.82,-0.38
2024-12-06 13:20:15.440,60.07,581.0,0.4,0.93,-0.01,2.6,3.3,1.02
2024-12-06 13:20:15.444,64.35,526.0,0.39,0.92,-0.01,2.97,3.49,0.96
2024-12-06 13:20:15.452,62.32,532.0,0.4,0.91,-0.02,2.97,3.49,0.96
2024-12-06 13:20:15.460,63.67,534.0,0.41,0.93,-0.01,2.66,3.91,1.39
2024-12-06 13:20:15.469,64.57,523.0,0.4,0.92,-0.0,2.17,2.51,1.81
2024-12-06 13:20:15.476,60.52,546.0,0.4,0.91,-0.01,2.05,1.47,1.75
2024-12-06 13:20:15.489,56.47,529.0,0.4,0.91,-0.01,1.44,2.39,1.81
2024-12-06 13:20:15.496,57.15,529.0,0.41,0.92,-0.02,1.26,2.57,1.87
2024-12-06 13:20:15.499,56.7,529.0,0.4,0.9,-0.01,1.26,2.57,1.87
2024-12-06 13:20:15.507,60.3,511.0,0.39,0.89,0.0,1.5,2.27,1.14
2024-12-06 13:20:15.516,54.67,511.0,0.41,0.91,0.01,1.08,2.94,0.59
2024-12-06 13:20:15.525,56.02,528.0,0.42,0.93,0.01,0.77,3.61,1.08
2024-12-06 13:20:15.532,55.57,517.0,0.42,0.93,0.01,1.56,3.12,1.51
2024-12-06 13:20:15.539,53.32,512.0,0.4,0.92,0.01,2.23,2.57,1.45
2024-12-06 13:20:15.550,55.57,520.0,0.4,0.9,-0.0,2.23,2.57,1.45
2024-12-06 13:20:15.555,56.47,525.0,0.41,0.9,-0.01,1.93,3.24,1.51
2024-12-06 13:20:15.563,56.47,504.0,0.4,0.9,-0.0,1.26,3.55,1.75
2024-12-06 13:20:15.569,49.95,501.0,0.39,0.9,0.0,1.2,2.76,1.69
2024-12-06 13:20:15.578,50.62,525.0,0.39,0.9,0.0,1.26,2.39,1.57
2024-12-06 13:20:15.586,49.95,513.0,0.39,0.9,-0.0,1.26,2.39,1.51
2024-12-06 13:20:15.594,54.67,519.0,0.4,0.9,-0.01,1.2,2.76,1.51
2024-12-06 13:20:15.600,51.75,507.0,0.39,0.91,-0.0,1.01,3.43,1.45
2024-12-06 13:20:15.611,53.1,497.0,0.39,0.91,0.01,1.01,3.18,1.39
2024-12-06 13:20:15.618,53.55,499.0,0.39,0.91,0.01,1.26,2.76,1.33
2024-12-06 13:20:15.623,45.0,498.0,0.39,0.91,0.01,1.75,3.37,1.33
2024-12-06 13:20:15.666,51.3,501.0,0.39,0.91,-0.0,1.87,3.0,1.94
2024-12-06 13:20:15.669,47.92,516.0,0.38,0.9,-0.0,1.87,3.0,1.94
2024-12-06 13:20:15.677,46.8,503.0,0.38,0.91,-0.01,1.93,3.67,1.75
2024-12-06 13:20:15.689,45.67,504.0,0.39,0.92,-0.01,1.75,4.04,1.69
2024-12-06 13:20:15.692,48.6,509.0,0.39,0.92,-0.0,1.62,3.98,2.18
2024-12-06 13:20:15.700,42.3,496.0,0.39,0.92,-0.0,1.99,3.18,2.3
2024-12-06 13:20:15.711,42.75,500.0,0.38,0.91,-0.0,1.99,3.61,2.06
2024-12-06 13:20:15.720,46.12,506.0,0.39,0.92,-0.01,1.93,3.61,2.06
2024-12-06 13:20:15.814,46.8,493.0,0.39,0.92,-0.01,1.69,4.1,2.12
2024-12-06 13:20:15.820,39.15,501.0,0.4,0.92,-0.0,1.56,5.26,4.07
2024-12-06 13:20:15.828,37.35,508.0,0.39,0.92,-0.0,1.69,4.04,4.44
2024-12-06 13:20:15.836,35.33,505.0,0.4,0.91,-0.01,1.38,3.73,4.68
2024-12-06 13:20:15.844,34.65,494.0,0.4,0.91,-0.01,1.32,3.85,4.93
2024-12-06 13:20:15.857,34.65,490.0,0.4,0.91,-0.01,1.08,4.59,5.48
2024-12-06 13:20:15.860,32.17,499.0,0.42,0.93,-0.01,-0.45,7.64,6.88
2024-12-06 13:20:15.872,33.3,499.0,0.43,0.97,0.01,-0.45,7.64,6.88
2024-12-06 13:20:15.877,36.0,501.0,0.39,0.95,0.02,-0.08,6.97,7.37
2024-12-06 13:20:15.884,34.42,491.0,0.37,0.9,0.01,2.3,3.18,6.51
2024-12-06 13:20:15.901,35.77,491.0,0.4,0.89,-0.02,2.11,3.67,6.7
2024-12-06 13:20:15.904,33.52,489.0,0.4,0.89,-0.02,1.26,4.95,7.0
2024-12-06 13:20:15.911,28.8,488.0,0.4,0.9,-0.02,1.26,4.95,7.0
2024-12-06 13:20:15.914,31.05,484.0,0.4,0.9,-0.01,0.65,5.14,7.43
2024-12-06 13:20:15.925,30.82,484.0,0.4,0.91,0.0,0.34,5.62,8.53
2024-12-06 13:20:15.930,31.05,489.0,0.39,0.89,0.01,0.89,3.55,9.26
2024-12-06 13:20:15.964,33.52,473.0,0.39,0.9,0.0,0.28,2.69,10.66
2024-12-06 13:20:15.967,28.12,484.0,0.4,0.91,-0.0,0.34,3.12,10.48
2024-12-06 13:20:15.987,27.67,501.0,0.4,0.91,-0.0,0.22,4.53,11.27
2024-12-06 13:20:15.990,27.67,495.0,0.42,0.92,0.0,0.89,3.18,11.21
2024-12-06 13:20:15.994,26.1,487.0,0.4,0.9,-0.0,0.89,3.18,11.21
2024-12-06 13:20:16.3,24.3,479.0,0.42,0.91,-0.01,0.46,4.65,10.97
2024-12-06 13:20:16.15,24.97,470.0,0.42,0.91,0.0,0.22,5.38,11.7
2024-12-06 13:20:16.47,24.07,485.0,0.4,0.9,0.0,0.53,3.91,11.76
2024-12-06 13:20:16.51,23.85,478.0,0.4,0.9,-0.0,0.16,4.04,11.52
2024-12-06 13:20:16.58,22.05,490.0,0.42,0.91,-0.0,-0.21,6.42,11.82
2024-12-06 13:20:16.61,16.88,480.0,0.42,0.91,-0.0,0.4,5.2,12.25
2024-12-06 13:20:16.68,19.57,485.0,0.41,0.9,0.01,16.03,5.38,12.31
2024-12-06 13:20:16.77,20.7,497.0,0.42,0.9,-0.01,0.83,5.38,12.31
2024-12-06 13:20:16.113,15.75,466.0,0.43,0.9,-0.0,0.83,6.72,13.11
2024-12-06 13:20:16.115,17.77,484.0,0.42,0.9,0.01,0.53,7.39,12.92
2024-12-06 13:20:16.121,12.15,477.0,0.4,0.88,0.0,1.38,5.68,12.68
2024-12-06 13:20:16.140,10.12,459.0,0.42,0.89,-0.01,1.38,6.66,12.62
2024-12-06 13:20:16.148,11.92,458.0,0.42,0.88,0.01,1.32,4.83,12.86
2024-12-06 13:20:16.151,11.02,480.0,0.42,0.88,0.01,1.32,4.83,12.86
2024-12-06 13:20:16.161,4.72,462.0,0.45,0.9,-0.0,1.2,6.23,13.29
2024-12-06 13:20:16.168,8.55,483.0,0.44,0.9,0.0,1.62,4.89,13.78
2024-12-06 13:20:16.176,7.65,473.0,0.43,0.9,-0.0,1.69,5.07,13.65
2024-12-06 13:20:16.186,10.8,479.0,0.44,0.89,-0.0,1.93,5.62,13.84
2024-12-06 13:20:16.192,9.68,470.0,0.44,0.89,-0.0,2.11,3.91,13.41
2024-12-06 13:20:16.202,9.68,461.0,0.42,0.88,-0.01,2.11,3.91,13.41
2024-12-06 13:20:16.206,7.2,468.0,0.44,0.89,-0.01,1.93,5.26,12.98
2024-12-06 13:20:16.216,4.72,512.0,0.44,0.89,0.0,1.87,6.54,13.47
2024-12-06 13:20:16.235,6.52,459.0,0.42,0.89,0.0,2.3,5.5,13.29
2024-12-06 13:20:16.239,-0.45,473.0,0.43,0.89,0.01,2.48,7.27,13.17
2024-12-06 13:20:16.246,0.67,473.0,0.42,0.89,0.02,2.48,7.27,13.17
2024-12-06 13:20:16.256,1.57,459.0,0.42,0.89,0.01,2.42,7.88,12.86
2024-12-06 13:20:16.262,-1.57,447.0,0.44,0.88,0.01,2.54,8.86,13.04
2024-12-06 13:20:16.274,-2.25,453.0,0.4,0.86,-0.0,3.39,6.36,12.25
2024-12-06 13:20:16.313,-0.67,453.0,0.37,0.86,0.01,2.36,6.97,2.36
2024-12-06 13:20:16.315,-3.15,460.0,0.37,0.86,0.01,3.7,4.71,0.78
2024-12-06 13:20:16.321,-3.6,456.0,0.39,0.86,0.01,3.7,4.71,-0.14
2024-12-06 13:20:16.329,-5.85,463.0,0.4,0.86,-0.02,4.13,4.65,-0.14
2024-12-06 13:20:16.340,-6.97,461.0,0.39,0.88,-0.0,3.7,4.71,-1.73
2024-12-06 13:20:16.371,-7.2,464.0,0.41,0.9,0.01,2.17,3.18,-5.88
2024-12-06 13:20:16.375,-5.17,472.0,0.43,0.9,0.01,1.99,3.3,-5.88
2024-12-06 13:20:16.382,-0.9,469.0,0.43,0.9,0.01,1.99,2.82,-5.27
2024-12-06 13:20:16.391,-2.47,460.0,0.43,0.93,-0.0,2.11,2.94,-4.41
2024-12-06 13:20:16.398,-1.57,482.0,0.44,0.91,-0.0,2.54,3.06,-3.13
2024-12-06 13:20:16.419,-4.05,476.0,0.45,0.91,0.0,2.66,2.88,-2.03
2024-12-06 13:20:16.423,-2.92,467.0,0.44,0.91,0.0,2.42,2.88,-1.48
2024-12-06 13:20:16.431,-1.12,471.0,0.44,0.91,0.01,2.3,3.12,-0.87
2024-12-06 13:20:16.466,-5.17,478.0,0.43,0.89,0.01,1.69,2.82,0.84
2024-12-06 13:20:16.483,-2.7,474.0,0.43,0.89,0.01,1.87,2.63,1.39
2024-12-06 13:20:16.490,-0.45,472.0,0.44,0.9,0.01,1.99,2.33,1.94
2024-12-06 13:20:16.499,-2.02,476.0,0.44,0.9,0.01,2.17,2.33,2.3
2024-12-06 13:20:16.504,-1.57,472.0,0.43,0.89,0.01,2.23,2.76,2.36
2024-12-06 13:20:16.545,-5.85,503.0,0.42,0.89,-0.0,2.17,4.46,0.96
2024-12-06 13:20:16.604,-6.07,480.0,0.42,0.9,-0.01,2.85,4.59,1.26
2024-12-06 13:20:16.608,-0.22,472.0,0.42,0.91,-0.02,2.91,4.83,1.26
2024-12-06 13:20:16.616,-6.3,490.0,0.42,0.91,-0.02,2.91,4.83,1.33
2024-12-06 13:20:16.624,-6.07,475.0,0.41,0.91,-0.02,2.72,4.71,1.39
2024-12-06 13:20:16.642,-2.92,475.0,0.4,0.9,-0.0,2.54,4.53,1.2
2024-12-06 13:20:16.647,-5.17,488.0,0.4,0.89,0.0,2.23,4.16,0.96
2024-12-06 13:20:16.658,-0.45,471.0,0.4,0.89,0.0,1.93,4.46,1.08
2024-12-06 13:20:16.671,-4.95,497.0,0.41,0.9,0.0,1.93,4.71,1.75
2024-12-06 13:20:16.674,-1.8,488.0,0.41,0.9,0.0,1.81,4.71,1.75
2024-12-06 13:20:16.676,-2.92,481.0,0.41,0.9,0.0,1.69,4.65,2.49
2024-12-06 13:20:16.695,-2.7,483.0,0.42,0.9,-0.0,1.5,5.07,4.01
2024-12-06 13:20:16.699,-1.35,477.0,0.42,0.9,0.0,1.26,4.28,4.32
2024-12-06 13:20:16.708,-7.2,473.0,0.42,0.9,0.01,1.26,4.28,4.32
2024-12-06 13:20:16.819,-1.8,472.0,0.42,0.9,0.0,0.04,0.62,5.29
2024-12-06 13:20:16.839,-0.22,479.0,0.42,0.89,-0.0,0.1,0.56,5.54
2024-12-06 13:20:16.843,-2.7,476.0,0.42,0.89,-0.0,0.1,0.56,5.72
2024-12-06 13:20:16.848,-0.67,477.0,0.42,0.89,-0.01,0.16,0.56,5.72
2024-12-06 13:20:16.863,-4.28,482.0,0.41,0.89,-0.0,0.22,0.56,5.84
2024-12-06 13:20:16.875,-4.72,487.0,0.41,0.89,-0.01,0.46,0.68,5.72
2024-12-06 13:20:16.882,-7.65,473.0,0.41,0.88,-0.01,0.53,1.23,5.48
2024-12-06 13:20:16.892,-5.85,490.0,0.41,0.88,-0.01,0.53,1.23,5.48
2024-12-06 13:20:16.901,-3.82,473.0,0.41,0.89,-0.01,0.65,1.29,5.29
2024-12-06 13:20:16.903,-2.25,468.0,0.41,0.89,-0.0,0.83,0.99,4.93
2024-12-06 13:20:16.913,-2.02,475.0,0.41,0.89,-0.0,0.95,0.86,4.56
2024-12-06 13:20:16.952,-4.28,483.0,0.41,0.89,0.0,1.08,2.69,3.28
2024-12-06 13:20:16.956,-3.6,481.0,0.41,0.89,0.0,1.08,2.88,3.28
2024-12-06 13:20:16.973,-2.02,488.0,0.41,0.89,-0.0,1.14,3.0,3.16
2024-12-06 13:20:16.977,-2.02,485.0,0.41,0.89,-0.0,1.01,2.88,3.03
2024-12-06 13:20:16.985,-6.07,484.0,0.41,0.9,-0.0,0.77,2.51,2.97
2024-12-06 13:20:17.21,-12.6,469.0,0.42,0.89,0.0,0.16,1.78,2.79
2024-12-06 13:20:17.23,-2.7,489.0,0.42,0.89,0.0,0.1,1.96,2.85
2024-12-06 13:20:17.29,-5.17,492.0,0.42,0.89,0.0,-0.02,2.45,2.91
2024-12-06 13:20:17.39,-1.8,495.0,0.42,0.89,-0.0,-0.02,2.45,2.91
2024-12-06 13:20:17.46,-2.47,480.0,0.42,0.89,0.0,-0.15,3.06,3.03
2024-12-06 13:20:17.65,-7.2,488.0,0.42,0.89,0.01,-0.21,3.06,3.28
2024-12-06 13:20:17.68,-3.15,500.0,0.42,0.89,0.01,-0.27,2.76,3.46
2024-12-06 13:20:17.76,-6.07,482.0,0.42,0.89,0.01,-0.27,2.76,3.46
2024-12-06 13:20:17.87,-2.92,498.0,0.43,0.9,0.01,-0.39,2.39,3.52
2024-12-06 13:20:17.92,-2.47,482.0,0.43,0.9,0.01,-0.57,2.02,3.4
2024-12-06 13:20:17.100,-5.17,486.0,0.43,0.9,0.01,-0.7,1.84,3.28
2024-12-06 13:20:17.140,-2.7,475.0,0.42,0.89,0.0,-0.63,1.05,3.03
2024-12-06 13:20:17.143,-5.17,480.0,0.42,0.89,0.0,-0.51,1.17,2.97
2024-12-06 13:20:17.148,-3.38,480.0,0.42,0.9,0.0,-0.45,1.41,3.03
2024-12-06 13:20:17.153,-6.3,472.0,0.42,0.91,0.01,-0.45,1.41,3.03
2024-12-06 13:20:17.171,-3.6,499.0,0.42,0.91,0.01,-0.33,1.35,3.4
2024-12-06 13:20:17.173,-5.85,490.0,0.42,0.91,0.0,-0.27,1.11,3.64
2024-12-06 13:20:17.197,-0.45,474.0,0.42,0.9,0.0,-0.33,0.74,3.77
2024-12-06 13:20:17.208,-1.8,484.0,0.42,0.9,0.0,-0.39,0.19,3.83
2024-12-06 13:20:17.212,-3.15,488.0,0.42,0.9,-0.0,-0.51,-0.48,3.95
2024-12-06 13:20:17.252,-4.72,491.0,0.41,0.89,-0.0,0.04,0.13,4.5
2024-12-06 13:20:17.257,-2.92,490.0,0.41,0.89,-0.0,0.22,0.25,4.56
2024-12-06 13:20:17.268,-2.7,496.0,0.41,0.89,0.0,0.22,0.25,4.56
2024-12-06 13:20:17.273,-3.6,502.0,0.41,0.89,0.0,0.4,0.56,4.5
2024-12-06 13:20:17.280,-1.8,482.0,0.41,0.89,0.0,0.53,1.11,4.32
2024-12-06 13:20:17.292,-0.22,479.0,0.41,0.89,0.0,0.65,1.66,4.13
2024-12-06 13:20:17.295,-4.95,493.0,0.41,0.89,0.0,0.65,2.14,3.95
2024-12-06 13:20:17.314,-2.92,482.0,0.41,0.89,-0.0,0.65,2.63,3.89
2024-12-06 13:20:17.321,-1.57,488.0,0.41,0.89,-0.0,0.59,2.94,3.71
2024-12-06 13:20:17.326,-0.9,484.0,0.42,0.89,0.0,0.65,2.94,3.52
2024-12-06 13:20:17.333,-8.32,497.0,0.42,0.89,0.0,0.59,2.63,3.4
2024-12-06 13:20:17.344,-7.88,489.0,0.42,0.9,0.01,0.59,2.14,3.22
2024-12-06 13:20:17.360,-2.92,485.0,0.43,0.9,0.01,0.59,1.72,3.03
2024-12-06 13:20:17.378,-1.35,492.0,0.43,0.9,0.01,0.65,1.11,2.67
2024-12-06 13:20:17.380,-2.92,479.0,0.43,0.9,0.0,0.65,1.11,2.67
2024-12-06 13:20:17.386,-1.8,476.0,0.42,0.9,0.0,0.65,0.86,2.55
2024-12-06 13:20:17.394,-4.05,489.0,0.42,0.9,0.01,0.65,0.74,2.49
2024-12-06 13:20:17.412,-3.6,483.0,0.41,0.9,0.01,0.65,0.74,2.36
2024-12-06 13:20:17.415,-2.7,487.0,0.41,0.9,0.01,0.65,0.74,2.36
2024-12-06 13:20:17.423,-1.12,483.0,0.41,0.9,0.01,0.71,1.23,2.42
2024-12-06 13:20:17.431,-5.17,489.0,0.41,0.9,0.01,0.77,1.35,2.42
2024-12-06 13:20:17.469,-3.6,481.0,0.41,0.9,0.01,0.89,1.6,2.42
2024-12-06 13:20:17.488,1.35,485.0,0.42,0.9,0.01,0.77,-0.54,1.69
2024-12-06 13:20:17.493,-6.75,492.0,0.42,0.9,0.01,0.77,-0.54,1.69
2024-12-06 13:20:17.499,-2.47,478.0,0.42,0.9,0.01,0.65,-1.7,1.39
2024-12-06 13:20:17.509,-9.22,486.0,0.42,0.9,0.01,0.53,-2.68,1.08
2024-12-06 13:20:17.514,-1.57,485.0,0.42,0.9,0.01,0.4,-3.78,0.78
2024-12-06 13:20:17.523,-3.38,481.0,0.42,0.9,0.01,0.4,-4.45,0.41
2024-12-06 13:20:17.538,-0.45,486.0,0.42,0.89,0.0,0.34,-4.2,0.04
2024-12-06 13:20:17.546,-5.17,482.0,0.41,0.89,0.01,0.46,-4.33,-0.44
2024-12-06 13:20:17.579,-6.3,490.0,0.39,0.91,0.01,1.01,-4.45,-0.63
2024-12-06 13:20:17.587,-0.9,485.0,0.39,0.91,0.01,1.14,-4.94,0.17
2024-12-06 13:20:17.599,-2.25,490.0,0.4,0.91,-0.01,0.83,-2.07,0.35
2024-12-06 13:20:17.605,-2.7,478.0,0.4,0.91,-0.02,0.77,-0.3,0.41
2024-12-06 13:20:17.642,-2.7,492.0,0.38,0.9,0.0,0.95,0.62,0.72
2024-12-06 13:20:17.645,-3.15,484.0,0.38,0.9,-0.0,0.95,2.88,2.36
2024-12-06 13:20:17.666,-4.5,478.0,0.39,0.9,-0.01,0.71,3.24,2.91
2024-12-06 13:20:17.695,-5.4,484.0,0.4,0.91,-0.01,-0.08,4.46,5.05
2024-12-06 13:20:17.725,-0.22,484.0,0.4,0.91,-0.01,-0.08,5.07,5.84
2024-12-06 13:20:17.738,-4.95,493.0,0.4,0.9,-0.0,-0.08,5.2,5.84
2024-12-06 13:20:17.743,-4.72,508.0,0.4,0.91,-0.0,-0.02,5.38,5.96
2024-12-06 13:20:17.745,-2.92,481.0,0.4,0.91,0.0,0.04,5.62,6.03
2024-12-06 13:20:17.751,-4.28,485.0,0.41,0.91,0.01,0.16,5.56,6.21
2024-12-06 13:20:17.846,-3.82,492.0,0.41,0.91,0.0,0.22,5.44,6.33
2024-12-06 13:20:17.857,-2.7,491.0,0.4,0.92,-0.0,0.59,3.61,6.94
2024-12-06 13:20:17.866,-0.45,488.0,0.4,0.92,-0.0,0.34,3.67,6.94
2024-12-06 13:20:17.872,-2.47,502.0,0.4,0.92,-0.0,0.16,3.55,6.94
2024-12-06 13:20:17.878,-7.65,489.0,0.39,0.92,-0.0,0.16,3.55,6.94
2024-12-06 13:20:17.921,-3.15,478.0,0.39,0.92,0.0,-0.15,4.04,7.61
2024-12-06 13:20:17.924,-2.47,503.0,0.39,0.9,-0.0,-0.21,5.81,8.83
2024-12-06 13:20:17.932,-5.17,502.0,0.4,0.89,-0.0,-0.21,5.93,9.26
2024-12-06 13:20:17.956,-3.38,508.0,0.41,0.89,-0.0,-0.57,5.75,10.11
2024-12-06 13:20:17.957,-0.22,490.0,0.41,0.89,-0.01,-0.57,5.75,10.11
2024-12-06 13:20:17.960,-4.72,533.0,0.41,0.89,-0.0,-0.88,5.87,10.24
2024-12-06 13:20:17.978,0.0,498.0,0.42,0.9,0.01,-1.12,4.65,10.72
2024-12-06 13:20:17.984,-5.4,504.0,0.42,0.9,0.01,-1.24,4.89,11.09
2024-12-06 13:20:17.992,-4.95,524.0,0.42,0.9,0.02,-1.24,4.89,11.09
2024-12-06 13:20:17.999,-1.12,508.0,0.43,0.91,0.01,-1.24,5.62,11.58
2024-12-06 13:20:18.9,-3.6,492.0,0.44,0.91,0.01,-1.24,6.36,12.31
2024-12-06 13:20:18.21,-2.7,507.0,0.44,0.9,0.02,-1.31,7.33,13.11
2024-12-06 13:20:18.25,-5.85,483.0,0.44,0.9,0.02,-1.37,8.13,13.84
2024-12-06 13:20:18.45,-2.7,492.0,0.44,0.89,0.02,-1.31,8.37,14.39
2024-12-06 13:20:18.53,-2.7,500.0,0.45,0.89,0.02,-1.37,8.55,14.94
2024-12-06 13:20:18.56,-8.32,505.0,0.45,0.89,0.02,-1.37,8.61,15.49
2024-12-06 13:20:18.60,-1.35,511.0,0.45,0.89,0.02,-1.37,8.49,15.91
2024-12-06 13:20:18.68,-3.6,526.0,0.46,0.89,0.02,-1.37,8.31,16.22
2024-12-06 13:20:18.77,-4.5,518.0,0.46,0.89,0.01,-1.37,8.31,16.22
2024-12-06 13:20:18.94,-4.28,506.0,0.47,0.89,0.02,-1.31,7.88,16.28
2024-12-06 13:20:18.99,-0.22,501.0,0.47,0.88,0.02,-1.12,7.33,16.22
2024-12-06 13:20:18.114,-4.5,494.0,0.47,0.88,0.02,-0.88,6.91,15.91
2024-12-06 13:20:18.146,-2.25,508.0,0.47,0.88,0.02,-0.88,6.91,15.91
2024-12-06 13:20:18.158,-5.4,511.0,0.45,0.86,0.05,0.04,0.86,12.07
2024-12-06 13:20:18.160,-5.17,495.0,0.44,0.85,0.04,0.71,0.86,12.07
2024-12-06 13:20:18.169,-3.6,513.0,0.44,0.85,0.04,1.01,0.74,9.57
2024-12-06 13:20:18.192,-2.47,523.0,0.43,0.85,0.04,-0.7,2.51,5.05
2024-12-06 13:20:18.194,0.22,505.0,0.41,0.85,0.04,-1.12,3.12,3.1
2024-12-06 13:20:18.198,2.92,511.0,0.4,0.85,0.06,-1.12,3.12,3.1
2024-12-06 13:20:18.210,-0.22,506.0,0.4,0.87,0.05,-1.18,1.11,1.94
2024-12-06 13:20:18.225,-0.45,519.0,0.38,0.87,0.05,-1.24,0.68,0.84
2024-12-06 13:20:18.240,5.62,526.0,0.39,0.87,0.04,-1.61,-1.09,-0.69
2024-12-06 13:20:18.244,1.57,504.0,0.41,0.86,0.03,-1.98,-0.11,-1.97
2024-12-06 13:20:18.255,1.12,525.0,0.4,0.86,0.04,-2.04,-1.4,-2.95
2024-12-06 13:20:18.268,3.82,505.0,0.42,0.87,0.03,-2.1,-2.8,-4.29
2024-12-06 13:20:18.270,7.2,517.0,0.42,0.87,0.03,-2.71,-2.49,-4.72
2024-12-06 13:20:18.275,9.0,522.0,0.43,0.88,0.04,-2.71,-2.49,-5.45
2024-12-06 13:20:18.283,10.12,529.0,0.42,0.88,0.04,-2.53,-5.85,-5.45
2024-12-06 13:20:18.306,11.02,535.0,0.43,0.88,0.03,-2.59,-8.23,-7.22
2024-12-06 13:20:18.309,14.4,539.0,0.43,0.88,0.03,-3.38,-7.5,-7.59
2024-12-06 13:20:18.314,9.45,530.0,0.43,0.89,0.03,-3.08,-9.39,-8.2
2024-12-06 13:20:18.337,15.97,539.0,0.43,0.88,0.03,-2.95,-8.48,-8.44
2024-12-06 13:20:18.340,17.32,529.0,0.44,0.88,0.04,-2.53,-8.17,-8.75
2024-12-06 13:20:18.344,19.12,546.0,0.42,0.87,0.03,-3.08,-8.17,-8.81
2024-12-06 13:20:18.378,20.25,543.0,0.42,0.87,0.03,-2.4,-6.34,-9.11
2024-12-06 13:20:18.385,21.38,530.0,0.45,0.87,0.04,-1.37,-7.62,-7.95
2024-12-06 13:20:18.389,25.42,550.0,0.45,0.87,0.04,-1.49,-8.96,-7.65
2024-12-06 13:20:18.416,24.07,552.0,0.44,0.88,0.03,-1.49,-8.96,-7.65
2024-12-06 13:20:18.454,28.57,593.0,0.43,0.91,0.02,-1.67,-10.37,-5.51
2024-12-06 13:20:18.521,37.35,571.0,0.43,0.89,-0.04,0.83,-6.1,-2.28
2024-12-06 13:20:18.524,48.38,558.0,0.44,0.92,0.04,-0.27,-4.94,-1.36
2024-12-06 13:20:18.527,43.42,579.0,0.41,0.91,-0.01,0.77,-6.1,-0.2
2024-12-06 13:20:18.534,42.75,565.0,0.41,0.91,0.01,0.83,-2.31,0.23
2024-12-06 13:20:18.549,44.77,567.0,0.41,0.91,0.01,1.26,-5.36,1.02
2024-12-06 13:20:18.552,45.67,565.0,0.41,0.93,0.02,1.69,-1.15,1.33
2024-12-06 13:20:18.557,44.1,578.0,0.41,0.91,-0.03,1.69,-1.15,1.33
2024-12-06 13:20:18.564,49.95,580.0,0.42,0.93,0.02,1.44,-1.82,1.94
2024-12-06 13:20:18.577,51.07,576.0,0.41,0.92,-0.01,1.75,-0.97,3.46
2024-12-06 13:20:18.580,54.9,566.0,0.39,0.91,-0.0,2.3,-0.24,3.28
2024-12-06 13:20:18.588,55.12,576.0,0.39,0.91,-0.0,1.99,-1.33,4.13
2024-12-06 13:20:18.624,51.3,577.0,0.39,0.94,0.01,1.99,-1.4,4.87
2024-12-06 13:20:18.640,51.52,585.0,0.4,0.94,-0.01,1.32,-2.01,8.53
2024-12-06 13:20:18.644,59.85,574.0,0.39,0.92,0.0,1.99,-0.36,8.53
2024-12-06 13:20:18.649,60.07,577.0,0.39,0.9,0.03,2.11,-0.36,8.65
2024-12-06 13:20:18.673,59.85,588.0,0.38,0.9,0.01,1.99,1.35,7.98
2024-12-06 13:20:18.679,65.7,579.0,0.39,0.9,0.03,1.99,0.99,7.98
2024-12-06 13:20:18.712,64.57,593.0,0.4,0.91,0.02,1.99,3.18,8.89
2024-12-06 13:20:18.733,66.6,581.0,0.41,0.97,0.0,0.22,2.57,12.92
2024-12-06 13:20:18.740,67.05,581.0,0.41,0.97,0.0,0.46,1.29,14.69
2024-12-06 13:20:18.758,68.62,581.0,0.36,0.89,-0.02,0.71,1.41,14.81
2024-12-06 13:20:18.762,69.07,594.0,0.36,0.86,-0.01,0.77,2.14,13.35
2024-12-06 13:20:18.769,70.65,577.0,0.39,0.86,0.01,0.46,2.45,11.58
2024-12-06 13:20:18.777,70.88,593.0,0.39,0.86,0.01,0.59,2.33,10.24
2024-12-06 13:20:18.945,79.42,592.0,0.41,0.91,0.01,-1.92,-2.62,2.61
2024-12-06 13:20:18.952,76.28,594.0,0.41,0.9,0.01,-1.98,-2.37,2.55
2024-12-06 13:20:18.959,80.1,593.0,0.41,0.9,0.02,-2.1,-2.19,2.61
2024-12-06 13:20:18.988,76.05,588.0,0.42,0.92,0.01,-2.65,-2.86,3.4
2024-12-06 13:20:18.990,84.15,594.0,0.42,0.92,0.02,-2.83,-3.41,3.95
2024-12-06 13:20:18.996,82.12,605.0,0.42,0.9,0.02,-2.83,-4.02,4.13
2024-12-06 13:20:19.14,84.6,608.0,0.42,0.9,0.01,-2.89,-4.51,4.26
2024-12-06 13:20:19.18,84.6,613.0,0.43,0.92,0.01,-3.5,-5.24,4.93
2024-12-06 13:20:19.55,79.88,608.0,0.42,0.88,0.01,-3.56,-6.03,6.21
2024-12-06 13:20:19.59,74.92,599.0,0.43,0.88,0.02,-3.44,-5.97,5.9
2024-12-06 13:20:19.65,84.15,600.0,0.44,0.9,0.01,-3.62,-6.4,6.09
2024-12-06 13:20:19.78,84.82,596.0,0.42,0.89,0.01,-3.44,-6.22,5.96
2024-12-06 13:20:19.90,83.7,598.0,0.42,0.89,0.01,-2.77,-4.69,5.72
2024-12-06 13:20:19.94,85.95,609.0,0.43,0.89,0.01,-2.77,-4.69,5.72
2024-12-06 13:20:19.102,89.32,609.0,0.42,0.88,-0.0,-2.34,-3.65,5.78
2024-12-06 13:20:19.121,87.3,606.0,0.42,0.88,-0.01,-1.85,-2.49,5.66
2024-12-06 13:20:19.124,87.3,618.0,0.42,0.91,-0.01,-1.85,-1.94,6.09
2024-12-06 13:20:19.135,85.28,612.0,0.42,0.91,-0.01,-2.1,-2.68,7.12
2024-12-06 13:20:19.172,88.88,627.0,0.42,0.9,-0.0,-1.37,-1.33,6.94
2024-12-06 13:20:19.179,92.47,636.0,0.42,0.89,0.0,-1.37,-1.33,6.94
2024-12-06 13:20:19.181,87.07,616.0,0.41,0.86,0.0,-0.33,-0.78,6.64
2024-12-06 13:20:19.189,92.25,625.0,0.42,0.85,0.0,0.89,-0.05,6.03
2024-12-06 13:20:19.207,90.67,617.0,0.43,0.87,0.0,1.2,1.23,5.54
2024-12-06 13:20:19.225,91.12,619.0,0.42,0.88,0.0,1.32,0.99,5.35
2024-12-06 13:20:19.231,94.72,617.0,0.43,0.9,-0.0,1.14,0.62,5.54
2024-12-06 13:20:19.238,92.02,629.0,0.42,0.92,-0.01,0.65,0.8,6.21
2024-12-06 13:20:19.246,96.3,637.0,0.42,0.92,-0.01,0.22,0.92,6.7
2024-12-06 13:20:19.274,98.1,622.0,0.43,0.91,0.01,-0.02,1.72,5.9
2024-12-06 13:20:19.288,100.35,630.0,0.43,0.91,0.0,-0.08,1.78,6.27
2024-12-06 13:20:19.295,99.22,648.0,0.43,0.89,-0.0,0.65,2.02,6.21
2024-12-06 13:20:19.302,97.42,652.0,0.43,0.88,0.0,1.14,1.84,5.78
2024-12-06 13:20:19.330,95.85,638.0,0.43,0.88,0.0,0.53,1.17,5.54
2024-12-06 13:20:19.338,99.45,610.0,0.44,0.89,0.0,0.83,1.23,5.54
2024-12-06 13:20:19.345,103.95,634.0,0.44,0.91,0.01,0.34,0.8,6.33
2024-12-06 13:20:19.356,106.65,663.0,0.43,0.9,0.01,0.16,0.8,6.94
2024-12-06 13:20:19.362,100.35,645.0,0.43,0.9,0.01,0.53,1.23,6.88
2024-12-06 13:20:19.370,103.5,649.0,0.43,0.88,0.01,0.53,1.23,6.76
2024-12-06 13:20:19.403,101.47,649.0,0.42,0.9,0.01,0.34,0.74,7.06
2024-12-06 13:20:19.408,104.85,647.0,0.42,0.9,0.01,0.28,1.29,6.57
2024-12-06 13:20:19.416,105.52,655.0,0.42,0.89,0.01,0.28,1.29,6.57
2024-12-06 13:20:19.430,101.92,666.0,0.41,0.91,0.01,0.28,2.14,6.09
2024-12-06 13:20:19.437,99.0,634.0,0.37,1.01,0.04,-0.88,0.07,8.83
2024-12-06 13:20:19.439,104.17,636.0,0.34,1.01,0.02,-2.22,-3.47,13.23
2024-12-06 13:20:19.447,101.47,631.0,0.34,1.01,0.02,-1.24,-1.64,13.9
2024-12-06 13:20:19.466,108.45,626.0,0.44,0.85,0.01,-1.06,-1.4,12.8
2024-12-06 13:20:19.502,105.07,631.0,0.46,0.86,0.01,-1.79,-2.62,11.58
2024-12-06 13:20:19.515,103.5,626.0,0.44,0.87,0.01,-1.37,-2.8,11.52
2024-12-06 13:20:19.517,103.95,629.0,0.46,0.85,0.01,-0.76,-1.15,10.85
2024-12-06 13:20:19.532,106.42,627.0,0.46,0.85,0.01,-0.94,-0.42,9.5
2024-12-06 13:20:19.538,104.62,627.0,0.48,0.84,0.01,-1.12,-0.3,7.67
2024-12-06 13:20:19.544,106.2,622.0,0.49,0.83,0.01,-1.12,-0.3,7.67
2024-12-06 13:20:19.547,102.15,628.0,0.49,0.83,0.0,-1.0,-0.17,5.72
2024-12-06 13:20:19.553,101.92,625.0,0.47,0.84,0.0,-0.7,-0.36,4.44
2024-12-06 13:20:19.576,104.62,625.0,0.46,0.84,0.0,-0.08,0.25,3.77
2024-12-06 13:20:19.579,105.52,616.0,0.45,0.85,0.01,-0.08,0.25,3.77
2024-12-06 13:20:19.585,102.6,618.0,0.45,0.87,0.02,0.16,0.99,4.13
2024-12-06 13:20:19.597,103.95,631.0,0.45,0.88,0.01,0.4,2.02,4.32
2024-12-06 13:20:19.605,107.32,629.0,0.45,0.89,0.01,0.46,2.51,4.32
2024-12-06 13:20:19.638,106.65,620.0,0.45,0.9,-0.0,0.89,1.47,3.77
2024-12-06 13:20:19.651,105.52,625.0,0.45,0.9,-0.0,0.95,1.17,3.83
2024-12-06 13:20:19.654,108.45,625.0,0.44,0.9,0.0,0.95,1.17,3.83
2024-12-06 13:20:19.665,108.45,622.0,0.44,0.89,0.01,0.95,1.17,3.83
2024-12-06 13:20:19.673,104.85,633.0,0.45,0.89,0.01,1.08,1.23,3.89
2024-12-06 13:20:19.690,107.77,643.0,0.45,0.89,0.01,1.44,1.35,3.95
2024-12-06 13:20:19.693,101.25,625.0,0.45,0.89,0.01,1.38,1.47,4.07
2024-12-06 13:20:19.700,107.77,620.0,0.46,0.89,0.01,1.38,1.47,4.32
2024-12-06 13:20:19.754,106.42,617.0,0.46,0.88,0.01,1.01,1.23,4.93
2024-12-06 13:20:19.763,105.97,615.0,0.46,0.87,0.01,1.14,1.11,5.29
2024-12-06 13:20:19.768,105.52,622.0,0.46,0.87,0.01,1.01,1.11,5.29
2024-12-06 13:20:19.777,109.12,638.0,0.45,0.87,0.01,1.01,1.05,5.23
2024-12-06 13:20:19.798,103.95,632.0,0.44,0.88,0.01,0.77,0.99,5.29
2024-12-06 13:20:19.801,103.05,625.0,0.44,0.88,0.01,0.77,0.86,5.29
2024-12-06 13:20:19.806,103.05,649.0,0.44,0.88,0.01,0.71,0.74,5.23
2024-12-06 13:20:19.838,102.38,622.0,0.44,0.88,0.01,0.59,0.74,5.11
2024-12-06 13:20:19.957,108.22,627.0,0.45,0.89,0.01,0.53,1.23,3.77
2024-12-06 13:20:20.4,105.97,619.0,0.46,0.88,0.01,0.65,0.62,3.95
2024-12-06 13:20:20.12,106.42,624.0,0.45,0.88,0.01,0.65,0.62,3.95
2024-12-06 13:20:20.18,107.32,635.0,0.45,0.88,0.01,0.65,0.5,3.83
2024-12-06 13:20:20.45,104.17,619.0,0.45,0.88,0.01,0.89,0.74,4.26
2024-12-06 13:20:20.48,107.1,618.0,0.45,0.88,0.01,0.89,0.74,4.26
2024-12-06 13:20:20.63,103.95,626.0,0.45,0.88,0.01,0.83,0.86,4.44
2024-12-06 13:20:20.67,105.07,624.0,0.45,0.88,0.01,0.71,0.99,4.56
2024-12-06 13:20:20.75,106.42,619.0,0.46,0.88,0.01,0.53,1.05,4.62
2024-12-06 13:20:20.83,103.95,637.0,0.46,0.88,0.01,0.53,0.92,4.62
2024-12-06 13:20:20.90,101.7,623.0,0.46,0.88,0.01,0.53,0.68,4.68
2024-12-06 13:20:20.113,103.95,615.0,0.46,0.88,0.01,0.83,0.62,4.87
2024-12-06 13:20:20.146,101.25,643.0,0.45,0.88,0.01,0.65,0.86,4.74
2024-12-06 13:20:20.191,106.65,664.0,0.45,0.88,0.01,0.59,0.92,4.68
2024-12-06 13:20:20.200,103.27,617.0,0.45,0.88,0.0,0.83,1.17,4.56
2024-12-06 13:20:20.220,109.35,613.0,0.45,0.88,0.01,0.95,1.11,4.38
2024-12-06 13:20:20.225,103.95,633.0,0.45,0.88,0.01,0.95,1.41,4.32
2024-12-06 13:20:20.246,103.05,615.0,0.45,0.88,0.01,1.14,1.78,4.26
2024-12-06 13:20:20.254,102.38,623.0,0.45,0.88,0.01,1.14,1.84,4.26
2024-12-06 13:20:20.262,101.92,630.0,0.45,0.88,0.01,1.08,1.84,4.26
2024-12-06 13:20:20.293,107.77,613.0,0.45,0.88,0.01,0.83,1.78,4.13
2024-12-06 13:20:20.308,108.22,635.0,0.45,0.88,0.01,0.83,1.72,4.01
2024-12-06 13:20:20.316,104.17,616.0,0.45,0.88,0.01,0.89,1.72,4.01
2024-12-06 13:20:20.324,103.95,606.0,0.45,0.88,0.01,0.89,1.72,4.01
2024-12-06 13:20:20.334,108.45,610.0,0.45,0.88,0.01,0.89,1.78,3.95
2024-12-06 13:20:20.353,108.22,612.0,0.45,0.88,0.01,0.77,1.72,3.89
2024-12-06 13:20:20.357,106.65,615.0,0.45,0.88,0.01,0.65,1.72,3.83
2024-12-06 13:20:20.361,104.17,613.0,0.45,0.88,0.01,0.65,1.6,3.71
2024-12-06 13:20:20.369,105.75,608.0,0.45,0.88,0.01,0.65,1.6,3.71
2024-12-06 13:20:20.380,106.42,662.0,0.45,0.87,0.01,0.59,1.47,3.64
2024-12-06 13:20:20.391,105.3,621.0,0.45,0.87,0.01,0.59,1.29,3.64
2024-12-06 13:20:20.395,103.5,627.0,0.45,0.87,0.01,0.71,1.11,3.71
2024-12-06 13:20:20.401,109.35,613.0,0.45,0.87,0.01,0.77,0.86,3.77
2024-12-06 13:20:20.419,102.82,622.0,0.45,0.87,0.01,0.77,0.62,3.77
2024-12-06 13:20:20.424,103.5,627.0,0.46,0.87,0.01,0.71,0.25,3.64
2024-12-06 13:20:20.435,102.82,615.0,0.46,0.87,0.01,0.59,0.13,3.46
2024-12-06 13:20:20.438,108.67,601.0,0.46,0.87,0.01,0.53,0.19,3.16
2024-12-06 13:20:20.486,106.42,604.0,0.47,0.87,0.0,1.32,-0.72,2.18
2024-12-06 13:20:20.492,106.65,628.0,0.47,0.88,0.01,1.5,-0.72,2.18
2024-12-06 13:20:20.500,107.32,612.0,0.46,0.88,0.01,1.5,-1.4,1.63
2024-12-06 13:20:20.506,103.27,640.0,0.46,0.88,0.01,1.32,-1.7,0.96
2024-12-06 13:20:20.517,103.5,614.0,0.46,0.88,0.01,1.2,-1.88,0.35
2024-12-06 13:20:20.530,105.97,624.0,0.46,0.88,0.01,1.26,-2.49,-0.08
2024-12-06 13:20:20.539,103.05,623.0,0.47,0.87,0.0,1.26,-2.49,-0.08
2024-12-06 13:20:20.546,104.17,614.0,0.48,0.87,0.0,1.38,-3.65,-0.57
2024-12-06 13:20:20.549,105.97,623.0,0.47,0.87,-0.0,1.2,-5.18,-1.05
2024-12-06 13:20:20.556,103.27,606.0,0.47,0.87,-0.01,0.89,-6.46,-1.48
2024-12-06 13:20:20.563,107.1,596.0,0.47,0.87,-0.01,0.65,-7.44,-1.67
2024-12-06 13:20:20.568,107.32,617.0,0.46,0.88,-0.01,0.65,-7.74,-1.73
2024-12-06 13:20:20.576,103.5,608.0,0.45,0.88,-0.01,0.4,-7.74,-1.73
2024-12-06 13:20:20.589,103.95,596.0,0.45,0.88,-0.01,0.22,-7.19,-1.73
2024-12-06 13:20:20.657,103.05,609.0,0.45,0.88,-0.0,1.08,-5.55,-1.48
2024-12-06 13:20:20.671,105.52,606.0,0.4,0.94,-0.0,0.89,-3.53,-1.79
2024-12-06 13:20:20.673,103.72,601.0,0.4,0.94,-0.0,0.28,-5.48,0.9
2024-12-06 13:20:20.682,105.07,587.0,0.39,0.97,0.01,0.28,-5.48,0.9
2024-12-06 13:20:20.690,102.15,586.0,0.38,0.97,0.0,-0.33,-6.46,2.61
2024-12-06 13:20:20.697,102.82,588.0,0.37,0.97,0.0,-0.57,-6.64,4.26
2024-12-06 13:20:20.705,106.88,588.0,0.37,0.95,-0.0,-1.31,-6.77,6.15
2024-12-06 13:20:20.727,104.4,596.0,0.38,0.93,-0.01,-2.28,-7.32,8.71
2024-12-06 13:20:20.731,102.82,570.0,0.39,0.91,-0.01,-2.28,-7.32,8.71
2024-12-06 13:20:20.745,98.55,583.0,0.41,0.92,-0.01,-3.14,-7.01,9.63
2024-12-06 13:20:20.747,101.92,563.0,0.41,0.92,0.0,-3.93,-6.95,10.6
2024-12-06 13:20:20.763,103.5,569.0,0.42,0.9,-0.01,-3.75,-6.4,10.85
2024-12-06 13:20:20.778,102.82,572.0,0.45,0.88,-0.01,-3.56,-3.84,9.69
2024-12-06 13:20:20.781,96.75,570.0,0.45,0.85,0.0,-3.38,-3.47,8.53
2024-12-06 13:20:20.789,98.77,556.0,0.46,0.84,0.0,-2.53,-3.29,6.7
2024-12-06 13:20:20.797,94.05,561.0,0.46,0.84,0.0,-2.1,-2.74,5.23
2024-12-06 13:20:20.858,96.52,597.0,0.42,0.86,-0.02,0.22,0.5,0.78
2024-12-06 13:20:20.865,94.95,550.0,0.41,0.87,-0.01,-0.15,-0.36,0.78
2024-12-06 13:20:20.889,86.62,563.0,0.42,0.87,-0.01,-0.45,0.74,0.1
2024-12-06 13:20:20.991,88.65,549.0,0.43,0.87,-0.01,-0.08,1.05,-0.26
2024-12-06 13:20:21.5,84.82,564.0,0.45,0.89,0.0,0.77,2.76,2.3
2024-12-06 13:20:21.21,82.12,543.0,0.45,0.89,-0.01,0.83,2.88,2.97
2024-12-06 13:20:21.24,82.35,568.0,0.45,0.89,-0.01,1.2,2.63,2.97
2024-12-06 13:20:21.36,80.32,541.0,0.45,0.88,-0.01,1.32,2.02,2.97
2024-12-06 13:20:21.41,82.57,542.0,0.44,0.88,-0.0,1.32,2.02,2.97
2024-12-06 13:20:21.109,82.35,540.0,0.44,0.89,-0.0,1.2,1.35,3.1
2024-12-06 13:20:21.112,81.9,537.0,0.41,0.89,-0.01,0.77,0.5,3.89
2024-12-06 13:20:21.116,76.72,547.0,0.42,0.88,-0.01,1.2,1.29,3.16
2024-12-06 13:20:21.124,79.42,552.0,0.43,0.89,-0.0,0.83,0.92,2.91
2024-12-06 13:20:21.147,74.92,528.0,0.43,0.91,0.0,0.4,0.92,3.4
2024-12-06 13:20:21.151,79.88,548.0,0.43,0.91,0.0,0.53,0.25,3.77
2024-12-06 13:20:21.163,74.03,545.0,0.42,0.89,-0.01,0.53,-0.85,3.64
2024-12-06 13:20:21.173,76.95,533.0,0.41,0.87,-0.03,0.46,-0.36,3.28
2024-12-06 13:20:21.176,74.03,543.0,0.41,0.87,-0.03,0.77,0.37,2.67
2024-12-06 13:20:21.188,76.72,529.0,0.41,0.86,-0.02,0.28,-0.05,2.85
2024-12-06 13:20:21.204,73.12,530.0,0.42,0.92,-0.01,-0.02,0.31,3.52
2024-12-06 13:20:21.206,74.7,529.0,0.4,0.91,-0.01,0.65,0.01,3.64
2024-12-06 13:20:21.212,77.17,534.0,0.4,0.91,-0.01,1.08,0.13,3.4
2024-12-06 13:20:21.223,73.35,544.0,0.41,0.9,-0.02,0.77,0.74,3.28
2024-12-06 13:20:21.228,73.57,520.0,0.42,0.9,-0.03,0.77,0.74,3.28
2024-12-06 13:20:21.246,72.9,526.0,0.41,0.9,-0.02,0.83,1.47,3.1
2024-12-06 13:20:21.259,74.03,534.0,0.42,0.9,-0.01,1.38,0.68,2.97
2024-12-06 13:20:21.263,71.78,520.0,0.42,0.9,-0.01,1.5,1.17,2.73
2024-12-06 13:20:21.272,71.78,543.0,0.42,0.89,-0.02,1.5,1.17,2.73
2024-12-06 13:20:21.313,66.15,522.0,0.41,0.88,-0.04,2.05,2.45,2.18
2024-12-06 13:20:21.328,64.12,533.0,0.41,0.92,0.0,1.56,1.84,1.51
2024-12-06 13:20:21.341,64.8,518.0,0.41,0.92,0.0,1.69,0.74,1.69
2024-12-06 13:20:21.355,66.6,542.0,0.42,0.9,-0.02,1.69,0.37,2.06
2024-12-06 13:20:21.363,62.77,504.0,0.41,0.9,-0.02,1.26,0.07,2.3
2024-12-06 13:20:21.378,68.62,522.0,0.41,0.89,-0.02,1.32,0.68,1.87
2024-12-06 13:20:21.382,64.12,515.0,0.41,0.88,-0.01,1.32,0.68,1.87
2024-12-06 13:20:21.386,64.12,533.0,0.42,0.89,-0.01,1.44,1.78,1.69
2024-12-06 13:20:21.419,64.12,513.0,0.42,0.9,-0.0,1.38,1.72,1.63
2024-12-06 13:20:21.437,62.1,512.0,0.42,0.91,-0.01,0.95,1.29,1.75
2024-12-06 13:20:21.441,60.75,517.0,0.42,0.9,-0.01,0.65,2.02,2.12
2024-12-06 13:20:21.449,62.55,531.0,0.42,0.9,-0.01,0.46,1.6,2.3
2024-12-06 13:20:21.459,59.4,515.0,0.41,0.9,-0.01,0.46,1.6,2.3
2024-12-06 13:20:21.463,60.75,512.0,0.41,0.9,-0.01,0.53,1.78,2.12
2024-12-06 13:20:21.484,60.3,510.0,0.42,0.9,-0.01,0.22,2.45,2.55
2024-12-06 13:20:21.488,62.1,520.0,0.42,0.9,-0.01,0.28,2.39,2.85
2024-12-06 13:20:21.502,56.7,519.0,0.41,0.89,-0.01,0.59,1.96,3.1
2024-12-06 13:20:21.516,58.5,506.0,0.41,0.88,-0.01,0.83,1.78,2.97
2024-12-06 13:20:21.545,56.92,507.0,0.42,0.91,-0.01,1.08,3.18,2.36
2024-12-06 13:20:21.548,56.47,516.0,0.41,0.92,-0.01,1.2,2.63,2.55
2024-12-06 13:20:21.564,56.47,506.0,0.41,0.91,-0.01,1.44,1.9,2.55
2024-12-06 13:20:21.568,51.75,481.0,0.41,0.9,-0.01,1.62,1.35,2.36
2024-12-06 13:20:21.577,58.5,556.0,0.41,0.9,-0.01,1.44,1.29,2.12
2024-12-06 13:20:21.580,56.25,510.0,0.41,0.9,-0.02,1.44,1.29,2.12
2024-12-06 13:20:21.584,53.77,522.0,0.4,0.89,-0.01,1.32,1.66,1.75
2024-12-06 13:20:21.606,55.8,512.0,0.41,0.89,-0.01,1.56,2.63,1.75
2024-12-06 13:20:21.610,52.65,505.0,0.41,0.89,-0.01,1.75,2.69,2.12
2024-12-06 13:20:21.616,51.52,516.0,0.41,0.89,-0.01,1.75,2.69,2.12
2024-12-06 13:20:21.624,53.32,520.0,0.41,0.89,-0.01,1.99,2.33,2.12
2024-12-06 13:20:21.638,50.17,501.0,0.41,0.9,-0.02,1.93,2.39,2.0
2024-12-06 13:20:21.641,46.35,505.0,0.41,0.9,-0.02,1.81,2.33,1.75
2024-12-06 13:20:21.646,49.95,506.0,0.41,0.9,-0.01,1.62,2.69,1.63
2024-12-06 13:20:21.655,47.47,515.0,0.41,0.91,-0.01,1.5,2.63,1.81
2024-12-06 13:20:21.670,54.0,501.0,0.41,0.91,-0.01,1.5,2.63,1.81
2024-12-06 13:20:21.698,49.05,508.0,0.4,0.91,-0.01,1.56,2.51,1.94
2024-12-06 13:20:21.708,53.1,505.0,0.4,0.9,-0.02,1.44,3.61,1.63
2024-12-06 13:20:21.713,46.8,502.0,0.41,0.91,-0.01,1.2,4.1,1.81
2024-12-06 13:20:21.717,51.97,505.0,0.41,0.91,-0.0,1.01,3.67,2.49
2024-12-06 13:20:21.723,46.57,505.0,0.41,0.91,-0.0,1.32,2.63,2.85
2024-12-06 13:20:21.758,50.62,488.0,0.41,0.91,-0.0,1.38,2.33,3.1
2024-12-06 13:20:21.763,43.65,496.0,0.41,0.91,-0.02,0.65,2.76,4.44
2024-12-06 13:20:21.769,46.8,499.0,0.41,0.91,-0.02,0.89,2.63,4.44
2024-12-06 13:20:21.777,42.97,514.0,0.41,0.9,-0.02,0.89,2.63,4.44
2024-12-06 13:20:21.784,45.9,500.0,0.42,0.91,-0.02,0.71,3.37,4.68
2024-12-06 13:20:21.792,42.08,499.0,0.42,0.91,-0.01,0.65,3.91,4.99
2024-12-06 13:20:21.800,45.0,499.0,0.41,0.91,-0.01,0.59,3.43,5.23
2024-12-06 13:20:21.808,41.4,489.0,0.42,0.91,-0.01,0.65,3.0,5.29
2024-12-06 13:20:21.815,40.27,507.0,0.42,0.91,-0.01,0.46,3.37,5.6
2024-12-06 13:20:21.823,45.0,489.0,0.43,0.91,-0.01,0.46,3.37,6.21
2024-12-06 13:20:21.853,42.08,497.0,0.42,0.9,-0.01,0.53,2.69,6.76
2024-12-06 13:20:21.855,42.08,507.0,0.42,0.9,-0.01,0.1,2.94,6.94
2024-12-06 13:20:21.861,40.72,500.0,0.42,0.9,-0.02,0.1,2.94,7.43
2024-12-06 13:20:21.869,39.83,501.0,0.42,0.91,-0.01,-0.08,3.24,7.43
2024-12-06 13:20:21.877,33.52,504.0,0.41,0.91,-0.01,0.22,2.39,7.67
2024-12-06 13:20:21.886,38.02,492.0,0.42,0.91,-0.01,0.22,2.94,7.73
2024-12-06 13:20:21.895,38.47,508.0,0.43,0.91,-0.02,0.04,4.04,8.16
2024-12-06 13:20:21.900,39.38,498.0,0.43,0.91,-0.02,0.22,3.85,8.53
2024-12-06 13:20:21.908,34.2,490.0,0.42,0.9,-0.01,0.22,3.85,8.53
2024-12-06 13:20:21.916,35.55,492.0,0.41,0.89,-0.01,0.28,3.79,8.53
2024-12-06 13:20:21.926,34.88,485.0,0.42,0.9,-0.01,0.1,4.4,8.65
2024-12-06 13:20:21.932,32.85,491.0,0.43,0.9,-0.01,0.22,4.46,9.14
2024-12-06 13:20:21.952,34.65,482.0,0.42,0.9,-0.01,0.53,3.18,9.44
2024-12-06 13:20:22.50,28.12,501.0,0.43,0.9,-0.0,-0.27,3.98,10.3
2024-12-06 13:20:22.53,27.22,486.0,0.43,0.9,-0.0,-0.08,3.43,10.11
2024-12-06 13:20:22.61,24.3,479.0,0.43,0.89,-0.0,-0.08,3.85,10.05
2024-12-06 13:20:22.71,25.65,484.0,0.43,0.89,-0.0,-0.08,3.85,10.05
2024-12-06 13:20:22.76,22.05,496.0,0.43,0.89,-0.0,0.04,4.46,9.99
2024-12-06 13:20:22.86,27.45,475.0,0.43,0.89,0.01,0.04,4.89,10.05
2024-12-06 13:20:22.95,24.3,507.0,0.42,0.9,0.01,0.22,4.28,9.81
2024-12-06 13:20:22.101,21.38,471.0,0.42,0.9,0.01,0.16,4.89,9.5
2024-12-06 13:20:22.106,27.45,487.0,0.43,0.89,0.0,0.16,5.38,9.69
2024-12-06 13:20:22.114,19.12,496.0,0.44,0.9,-0.0,0.28,5.38,9.69
2024-12-06 13:20:22.135,19.12,493.0,0.45,0.9,-0.01,0.4,5.62,9.99
2024-12-06 13:20:22.138,24.97,476.0,0.44,0.89,-0.01,0.71,5.56,10.05
2024-12-06 13:20:22.145,18.45,476.0,0.44,0.89,-0.01,0.83,6.54,9.81
2024-12-06 13:20:22.157,23.17,479.0,0.44,0.89,-0.0,0.83,6.54,9.81
2024-12-06 13:20:22.161,22.72,472.0,0.44,0.89,0.0,1.14,7.15,9.57
2024-12-06 13:20:22.192,20.48,492.0,0.44,0.89,0.01,1.5,7.45,9.5
2024-12-06 13:20:22.194,20.48,474.0,0.44,0.88,-0.0,2.54,9.35,9.69
2024-12-06 13:20:22.199,17.1,482.0,0.45,0.88,-0.02,2.54,9.35,9.69
2024-12-06 13:20:22.219,20.02,470.0,0.45,0.88,-0.01,2.78,10.45,10.05
2024-12-06 13:20:22.222,18.23,469.0,0.44,0.87,-0.01,3.15,10.32,10.18
2024-12-06 13:20:22.226,15.52,497.0,0.44,0.87,-0.01,3.58,9.77,9.99
2024-12-06 13:20:22.240,18.67,484.0,0.44,0.87,-0.01,3.76,9.59,10.05
2024-12-06 13:20:22.243,18.45,484.0,0.45,0.88,-0.01,3.76,9.59,10.05
2024-12-06 13:20:22.250,17.77,504.0,0.46,0.88,-0.02,3.82,9.84,10.6
2024-12-06 13:20:22.261,15.3,477.0,0.46,0.88,-0.01,3.82,9.16,10.91
2024-12-06 13:20:22.264,14.62,475.0,0.46,0.88,-0.01,3.88,8.61,10.97
2024-12-06 13:20:22.422,-0.67,458.0,0.41,0.84,0.05,2.91,7.52,11.15
2024-12-06 13:20:22.428,-6.75,472.0,0.4,0.85,0.05,2.91,4.95,6.82
2024-12-06 13:20:22.438,-1.8,467.0,0.35,0.85,0.06,2.91,4.95,6.82
2024-12-06 13:20:22.445,-9.22,475.0,0.39,0.82,0.01,3.64,5.01,3.1
2024-12-06 13:20:22.452,-9.9,490.0,0.42,0.82,0.0,5.16,7.09,1.51
2024-12-06 13:20:22.488,-10.12,491.0,0.41,0.86,0.03,4.92,9.47,-4.05
2024-12-06 13:20:22.495,-4.95,478.0,0.43,0.86,0.02,5.23,9.16,-5.69
2024-12-06 13:20:22.499,-4.28,485.0,0.44,0.86,0.01,4.8,8.0,-6.73
2024-12-06 13:20:22.505,-3.82,487.0,0.44,0.86,0.01,3.82,5.87,-7.52
2024-12-06 13:20:22.512,-1.35,476.0,0.45,0.86,0.01,3.82,3.49,-8.01
2024-12-06 13:20:22.524,-5.17,483.0,0.46,0.87,-0.0,3.09,3.49,-8.01
2024-12-06 13:20:22.557,-3.82,477.0,0.48,0.87,-0.02,1.99,-0.36,-6.67
2024-12-06 13:20:22.563,-1.8,485.0,0.48,0.88,-0.02,1.99,-0.36,-6.67
2024-12-06 13:20:22.571,-3.6,485.0,0.46,0.88,-0.01,2.17,0.37,-5.82
2024-12-06 13:20:22.576,-3.38,501.0,0.45,0.89,0.0,1.93,1.23,-5.27
2024-12-06 13:20:22.582,-4.05,487.0,0.45,0.9,0.0,2.05,2.45,-4.53
2024-12-06 13:20:22.595,-3.6,478.0,0.45,0.9,0.0,2.11,3.18,-3.8
2024-12-06 13:20:22.598,-3.6,479.0,0.44,0.9,0.02,2.11,3.18,-3.8
2024-12-06 13:20:22.605,-3.82,485.0,0.45,0.9,0.01,1.93,3.55,-3.19
2024-12-06 13:20:22.619,-0.9,551.0,0.46,0.9,0.01,1.75,3.98,-2.4
2024-12-06 13:20:22.623,-5.62,489.0,0.46,0.9,0.01,1.69,4.1,-1.36
2024-12-06 13:20:22.634,-6.97,489.0,0.46,0.9,0.01,1.5,3.98,-0.32
2024-12-06 13:20:22.660,-5.85,488.0,0.46,0.89,-0.0,0.83,3.85,1.33
2024-12-06 13:20:22.666,-1.57,478.0,0.46,0.89,0.0,0.4,3.55,1.87
2024-12-06 13:20:22.669,-4.05,501.0,0.46,0.89,0.0,0.22,2.57,2.24
2024-12-06 13:20:22.674,-5.85,493.0,0.46,0.88,0.01,0.1,1.96,2.67
2024-12-06 13:20:22.697,-4.72,488.0,0.47,0.87,0.01,0.16,1.23,3.4
2024-12-06 13:20:22.707,-0.67,488.0,0.47,0.87,0.01,0.46,1.47,3.58
2024-12-06 13:20:22.710,-4.5,483.0,0.47,0.87,0.01,0.71,1.84,3.58
2024-12-06 13:20:22.718,-4.05,494.0,0.46,0.88,0.0,0.71,1.84,3.58
2024-12-06 13:20:22.730,-0.22,492.0,0.46,0.88,0.0,1.01,2.39,3.52
2024-12-06 13:20:22.737,-4.5,491.0,0.46,0.88,0.0,1.26,2.69,3.4
2024-12-06 13:20:22.741,-4.95,490.0,0.46,0.89,-0.0,1.44,3.49,3.22
2024-12-06 13:20:22.750,-5.4,501.0,0.46,0.89,-0.0,1.44,4.34,3.22
2024-12-06 13:20:22.757,-8.1,492.0,0.45,0.89,0.0,1.44,4.34,3.22
2024-12-06 13:20:22.765,-4.5,485.0,0.44,0.88,0.01,1.44,4.83,3.28
2024-12-06 13:20:22.774,-3.82,507.0,0.43,0.88,0.01,1.56,5.14,3.28
2024-12-06 13:20:22.781,-0.67,491.0,0.43,0.88,-0.0,1.87,5.44,3.28
2024-12-06 13:20:22.791,-2.92,488.0,0.43,0.88,-0.0,1.99,5.44,3.4
2024-12-06 13:20:22.802,-3.15,489.0,0.43,0.88,-0.01,2.11,5.01,3.52
2024-12-06 13:20:22.808,-5.4,506.0,0.44,0.88,-0.01,2.11,5.01,3.52
2024-12-06 13:20:22.811,-0.9,501.0,0.44,0.88,-0.01,2.11,4.53,3.4
2024-12-06 13:20:22.819,-3.6,484.0,0.45,0.88,-0.0,2.05,3.73,3.28
2024-12-06 13:20:22.827,-3.6,508.0,0.45,0.88,-0.0,1.87,3.0,3.1
2024-12-06 13:20:22.835,-3.82,502.0,0.45,0.88,-0.0,1.62,2.82,2.85
2024-12-06 13:20:22.844,-4.28,501.0,0.45,0.88,-0.0,1.62,3.0,2.55
2024-12-06 13:20:22.882,-2.92,483.0,0.44,0.88,-0.01,1.56,3.0,2.55
2024-12-06 13:20:22.886,-7.65,495.0,0.44,0.88,0.0,1.93,3.79,2.3
2024-12-06 13:20:22.890,-4.28,500.0,0.44,0.87,0.01,1.99,3.79,2.3
2024-12-06 13:20:22.902,-1.57,485.0,0.44,0.86,0.0,2.05,3.67,2.12
2024-12-06 13:20:22.905,-6.52,481.0,0.44,0.87,-0.0,1.87,3.24,1.81
2024-12-06 13:20:22.912,-0.67,485.0,0.44,0.87,-0.0,1.62,3.12,1.45
2024-12-06 13:20:22.926,-0.9,497.0,0.44,0.88,-0.01,1.62,3.12,1.2
2024-12-06 13:20:22.928,-2.92,481.0,0.44,0.88,-0.0,1.38,2.88,1.2
2024-12-06 13:20:22.934,-3.6,488.0,0.44,0.88,0.0,1.26,2.57,1.02
2024-12-06 13:20:22.940,-2.92,513.0,0.44,0.88,0.0,1.26,2.21,0.84
2024-12-06 13:20:22.950,-3.38,491.0,0.44,0.88,0.0,1.2,1.96,0.9
2024-12-06 13:20:22.958,-3.6,493.0,0.45,0.88,-0.0,1.08,2.14,0.96
2024-12-06 13:20:22.969,-0.45,511.0,0.45,0.88,-0.0,1.08,2.14,0.96
2024-12-06 13:20:22.981,-2.25,499.0,0.44,0.88,-0.0,0.95,2.33,1.02
2024-12-06 13:20:22.983,-1.12,489.0,0.44,0.89,0.0,0.83,2.39,1.08
2024-12-06 13:20:22.996,-3.6,505.0,0.44,0.89,0.0,0.77,2.39,1.26
2024-12-06 13:20:23.95,-5.4,495.0,0.44,0.89,0.0,-0.02,1.66,2.06
2024-12-06 13:20:23.142,-6.75,504.0,0.44,0.89,0.0,-0.88,-0.17,1.81
2024-12-06 13:20:23.146,-4.05,497.0,0.44,0.9,0.01,-1.0,0.01,1.81
2024-12-06 13:20:23.150,-2.47,497.0,0.44,0.9,0.01,-1.0,-0.05,2.12
2024-12-06 13:20:23.159,0.0,489.0,0.44,0.9,0.01,-0.82,-0.24,2.55
2024-12-06 13:20:23.168,-3.38,499.0,0.44,0.9,0.0,-0.57,-0.72,2.73
2024-12-06 13:20:23.177,-6.52,493.0,0.44,0.9,0.0,-0.39,-1.4,2.67
2024-12-06 13:20:23.192,-3.6,498.0,0.43,0.89,-0.01,-0.39,-1.4,2.67
2024-12-06 13:20:23.194,-4.5,482.0,0.43,0.89,-0.01,-0.27,-1.82,2.55
2024-12-06 13:20:23.197,-3.15,505.0,0.43,0.89,-0.01,-0.27,-2.01,2.36
2024-12-06 13:20:23.208,-2.92,494.0,0.43,0.89,-0.01,-0.33,-1.94,2.24
2024-12-06 13:20:23.219,-4.5,498.0,0.43,0.89,-0.01,-0.33,-1.76,2.12
2024-12-06 13:20:23.223,-3.38,500.0,0.42,0.89,-0.01,-0.27,-1.4,2.0
