Timestamp,PosIsDeg,ForceIs,AccX,AccY,AccZ,GyroX,GyroY,GyroZ
2024-12-06 13:22:00.281,21.6,541.0,0.21,0.97,-0.02,0.65,1.6,4.44
2024-12-06 13:22:00.322,28.57,523.0,0.24,0.98,-0.03,0.65,2.14,4.62
2024-12-06 13:22:00.334,26.1,544.0,0.27,1.04,-0.01,-0.08,10.63,16.34
2024-12-06 13:22:00.362,22.05,537.0,0.23,0.99,-0.05,-0.63,16.24,24.34
2024-12-06 13:22:00.390,16.65,522.0,0.3,0.98,-0.06,-1.73,15.45,27.75
2024-12-06 13:22:00.441,12.82,540.0,0.3,0.95,-0.0,-0.63,12.4,32.03
2024-12-06 13:22:00.452,9.0,531.0,0.29,0.94,0.04,0.89,10.99,30.81
2024-12-06 13:22:00.475,-1.35,526.0,0.19,0.9,0.02,2.72,0.25,22.14
2024-12-06 13:22:00.504,1.8,557.0,0.2,0.9,0.03,3.94,-5.48,7.98
2024-12-06 13:22:00.545,-2.25,529.0,0.21,0.92,0.01,3.94,-6.58,-0.51
2024-12-06 13:22:00.572,2.7,544.0,0.19,0.94,0.0,3.21,-3.9,-5.33
2024-12-06 13:22:01.866,2.25,560.0,0.32,0.96,0.0,-4.3,5.38,9.5
2024-12-06 13:22:01.909,-2.02,527.0,0.32,0.95,0.0,-3.81,4.04,10.48
2024-12-06 13:22:01.938,-3.6,526.0,0.33,0.94,0.0,-2.28,-0.6,11.76
2024-12-06 13:22:01.945,-0.45,530.0,0.33,0.95,0.01,-2.22,-0.91,11.76
2024-12-06 13:22:01.949,0.45,524.0,0.32,0.95,0.02,-2.16,-0.91,11.76
2024-12-06 13:22:01.957,-0.67,551.0,0.31,0.95,0.03,-2.1,-0.72,11.76
2024-12-06 13:22:01.969,-2.47,525.0,0.31,0.95,0.03,-1.92,0.31,11.95
2024-12-06 13:22:01.983,1.12,546.0,0.31,0.95,0.03,-1.67,1.17,12.43
2024-12-06 13:22:02.15,4.28,546.0,0.32,0.92,0.02,-1.06,4.77,13.59
2024-12-06 13:22:02.28,-2.7,564.0,0.32,0.92,0.01,-1.06,4.77,13.59
2024-12-06 13:22:02.31,-3.6,556.0,0.31,0.93,0.03,-1.49,6.84,12.74
2024-12-06 13:22:02.38,-2.25,547.0,0.31,0.93,0.03,-1.37,6.48,12.68
2024-12-06 13:22:02.48,-2.7,537.0,0.32,0.93,0.03,-1.24,6.6,12.86
2024-12-06 13:22:02.53,-3.38,536.0,0.33,0.94,0.03,-1.24,6.6,12.86
2024-12-06 13:22:02.62,2.7,533.0,0.33,0.94,0.03,-1.24,6.72,13.04
2024-12-06 13:22:02.69,0.45,537.0,0.33,0.93,0.03,-1.31,6.11,12.8
2024-12-06 13:22:02.78,-0.67,546.0,0.33,0.93,0.03,-1.43,6.36,12.19
2024-12-06 13:22:02.87,2.92,539.0,0.33,0.93,0.03,-1.67,7.09,11.76
2024-12-06 13:22:02.93,3.38,527.0,0.34,0.93,0.03,-1.61,5.56,11.27
2024-12-06 13:22:02.130,3.6,537.0,0.32,0.93,0.05,-1.73,3.06,8.34
2024-12-06 13:22:02.133,4.05,534.0,0.32,0.92,0.06,-1.43,-1.27,4.8
2024-12-06 13:22:02.138,3.15,534.0,0.32,0.91,0.06,-1.43,-1.27,4.8
2024-12-06 13:22:02.148,0.0,555.0,0.32,0.9,0.05,-1.43,-3.04,2.55
2024-12-06 13:22:02.155,1.12,532.0,0.33,0.9,0.06,-1.55,-3.23,0.78
2024-12-06 13:22:02.251,11.25,543.0,0.32,0.95,0.02,-0.21,-3.84,-7.46
2024-12-06 13:22:02.259,9.9,550.0,0.31,0.95,0.03,0.1,-4.39,-7.34
2024-12-06 13:22:02.266,16.65,552.0,0.31,0.95,0.03,0.22,-4.45,-7.59
2024-12-06 13:22:02.274,15.52,545.0,0.32,0.95,0.04,-0.02,-3.29,-7.46
2024-12-06 13:22:02.284,13.27,538.0,0.32,0.95,0.04,-0.21,-5.36,-7.52
2024-12-06 13:22:02.306,18.45,554.0,0.34,0.93,0.03,-0.08,-5.24,-6.91
2024-12-06 13:22:02.313,17.77,536.0,0.35,0.94,0.03,0.1,-6.95,-6.24
2024-12-06 13:22:02.345,20.02,554.0,0.35,0.95,0.02,-0.39,-6.95,-5.14
2024-12-06 13:22:02.348,21.6,539.0,0.34,0.94,0.02,-0.15,-7.5,-3.25
2024-12-06 13:22:02.353,21.82,561.0,0.33,0.95,0.04,-0.39,-7.44,-2.64
2024-12-06 13:22:02.361,20.48,538.0,0.32,0.96,0.03,-0.63,-7.68,-1.97
2024-12-06 13:22:02.371,21.38,555.0,0.32,0.96,0.03,-0.57,-7.74,-1.12
2024-12-06 13:22:02.381,19.8,538.0,0.32,0.96,0.03,-0.7,-7.8,-0.02
2024-12-06 13:22:02.383,22.05,553.0,0.32,0.96,0.03,-0.7,-7.8,-0.02
2024-12-06 13:22:02.391,14.85,546.0,0.3,0.96,0.03,-0.63,-8.05,0.78
2024-12-06 13:22:02.400,26.77,555.0,0.3,0.95,0.02,-0.45,-7.32,1.02
2024-12-06 13:22:02.407,23.62,570.0,0.31,0.95,0.02,-0.51,-5.42,1.39
2024-12-06 13:22:02.418,28.57,540.0,0.31,0.95,0.02,-0.7,-4.87,2.18
2024-12-06 13:22:02.423,27.22,559.0,0.31,0.95,0.03,-0.33,-4.14,3.1
2024-12-06 13:22:02.430,24.52,562.0,0.31,0.95,0.02,-0.33,-4.14,3.1
2024-12-06 13:22:02.464,28.12,560.0,0.31,0.94,0.01,0.77,-2.01,5.84
2024-12-06 13:22:02.470,22.05,559.0,0.31,0.95,0.02,0.77,-2.01,5.84
2024-12-06 13:22:02.476,29.25,559.0,0.31,0.94,0.01,0.83,-2.01,6.21
2024-12-06 13:22:02.488,29.25,547.0,0.31,0.95,0.01,0.46,-0.72,6.57
2024-12-06 13:22:02.493,27.0,553.0,0.31,0.96,0.01,0.16,-1.46,7.37
2024-12-06 13:22:02.500,31.95,554.0,0.3,0.96,-0.0,0.4,-1.7,7.98
2024-12-06 13:22:02.508,30.82,558.0,0.3,0.96,-0.0,0.16,-1.03,8.71
2024-12-06 13:22:02.527,33.52,563.0,0.3,0.96,0.01,0.04,-0.85,9.63
2024-12-06 13:22:02.538,28.35,565.0,0.31,0.95,0.01,0.28,-1.64,10.48
2024-12-06 13:22:02.544,33.3,558.0,0.3,0.94,-0.01,0.28,-1.27,11.27
2024-12-06 13:22:02.571,27.0,552.0,0.3,0.95,0.01,-0.02,-0.72,12.01
2024-12-06 13:22:02.575,26.32,557.0,0.3,0.94,0.01,-0.02,-0.6,12.19
2024-12-06 13:22:02.578,29.02,565.0,0.29,0.94,0.01,-0.15,-0.48,11.88
2024-12-06 13:22:02.590,35.55,569.0,0.29,0.93,0.01,-0.21,0.01,11.34
2024-12-06 13:22:02.596,30.82,573.0,0.29,0.93,0.01,-0.08,0.31,10.85
2024-12-06 13:22:02.604,27.9,554.0,0.29,0.93,0.02,-0.08,0.31,10.3
2024-12-06 13:22:02.609,30.38,553.0,0.3,0.93,0.02,0.16,0.07,10.3
2024-12-06 13:22:02.616,33.97,573.0,0.3,0.93,0.02,0.28,0.62,9.81
2024-12-06 13:22:02.625,34.2,582.0,0.29,0.93,0.02,0.4,0.99,9.2
2024-12-06 13:22:02.640,33.3,576.0,0.29,0.93,0.03,0.34,1.29,8.53
2024-12-06 13:22:02.642,23.4,568.0,0.29,0.93,0.03,0.22,1.41,7.8
2024-12-06 13:22:02.650,33.3,627.0,0.29,0.93,0.02,0.22,1.41,7.8
2024-12-06 13:22:02.656,32.4,566.0,0.3,0.93,0.02,0.28,2.14,7.43
2024-12-06 13:22:02.663,33.08,567.0,0.31,0.94,0.03,0.04,1.53,7.61
2024-12-06 13:22:02.699,33.3,560.0,0.3,0.93,0.02,-0.7,1.23,7.55
2024-12-06 13:22:02.705,38.02,574.0,0.31,0.93,0.02,-1.06,1.41,7.49
2024-12-06 13:22:02.709,32.85,586.0,0.31,0.93,0.02,-1.18,1.66,7.49
2024-12-06 13:22:02.719,38.25,587.0,0.31,0.93,0.02,-1.06,1.6,7.73
2024-12-06 13:22:02.724,35.33,570.0,0.32,0.93,0.02,-1.06,1.72,8.1
2024-12-06 13:22:02.731,36.22,577.0,0.32,0.93,0.03,-0.88,1.72,8.1
2024-12-06 13:22:02.740,37.12,564.0,0.32,0.94,0.04,-1.0,1.23,8.28
2024-12-06 13:22:02.749,36.9,570.0,0.32,0.94,0.03,-1.0,0.25,8.16
2024-12-06 13:22:02.755,36.45,572.0,0.32,0.94,0.02,-1.12,1.23,7.73
2024-12-06 13:22:02.763,38.25,585.0,0.32,0.94,0.02,-1.24,1.6,7.49
2024-12-06 13:22:02.774,39.83,579.0,0.33,0.94,0.03,-1.24,-14.03,7.61
2024-12-06 13:22:02.804,39.15,565.0,0.32,0.92,0.04,-0.76,0.01,6.82
2024-12-06 13:22:02.825,41.85,603.0,0.34,0.94,0.03,-0.39,1.96,6.03
2024-12-06 13:22:02.829,40.95,589.0,0.33,0.94,0.04,-0.21,2.21,5.96
2024-12-06 13:22:02.909,42.08,558.0,0.33,0.94,0.05,-0.02,2.08,5.66
2024-12-06 13:22:02.925,43.42,589.0,0.33,0.93,0.02,-1.24,1.17,8.04
2024-12-06 13:22:02.929,46.8,594.0,0.34,0.94,0.02,-1.31,1.6,7.98
2024-12-06 13:22:02.937,47.25,589.0,0.34,0.94,0.04,-1.49,1.47,8.47
2024-12-06 13:22:02.950,50.17,590.0,0.33,0.94,0.04,-1.31,0.37,8.89
2024-12-06 13:22:02.955,45.9,603.0,0.33,0.93,0.03,-1.31,1.23,8.59
2024-12-06 13:22:02.960,48.38,608.0,0.32,0.93,0.03,-1.67,2.08,8.65
2024-12-06 13:22:02.968,46.57,583.0,0.34,0.95,0.03,-1.67,2.08,8.65
2024-12-06 13:22:02.977,45.9,607.0,0.35,0.95,0.03,-1.61,1.96,9.26
2024-12-06 13:22:02.984,49.95,611.0,0.34,0.95,0.03,-1.31,1.78,9.81
2024-12-06 13:22:02.996,47.47,592.0,0.34,0.95,0.03,-1.24,1.6,10.11
2024-12-06 13:22:03.24,49.95,592.0,0.34,0.94,0.03,-1.79,1.29,10.18
2024-12-06 13:22:03.35,47.02,591.0,0.34,0.94,0.03,-1.92,0.68,10.42
2024-12-06 13:22:03.42,53.1,608.0,0.34,0.93,0.03,-1.92,0.44,10.6
2024-12-06 13:22:03.69,53.32,596.0,0.35,0.93,0.02,-1.85,1.17,11.58
2024-12-06 13:22:03.76,53.77,608.0,0.35,0.93,0.03,-1.73,1.23,12.13
2024-12-06 13:22:03.114,54.22,620.0,0.34,0.92,0.03,-1.55,1.84,12.43
2024-12-06 13:22:03.118,56.02,631.0,0.34,0.92,0.03,-1.61,2.08,12.01
2024-12-06 13:22:03.135,53.77,572.0,0.35,0.92,0.04,-1.73,2.39,11.52
2024-12-06 13:22:03.138,56.7,589.0,0.35,0.93,0.04,-1.73,2.39,11.52
2024-12-06 13:22:03.146,59.17,599.0,0.35,0.93,0.04,-1.49,2.08,11.52
2024-12-06 13:22:03.154,59.17,609.0,0.35,0.93,0.04,-1.37,2.14,11.58
2024-12-06 13:22:03.173,60.75,593.0,0.36,0.92,0.03,-1.31,2.14,11.34
2024-12-06 13:22:03.183,57.82,611.0,0.36,0.92,0.04,-1.31,2.14,11.21
2024-12-06 13:22:03.296,60.75,612.0,0.36,0.92,0.05,-1.49,2.45,11.03
2024-12-06 13:22:03.306,57.82,621.0,0.39,0.91,0.04,-0.82,2.94,9.02
2024-12-06 13:22:03.312,61.88,608.0,0.39,0.91,0.05,-0.63,2.39,9.02
2024-12-06 13:22:03.322,59.85,617.0,0.39,0.91,0.05,-0.45,1.9,8.83
2024-12-06 13:22:03.327,61.88,619.0,0.38,0.91,0.05,-0.45,1.9,8.41
2024-12-06 13:22:03.337,62.1,606.0,0.38,0.91,0.05,-0.51,1.72,8.41
2024-12-06 13:22:03.344,59.85,591.0,0.39,0.91,0.05,-0.7,1.84,7.98
2024-12-06 13:22:03.351,65.92,608.0,0.39,0.92,0.06,-0.94,1.72,8.04
2024-12-06 13:22:03.360,60.3,640.0,0.39,0.92,0.06,-1.06,1.05,8.41
2024-12-06 13:22:03.367,60.75,614.0,0.39,0.92,0.06,-1.06,0.37,8.83
2024-12-06 13:22:03.375,61.65,609.0,0.39,0.92,0.06,-1.06,0.37,9.2
2024-12-06 13:22:03.387,64.57,623.0,0.38,0.92,0.05,-1.24,-0.3,9.2
2024-12-06 13:22:03.390,67.5,618.0,0.39,0.92,0.05,-1.55,-0.66,9.44
2024-12-06 13:22:03.401,63.0,609.0,0.39,0.92,0.05,-1.73,-1.09,9.75
2024-12-06 13:22:03.410,63.22,619.0,0.39,0.92,0.05,-1.37,-2.74,9.81
2024-12-06 13:22:03.418,63.45,611.0,0.39,0.92,0.05,-1.73,-2.31,10.42
2024-12-06 13:22:03.426,66.15,623.0,0.39,0.92,0.05,-1.73,-2.31,10.42
2024-12-06 13:22:03.432,63.67,619.0,0.38,0.93,0.06,-2.16,-2.31,11.03
2024-12-06 13:22:03.437,69.07,614.0,0.36,0.94,0.07,-2.47,-3.1,12.8
2024-12-06 13:22:03.445,67.5,613.0,0.35,0.93,0.07,-2.47,-3.78,14.69
2024-12-06 13:22:03.483,63.45,623.0,0.39,0.92,0.06,-2.59,-2.98,17.8
2024-12-06 13:22:03.489,58.5,628.0,0.4,0.92,0.06,-2.65,-2.86,18.11
2024-12-06 13:22:03.492,61.42,636.0,0.42,0.91,0.06,-2.95,-2.74,17.87
2024-12-06 13:22:03.499,67.95,635.0,0.42,0.91,0.06,-3.44,-2.86,16.77
2024-12-06 13:22:03.507,67.72,621.0,0.45,0.89,0.05,-3.44,-2.92,14.69
2024-12-06 13:22:03.519,68.17,620.0,0.47,0.88,0.05,-3.87,-2.92,14.69
2024-12-06 13:22:03.528,68.62,644.0,0.47,0.89,0.05,-4.42,-3.04,12.8
2024-12-06 13:22:03.531,63.45,628.0,0.46,0.9,0.05,-4.42,-4.51,11.88
2024-12-06 13:22:03.539,66.15,619.0,0.44,0.89,0.04,-4.24,-5.79,11.03
2024-12-06 13:22:03.547,64.8,636.0,0.44,0.89,0.04,-4.11,-5.91,10.05
2024-12-06 13:22:03.558,71.1,622.0,0.43,0.88,0.05,-3.56,-6.4,9.2
2024-12-06 13:22:03.565,65.92,623.0,0.43,0.88,0.05,-3.56,-6.4,9.2
2024-12-06 13:22:03.571,66.6,632.0,0.42,0.88,0.05,-2.95,-6.03,8.41
2024-12-06 13:22:03.580,69.53,610.0,0.4,0.89,0.05,-2.04,-5.55,7.43
2024-12-06 13:22:03.590,70.2,624.0,0.39,0.88,0.05,-0.7,-4.63,6.15
2024-12-06 13:22:03.594,70.88,642.0,0.39,0.85,0.07,-1.18,-1.82,4.8
2024-12-06 13:22:03.605,68.85,617.0,0.4,0.85,0.07,-0.51,-0.91,4.38
2024-12-06 13:22:03.612,66.15,620.0,0.4,0.86,0.07,-0.51,-0.91,4.62
2024-12-06 13:22:03.618,71.32,632.0,0.4,0.88,0.07,-1.43,-0.66,4.62
2024-12-06 13:22:03.628,71.78,617.0,0.39,0.88,0.06,-1.0,-0.05,4.8
2024-12-06 13:22:03.634,71.1,628.0,0.39,0.9,0.05,-1.18,0.92,4.26
2024-12-06 13:22:03.643,74.03,635.0,0.42,0.92,0.05,-1.55,1.84,4.01
2024-12-06 13:22:03.657,74.92,637.0,0.41,0.92,0.05,-1.37,1.84,4.26
2024-12-06 13:22:03.664,74.25,631.0,0.42,0.92,0.06,-1.37,1.84,4.26
2024-12-06 13:22:03.668,70.42,631.0,0.42,0.9,0.05,-0.57,1.05,4.26
2024-12-06 13:22:03.673,74.92,644.0,0.43,0.89,0.05,-0.02,0.68,3.89
2024-12-06 13:22:03.689,75.82,632.0,0.44,0.9,0.06,-0.02,0.5,3.52
2024-12-06 13:22:03.720,76.72,638.0,0.42,0.91,0.07,-0.94,-0.11,2.79
2024-12-06 13:22:03.728,77.17,645.0,0.42,0.91,0.07,-0.7,0.07,3.1
2024-12-06 13:22:03.734,81.0,631.0,0.42,0.89,0.06,-0.82,0.31,3.46
2024-12-06 13:22:03.743,81.67,634.0,0.43,0.9,0.05,-0.82,0.31,3.46
2024-12-06 13:22:03.755,81.22,654.0,0.43,0.9,0.05,-1.31,0.37,4.07
2024-12-06 13:22:03.761,84.15,639.0,0.43,0.9,0.05,-1.49,-0.3,4.74
2024-12-06 13:22:03.766,78.97,638.0,0.43,0.9,0.05,-1.24,-0.91,5.05
2024-12-06 13:22:03.779,80.55,645.0,0.43,0.9,0.05,-1.61,-1.21,5.66
2024-12-06 13:22:03.782,77.85,636.0,0.44,0.91,0.05,-2.16,-2.13,6.64
2024-12-06 13:22:03.804,81.22,652.0,0.44,0.91,0.06,-2.16,-2.13,6.64
2024-12-06 13:22:03.818,82.8,653.0,0.43,0.86,0.05,-2.47,-3.59,7.43
2024-12-06 13:22:03.822,87.3,633.0,0.43,0.86,0.05,-2.4,-3.41,7.31
2024-12-06 13:22:03.828,80.55,656.0,0.43,0.87,0.06,-2.4,-3.41,7.31
2024-12-06 13:22:03.839,85.05,654.0,0.43,0.89,0.06,-2.47,-3.41,7.8
2024-12-06 13:22:03.848,85.5,644.0,0.42,0.9,0.05,-2.22,-2.98,8.1
2024-12-06 13:22:03.851,83.03,635.0,0.41,0.91,0.05,-2.04,-2.43,8.28
2024-12-06 13:22:03.880,86.85,642.0,0.41,0.91,0.05,-2.1,-2.07,9.63
2024-12-06 13:22:03.886,87.97,638.0,0.37,0.91,0.05,-1.24,-2.86,14.14
2024-12-06 13:22:03.889,83.92,637.0,0.4,0.91,0.05,-1.31,-2.31,14.51
2024-12-06 13:22:03.899,82.12,647.0,0.42,0.91,0.05,-1.37,-1.82,14.26
2024-12-06 13:22:03.905,86.62,656.0,0.42,0.91,0.05,-1.43,-1.4,13.53
2024-12-06 13:22:03.941,85.95,643.0,0.46,0.87,0.04,-1.55,-1.09,9.32
2024-12-06 13:22:03.946,90.0,642.0,0.46,0.87,0.04,-1.06,-1.52,8.16
2024-12-06 13:22:03.950,83.7,667.0,0.45,0.87,0.04,-1.06,-1.52,7.06
2024-12-06 13:22:03.961,89.32,648.0,0.43,0.87,0.05,-0.7,-1.52,7.06
2024-12-06 13:22:03.966,86.62,648.0,0.42,0.87,0.06,-0.57,-1.15,6.27
2024-12-06 13:22:03.977,86.17,653.0,0.42,0.87,0.06,-0.27,-0.42,5.54
2024-12-06 13:22:03.984,91.8,666.0,0.42,0.87,0.06,0.1,0.13,4.99
2024-12-06 13:22:03.991,90.9,654.0,0.42,0.87,0.06,0.34,0.44,4.93
2024-12-06 13:22:03.997,89.1,682.0,0.42,0.88,0.06,0.34,0.44,4.93
2024-12-06 13:22:04.8,85.95,660.0,0.41,0.89,0.05,0.77,1.17,4.44
2024-12-06 13:22:04.18,89.77,667.0,0.41,0.89,0.05,1.5,1.96,4.32
2024-12-06 13:22:04.21,87.75,654.0,0.44,0.87,0.06,0.71,3.85,3.77
2024-12-06 13:22:04.30,92.92,662.0,0.44,0.87,0.05,0.95,4.83,3.22
2024-12-06 13:22:04.43,91.12,659.0,0.44,0.87,0.05,0.89,5.26,2.36
2024-12-06 13:22:04.63,93.38,698.0,0.46,0.86,0.07,1.14,5.56,1.39
2024-12-06 13:22:04.85,90.45,672.0,0.45,0.88,0.06,1.14,5.07,1.69
2024-12-06 13:22:04.90,93.38,775.0,0.44,0.88,0.06,1.08,5.62,2.24
2024-12-06 13:22:04.96,96.3,682.0,0.44,0.88,0.06,1.32,5.62,2.24
2024-12-06 13:22:04.99,90.9,676.0,0.45,0.88,0.05,1.5,5.68,2.42
2024-12-06 13:22:04.105,94.05,684.0,0.45,0.9,0.06,1.14,5.2,2.97
2024-12-06 13:22:04.114,92.25,666.0,0.45,0.9,0.06,0.4,4.46,3.64
2024-12-06 13:22:04.121,92.92,700.0,0.44,0.92,0.06,0.1,4.04,3.83
2024-12-06 13:22:04.163,95.4,692.0,0.44,0.9,0.06,0.1,4.04,3.83
2024-12-06 13:22:04.166,96.3,695.0,0.45,0.9,0.07,-0.51,2.82,5.54
2024-12-06 13:22:04.170,99.0,692.0,0.45,0.91,0.07,-0.51,2.82,5.54
2024-12-06 13:22:04.176,98.32,692.0,0.45,0.91,0.07,-0.39,2.76,5.84
2024-12-06 13:22:04.183,97.88,699.0,0.45,0.9,0.07,-0.27,2.51,5.78
2024-12-06 13:22:04.192,98.77,689.0,0.45,0.89,0.07,-0.02,2.21,5.48
2024-12-06 13:22:04.199,97.88,681.0,0.45,0.89,0.07,0.22,1.78,5.41
2024-12-06 13:22:04.206,99.45,685.0,0.45,0.88,0.07,0.22,1.78,5.41
2024-12-06 13:22:04.214,102.15,691.0,0.44,0.88,0.06,0.65,1.11,5.66
2024-12-06 13:22:04.224,99.67,699.0,0.44,0.88,0.06,0.95,0.74,6.03
2024-12-06 13:22:04.235,99.22,704.0,0.44,0.88,0.06,0.89,0.44,6.27
2024-12-06 13:22:04.238,97.88,692.0,0.44,0.87,0.06,0.83,0.07,6.15
2024-12-06 13:22:04.245,101.02,706.0,0.44,0.87,0.06,0.53,-0.48,6.03
2024-12-06 13:22:04.347,101.25,698.0,0.45,0.9,0.07,-0.08,-0.91,6.27
2024-12-06 13:22:04.354,102.6,692.0,0.45,0.88,0.06,-1.67,-1.4,5.96
2024-12-06 13:22:04.361,102.6,761.0,0.45,0.88,0.06,-1.79,-1.88,5.9
2024-12-06 13:22:04.390,100.8,693.0,0.44,0.86,0.07,-1.37,-2.13,5.72
2024-12-06 13:22:04.394,103.5,698.0,0.44,0.86,0.07,-1.18,-1.94,5.66
2024-12-06 13:22:04.397,105.3,697.0,0.44,0.86,0.07,-1.12,-1.64,5.54
2024-12-06 13:22:04.404,101.7,709.0,0.43,0.87,0.06,-1.06,-1.09,5.6
2024-12-06 13:22:04.415,106.65,697.0,0.43,0.88,0.06,-1.06,-1.09,5.6
2024-12-06 13:22:04.421,106.42,711.0,0.43,0.89,0.06,-1.24,-0.42,5.6
2024-12-06 13:22:04.428,109.12,705.0,0.43,0.92,0.07,-1.49,-0.54,5.9
2024-12-06 13:22:04.435,104.17,717.0,0.42,0.94,0.07,-1.98,-1.88,6.51
2024-12-06 13:22:04.447,105.3,701.0,0.42,0.94,0.07,-1.61,-1.82,6.45
2024-12-06 13:22:04.458,104.17,700.0,0.42,0.91,0.06,-1.61,-2.01,5.96
2024-12-06 13:22:04.460,107.32,713.0,0.45,0.88,0.06,-1.12,-2.01,5.96
2024-12-06 13:22:04.468,104.85,710.0,0.46,0.87,0.06,-0.76,-2.07,5.41
2024-12-06 13:22:04.482,104.62,698.0,0.45,0.86,0.07,-0.21,-2.19,5.11
2024-12-06 13:22:04.485,107.32,704.0,0.45,0.86,0.07,0.34,-2.74,5.05
2024-12-06 13:22:04.489,106.42,712.0,0.44,0.87,0.07,0.65,-2.01,4.99
2024-12-06 13:22:04.500,108.0,699.0,0.43,0.86,0.06,0.65,-2.01,4.99
2024-12-06 13:22:04.511,108.0,722.0,0.43,0.86,0.06,0.77,-1.09,4.8
2024-12-06 13:22:04.514,106.65,715.0,0.43,0.86,0.06,0.71,-0.24,4.62
2024-12-06 13:22:04.524,109.57,706.0,0.43,0.86,0.06,0.59,0.5,4.44
2024-12-06 13:22:04.536,108.0,723.0,0.43,0.86,0.06,0.71,1.11,4.38
2024-12-06 13:22:04.540,104.85,704.0,0.44,0.86,0.06,0.89,1.66,4.19
2024-12-06 13:22:04.544,107.32,702.0,0.44,0.86,0.06,0.89,1.66,4.19
2024-12-06 13:22:04.553,104.62,720.0,0.44,0.87,0.06,1.14,2.02,3.89
2024-12-06 13:22:04.560,104.85,737.0,0.44,0.87,0.06,1.26,2.45,3.64
2024-12-06 13:22:04.568,109.8,703.0,0.44,0.87,0.06,1.26,2.76,3.52
2024-12-06 13:22:04.576,105.07,708.0,0.44,0.87,0.06,1.38,3.06,3.52
2024-12-06 13:22:04.585,103.72,712.0,0.45,0.87,0.07,1.75,3.12,3.71
2024-12-06 13:22:04.613,106.42,725.0,0.45,0.87,0.06,1.75,2.45,3.64
2024-12-06 13:22:04.617,108.22,703.0,0.44,0.88,0.06,1.2,2.45,3.46
2024-12-06 13:22:04.623,108.45,718.0,0.44,0.88,0.06,0.71,2.63,3.28
2024-12-06 13:22:04.633,109.57,714.0,0.43,0.89,0.06,0.71,2.63,3.28
2024-12-06 13:22:04.639,108.67,703.0,0.43,0.9,0.07,0.28,2.76,3.16
2024-12-06 13:22:04.646,107.1,699.0,0.44,0.9,0.07,0.04,2.94,3.22
2024-12-06 13:22:04.654,107.77,700.0,0.45,0.9,0.07,0.22,2.82,3.34
2024-12-06 13:22:04.661,105.07,746.0,0.45,0.89,0.06,0.59,2.33,3.4
2024-12-06 13:22:04.670,101.02,705.0,0.45,0.89,0.06,0.89,1.6,3.28
2024-12-06 13:22:04.681,106.65,719.0,0.45,0.89,0.06,0.89,1.6,3.28
2024-12-06 13:22:04.684,107.55,703.0,0.45,0.89,0.06,0.89,1.17,3.22
2024-12-06 13:22:04.694,108.9,714.0,0.45,0.89,0.06,0.83,0.92,3.16
2024-12-06 13:22:04.704,107.32,716.0,0.45,0.89,0.06,0.71,1.05,3.22
2024-12-06 13:22:04.708,104.85,694.0,0.45,0.89,0.06,0.59,1.29,3.4
2024-12-06 13:22:04.718,108.45,698.0,0.45,0.89,0.07,0.59,1.6,3.58
2024-12-06 13:22:04.730,109.57,687.0,0.45,0.89,0.07,0.59,1.6,3.58
2024-12-06 13:22:04.735,107.1,691.0,0.45,0.89,0.06,0.71,1.6,3.83
2024-12-06 13:22:04.743,106.2,696.0,0.45,0.89,0.06,0.83,1.41,3.89
2024-12-06 13:22:04.747,106.42,714.0,0.45,0.89,0.07,0.89,1.11,4.01
2024-12-06 13:22:04.758,106.2,694.0,0.45,0.89,0.07,0.95,0.74,4.01
2024-12-06 13:22:04.762,106.65,735.0,0.45,0.89,0.07,0.95,0.37,4.13
2024-12-06 13:22:04.773,98.55,703.0,0.45,0.89,0.07,1.01,0.37,4.13
2024-12-06 13:22:04.787,102.15,696.0,0.45,0.89,0.07,0.89,0.25,4.19
2024-12-06 13:22:04.792,106.42,696.0,0.45,0.89,0.07,0.83,0.19,4.26
2024-12-06 13:22:04.794,106.65,709.0,0.45,0.88,0.06,0.83,0.13,4.5
2024-12-06 13:22:04.803,104.85,697.0,0.45,0.88,0.06,0.95,0.13,4.68
2024-12-06 13:22:04.817,108.0,717.0,0.45,0.88,0.06,0.95,0.13,4.8
2024-12-06 13:22:04.821,107.55,698.0,0.45,0.88,0.06,1.01,0.13,4.8
2024-12-06 13:22:04.824,102.15,712.0,0.45,0.88,0.07,0.95,0.19,4.8
2024-12-06 13:22:04.832,107.32,694.0,0.45,0.88,0.07,1.01,0.13,4.8
2024-12-06 13:22:04.842,105.3,692.0,0.45,0.87,0.07,1.2,0.07,4.87
2024-12-06 13:22:04.849,106.88,687.0,0.45,0.87,0.07,1.32,-0.05,4.93
2024-12-06 13:22:04.882,107.32,692.0,0.45,0.89,0.06,1.26,-0.05,4.5
2024-12-06 13:22:04.888,101.7,704.0,0.45,0.89,0.06,1.01,0.56,4.5
2024-12-06 13:22:04.900,107.1,684.0,0.44,0.89,0.06,1.01,0.37,4.07
2024-12-06 13:22:04.904,105.52,656.0,0.43,0.88,0.06,1.08,0.37,4.07
2024-12-06 13:22:04.912,104.85,697.0,0.43,0.89,0.06,0.95,0.5,3.58
2024-12-06 13:22:04.926,106.65,703.0,0.43,0.88,0.06,1.38,0.74,2.97
2024-12-06 13:22:04.936,107.32,685.0,0.43,0.88,0.06,1.93,0.31,2.67
2024-12-06 13:22:04.943,103.5,694.0,0.44,0.89,0.05,1.93,0.99,2.79
2024-12-06 13:22:04.950,101.92,680.0,0.45,0.89,0.05,1.81,0.99,2.79
2024-12-06 13:22:04.959,107.1,675.0,0.45,0.89,0.05,1.93,1.17,2.79
2024-12-06 13:22:04.965,102.15,688.0,0.44,0.89,0.05,2.11,0.92,2.61
2024-12-06 13:22:04.974,104.4,680.0,0.44,0.89,0.06,2.05,0.8,2.3
2024-12-06 13:22:04.982,109.8,683.0,0.44,0.89,0.06,1.93,0.62,2.0
2024-12-06 13:22:05.1,107.77,675.0,0.43,0.88,0.06,1.93,0.62,2.0
2024-12-06 13:22:05.5,108.67,682.0,0.44,0.89,0.06,1.56,1.6,1.94
2024-12-06 13:22:05.11,103.27,673.0,0.44,0.89,0.06,1.56,1.96,2.3
2024-12-06 13:22:05.21,104.4,675.0,0.44,0.89,0.06,1.56,1.6,2.61
2024-12-06 13:22:05.28,107.32,673.0,0.44,0.89,0.06,1.38,1.23,2.73
2024-12-06 13:22:05.43,103.95,679.0,0.45,0.88,0.06,1.38,1.23,2.73
2024-12-06 13:22:05.64,108.45,678.0,0.44,0.89,0.05,1.26,-0.17,3.03
2024-12-06 13:22:05.67,106.65,677.0,0.44,0.89,0.05,1.38,-0.36,3.03
2024-12-06 13:22:05.75,106.65,663.0,0.44,0.89,0.05,1.38,-0.36,3.03
2024-12-06 13:22:05.87,106.2,682.0,0.44,0.89,0.05,1.62,-0.24,2.91
2024-12-06 13:22:05.100,103.95,670.0,0.44,0.89,0.06,1.81,0.74,2.79
2024-12-06 13:22:05.106,107.1,652.0,0.44,0.89,0.06,1.62,1.41,2.67
2024-12-06 13:22:05.114,108.67,664.0,0.43,0.88,0.06,1.62,2.14,2.55
2024-12-06 13:22:05.120,109.57,675.0,0.44,0.88,0.06,1.38,2.14,2.55
2024-12-06 13:22:05.130,105.52,678.0,0.44,0.87,0.06,1.14,2.39,2.55
2024-12-06 13:22:05.136,103.05,672.0,0.44,0.87,0.06,0.95,2.45,2.61
2024-12-06 13:22:05.148,101.7,729.0,0.44,0.87,0.05,0.89,2.51,2.61
2024-12-06 13:22:05.151,107.1,684.0,0.44,0.87,0.05,0.95,2.33,2.61
2024-12-06 13:22:05.163,105.52,668.0,0.44,0.88,0.05,1.01,2.33,2.55
2024-12-06 13:22:05.172,107.1,663.0,0.43,0.88,0.05,1.01,2.33,2.55
2024-12-06 13:22:05.177,107.55,667.0,0.43,0.88,0.05,1.14,2.51,2.36
2024-12-06 13:22:05.185,105.75,659.0,0.43,0.89,0.05,1.2,2.94,2.3
2024-12-06 13:22:05.191,109.12,665.0,0.42,0.89,0.06,1.38,3.12,2.06
2024-12-06 13:22:05.204,105.07,691.0,0.42,0.89,0.06,1.32,3.43,1.81
2024-12-06 13:22:05.211,109.35,686.0,0.42,0.89,0.06,1.32,4.22,1.57
2024-12-06 13:22:05.218,104.4,675.0,0.43,0.89,0.06,1.32,4.22,1.57
2024-12-06 13:22:05.224,107.1,685.0,0.42,0.89,0.05,1.2,4.71,1.39
2024-12-06 13:22:05.230,106.65,678.0,0.42,0.89,0.05,1.14,4.89,1.14
2024-12-06 13:22:05.406,104.17,702.0,0.44,0.9,0.06,1.2,0.13,2.85
2024-12-06 13:22:05.412,108.9,651.0,0.45,0.91,0.06,1.5,-0.24,3.58
2024-12-06 13:22:05.422,109.35,661.0,0.45,0.91,0.06,1.87,-0.66,4.5
2024-12-06 13:22:05.426,109.35,670.0,0.45,0.91,0.06,2.36,-1.21,5.11
2024-12-06 13:22:05.434,101.92,658.0,0.45,0.91,0.06,2.42,-2.01,5.23
2024-12-06 13:22:05.443,103.72,636.0,0.45,0.91,0.05,2.42,-2.8,5.05
2024-12-06 13:22:05.455,108.45,641.0,0.44,0.9,0.06,2.17,-2.8,5.05
2024-12-06 13:22:05.459,107.32,655.0,0.44,0.89,0.06,1.81,-3.04,4.74
2024-12-06 13:22:05.475,109.57,642.0,0.44,0.88,0.06,1.69,-2.74,4.56
2024-12-06 13:22:05.482,108.45,633.0,0.43,0.88,0.06,1.75,-2.43,4.5
2024-12-06 13:22:05.484,104.85,641.0,0.43,0.88,0.06,1.87,-2.31,4.44
2024-12-06 13:22:05.493,106.88,641.0,0.43,0.88,0.06,1.87,-2.31,4.44
2024-12-06 13:22:05.500,108.0,642.0,0.44,0.88,0.05,2.05,-2.13,4.56
2024-12-06 13:22:05.530,102.82,619.0,0.42,0.89,0.05,2.54,-3.04,3.95
2024-12-06 13:22:05.534,106.65,638.0,0.42,0.89,0.04,2.54,-3.04,3.95
2024-12-06 13:22:05.547,106.65,663.0,0.42,0.89,0.04,2.42,-2.86,3.83
2024-12-06 13:22:05.551,106.42,632.0,0.42,0.89,0.04,2.3,-2.62,3.64
2024-12-06 13:22:05.562,110.7,611.0,0.41,0.88,0.04,2.17,-2.37,3.22
2024-12-06 13:22:05.567,109.57,635.0,0.41,0.88,0.04,2.11,-2.37,2.79
2024-12-06 13:22:05.577,104.4,632.0,0.41,0.88,0.04,2.05,-2.25,2.3
2024-12-06 13:22:05.586,105.97,629.0,0.42,0.89,0.04,2.05,-2.25,2.3
2024-12-06 13:22:05.591,108.67,610.0,0.42,0.89,0.03,2.11,-2.01,1.69
2024-12-06 13:22:05.598,107.77,607.0,0.43,0.89,0.03,2.05,-1.4,0.78
2024-12-06 13:22:05.607,104.62,632.0,0.43,0.89,0.04,1.87,-0.6,-0.51
2024-12-06 13:22:05.614,104.85,636.0,0.43,0.89,0.04,1.75,-0.05,-1.97
2024-12-06 13:22:05.622,106.65,628.0,0.44,0.89,0.04,1.81,0.19,-3.13
2024-12-06 13:22:05.631,106.88,603.0,0.44,0.89,0.04,1.81,0.19,-3.13
2024-12-06 13:22:05.638,108.45,619.0,0.43,0.89,0.04,1.93,0.31,-3.68
2024-12-06 13:22:05.646,107.32,614.0,0.42,0.89,0.04,2.05,0.37,-3.86
2024-12-06 13:22:05.666,103.72,614.0,0.41,0.89,0.04,2.05,0.44,-3.92
2024-12-06 13:22:05.670,106.88,630.0,0.41,0.89,0.04,2.54,0.31,-3.13
2024-12-06 13:22:05.682,108.9,610.0,0.41,0.9,0.04,2.54,0.31,-2.76
2024-12-06 13:22:05.687,104.17,620.0,0.41,0.9,0.04,2.78,0.13,-2.76
2024-12-06 13:22:05.694,104.17,611.0,0.41,0.89,0.04,2.97,0.07,-2.4
2024-12-06 13:22:05.703,106.42,621.0,0.41,0.89,0.04,3.03,0.01,-2.21
2024-12-06 13:22:05.714,106.65,608.0,0.41,0.93,0.03,3.03,-0.17,-1.42
2024-12-06 13:22:05.746,108.67,609.0,0.39,0.91,0.03,3.09,-0.78,0.17
2024-12-06 13:22:05.749,107.1,622.0,0.37,0.94,0.06,0.4,-1.88,3.28
2024-12-06 13:22:05.754,104.85,609.0,0.37,0.94,0.06,-0.15,-2.56,4.68
2024-12-06 13:22:05.768,100.12,608.0,0.38,0.93,0.05,-0.15,-2.56,20.31
2024-12-06 13:22:05.772,104.17,624.0,0.39,0.93,0.04,-1.06,-3.47,6.03
2024-12-06 13:22:05.781,103.72,609.0,0.4,0.91,0.03,-1.73,-4.26,7.06
2024-12-06 13:22:05.786,105.75,618.0,0.41,0.9,0.03,-2.1,-5.48,7.8
2024-12-06 13:22:05.794,94.95,595.0,0.42,0.9,0.04,-2.4,-6.34,8.41
2024-12-06 13:22:05.802,101.92,608.0,0.42,0.9,0.04,-2.65,-7.19,8.83
2024-12-06 13:22:05.814,102.15,614.0,0.43,0.9,0.04,-2.65,-7.32,8.77
2024-12-06 13:22:05.819,100.57,628.0,0.43,0.89,0.03,-2.4,-7.32,8.77
2024-12-06 13:22:05.827,96.75,600.0,0.43,0.89,0.03,-1.85,-7.62,8.16
2024-12-06 13:22:05.833,101.92,595.0,0.43,0.9,0.03,-1.92,-7.93,7.55
2024-12-06 13:22:05.841,98.77,613.0,0.42,0.89,0.03,-1.73,-6.77,6.76
2024-12-06 13:22:05.853,97.65,601.0,0.42,0.89,0.03,-1.0,-5.67,5.84
2024-12-06 13:22:05.859,96.75,599.0,0.41,0.88,0.03,-1.0,-5.67,5.11
2024-12-06 13:22:05.864,92.7,594.0,0.41,0.88,0.03,-0.57,-5.3,5.11
2024-12-06 13:22:05.882,95.17,586.0,0.39,0.87,0.04,0.16,-4.08,4.19
2024-12-06 13:22:05.887,95.17,594.0,0.4,0.86,0.03,0.89,-2.56,3.4
2024-12-06 13:22:05.889,96.97,602.0,0.4,0.86,0.03,1.38,-1.46,2.97
2024-12-06 13:22:05.895,92.25,605.0,0.4,0.86,0.03,2.05,-0.72,2.36
2024-12-06 13:22:05.909,90.9,588.0,0.4,0.86,0.02,2.05,-0.72,2.36
2024-12-06 13:22:05.912,94.05,599.0,0.4,0.87,0.02,2.72,-0.11,1.75
2024-12-06 13:22:05.920,88.88,620.0,0.4,0.88,0.03,2.66,-0.42,1.63
2024-12-06 13:22:05.934,91.12,595.0,0.4,0.87,0.02,3.27,0.44,1.08
2024-12-06 13:22:05.938,88.2,566.0,0.4,0.87,0.02,3.76,0.19,0.53
2024-12-06 13:22:05.970,91.57,587.0,0.38,0.9,0.02,4.55,0.62,-1.18
2024-12-06 13:22:05.977,87.97,581.0,0.38,0.9,0.02,4.49,1.41,-1.67
2024-12-06 13:22:05.982,86.62,579.0,0.39,0.91,0.02,4.49,1.9,-2.15
2024-12-06 13:22:05.988,87.75,590.0,0.39,0.9,0.02,4.86,1.9,-2.15
2024-12-06 13:22:05.995,85.72,576.0,0.39,0.92,0.03,5.04,2.02,-2.21
2024-12-06 13:22:06.4,80.78,584.0,0.39,0.91,0.03,4.86,1.96,-2.03
2024-12-06 13:22:06.11,83.92,587.0,0.39,0.9,0.03,5.16,1.17,-2.4
2024-12-06 13:22:06.18,81.45,577.0,0.39,0.9,0.03,4.86,0.99,-2.52
2024-12-06 13:22:06.29,77.85,567.0,0.4,0.9,0.03,4.86,0.99,-2.28
2024-12-06 13:22:06.34,84.82,575.0,0.4,0.9,0.03,4.25,0.8,-2.28
2024-12-06 13:22:06.42,79.65,550.0,0.4,0.9,0.03,4.07,0.62,-2.52
2024-12-06 13:22:06.50,80.78,569.0,0.41,0.9,0.03,3.82,0.13,-2.52
2024-12-06 13:22:06.58,79.2,566.0,0.41,0.91,0.04,3.46,-0.05,-2.21
2024-12-06 13:22:06.72,73.8,580.0,0.41,0.91,0.04,3.21,-0.85,-2.15
2024-12-06 13:22:06.76,79.2,566.0,0.4,0.9,0.04,3.21,-0.85,-2.15
2024-12-06 13:22:06.81,80.1,567.0,0.41,0.91,0.04,2.97,-1.03,-2.09
2024-12-06 13:22:06.92,80.32,561.0,0.41,0.92,0.04,2.48,-0.91,-1.79
2024-12-06 13:22:06.97,75.82,577.0,0.4,0.92,0.04,2.11,-0.97,-1.42
2024-12-06 13:22:06.105,75.15,581.0,0.41,0.91,0.03,1.99,-0.78,-1.24
2024-12-06 13:22:06.129,77.62,574.0,0.42,0.91,0.02,2.05,-0.54,-0.81
2024-12-06 13:22:06.137,76.5,558.0,0.41,0.91,0.03,1.62,-0.78,0.41
2024-12-06 13:22:06.144,74.92,574.0,0.4,0.91,0.02,1.38,-1.33,0.65
2024-12-06 13:22:06.152,73.12,572.0,0.4,0.91,0.02,1.26,-1.4,0.47
2024-12-06 13:22:06.160,73.57,579.0,0.4,0.91,0.01,0.95,-1.27,0.41
2024-12-06 13:22:06.195,71.55,567.0,0.4,0.91,0.01,0.95,-1.27,0.41
2024-12-06 13:22:06.198,75.6,573.0,0.4,0.91,0.01,1.81,-1.46,1.39
2024-12-06 13:22:06.205,69.3,564.0,0.4,0.9,0.01,1.81,-1.46,1.39
2024-12-06 13:22:06.213,74.25,555.0,0.4,0.9,0.01,2.11,-1.03,1.14
2024-12-06 13:22:06.225,74.03,558.0,0.4,0.91,0.01,2.36,-0.48,0.84
2024-12-06 13:22:06.231,70.88,574.0,0.4,0.91,0.02,2.72,-0.24,0.65
2024-12-06 13:22:06.244,69.3,556.0,0.4,0.91,0.02,3.21,-0.3,0.65
2024-12-06 13:22:06.247,67.5,553.0,0.4,0.91,0.02,3.58,-0.54,0.78
2024-12-06 13:22:06.252,66.82,559.0,0.4,0.91,0.01,3.58,-0.54,0.78
2024-12-06 13:22:06.260,73.57,550.0,0.39,0.91,0.01,3.82,-0.78,0.78
2024-12-06 13:22:06.269,68.17,553.0,0.39,0.91,0.0,3.88,-0.36,0.65
2024-12-06 13:22:06.279,67.95,568.0,0.38,0.91,0.01,3.76,-0.85,0.23
2024-12-06 13:22:06.289,69.97,556.0,0.38,0.91,0.01,3.46,-0.78,0.04
2024-12-06 13:22:06.292,72.45,567.0,0.38,0.91,0.01,3.39,-0.48,-0.38
2024-12-06 13:22:06.304,71.32,566.0,0.38,0.91,0.01,3.39,-0.48,-0.38
2024-12-06 13:22:06.318,69.53,557.0,0.37,0.93,0.01,3.64,-0.24,-0.32
2024-12-06 13:22:06.325,64.57,556.0,0.37,0.94,0.01,3.58,0.01,-0.14
2024-12-06 13:22:06.338,67.28,570.0,0.37,0.94,0.01,3.33,0.44,-0.14
2024-12-06 13:22:06.341,68.17,556.0,0.37,0.93,0.01,3.15,1.11,-0.26
2024-12-06 13:22:06.346,68.4,554.0,0.37,0.92,0.01,3.15,1.11,-0.26
2024-12-06 13:22:06.446,65.03,546.0,0.37,0.91,0.01,1.56,1.35,0.59
2024-12-06 13:22:06.454,66.6,555.0,0.38,0.91,0.01,1.56,1.35,0.59
2024-12-06 13:22:06.466,64.35,546.0,0.38,0.92,0.01,1.62,1.53,0.9
2024-12-06 13:22:06.469,65.03,576.0,0.38,0.92,0.01,1.62,1.78,1.45
2024-12-06 13:22:06.473,61.65,553.0,0.37,0.91,0.0,1.75,1.35,1.51
2024-12-06 13:22:06.484,63.0,550.0,0.37,0.91,0.0,1.69,1.66,1.2
2024-12-06 13:22:06.496,64.35,540.0,0.37,0.91,0.0,1.69,1.66,1.08
2024-12-06 13:22:06.498,59.85,550.0,0.38,0.92,0.0,1.5,2.02,1.08
2024-12-06 13:22:06.505,62.32,543.0,0.38,0.92,-0.0,1.5,2.08,1.26
2024-12-06 13:22:06.512,58.95,548.0,0.37,0.92,0.0,1.62,1.78,1.63
2024-12-06 13:22:06.520,60.97,543.0,0.41,0.93,-0.0,1.56,1.17,2.06
2024-12-06 13:22:06.535,60.97,546.0,0.38,0.93,-0.0,1.5,0.37,2.12
2024-12-06 13:22:06.541,63.22,559.0,0.37,0.93,-0.0,1.5,0.37,2.12
2024-12-06 13:22:06.545,60.3,543.0,0.36,0.92,-0.01,1.56,0.01,1.69
2024-12-06 13:22:06.552,63.0,543.0,0.37,0.92,-0.0,1.56,0.37,1.14
2024-12-06 13:22:06.560,62.1,546.0,0.37,0.93,-0.0,1.62,0.56,0.84
2024-12-06 13:22:06.573,61.88,558.0,0.37,0.93,-0.0,1.69,0.5,0.9
2024-12-06 13:22:06.582,56.92,544.0,0.37,0.92,-0.0,1.99,0.25,0.96
2024-12-06 13:22:06.589,61.42,538.0,0.37,0.91,0.0,1.99,0.25,0.96
2024-12-06 13:22:06.595,56.02,558.0,0.37,0.91,0.0,2.05,-0.48,0.53
2024-12-06 13:22:06.598,58.27,550.0,0.36,0.91,-0.0,1.93,-0.48,-0.08
2024-12-06 13:22:06.607,56.92,549.0,0.36,0.92,-0.01,1.75,0.07,-0.57
2024-12-06 13:22:06.614,55.12,548.0,0.37,0.92,-0.01,1.75,0.44,-0.44
2024-12-06 13:22:06.670,56.47,541.0,0.36,0.93,-0.01,1.75,0.44,-0.44
2024-12-06 13:22:06.692,55.57,551.0,0.35,0.93,-0.0,2.05,1.84,1.02
2024-12-06 13:22:06.696,54.9,542.0,0.35,0.92,-0.0,1.99,1.47,1.02
2024-12-06 13:22:06.703,53.55,534.0,0.35,0.93,0.0,1.56,1.05,1.08
2024-12-06 13:22:06.718,54.9,530.0,0.36,0.93,-0.0,1.2,0.8,1.57
2024-12-06 13:22:06.725,47.7,524.0,0.35,0.93,-0.01,1.14,0.86,2.06
2024-12-06 13:22:06.753,48.38,532.0,0.35,0.93,-0.01,1.08,0.56,2.24
2024-12-06 13:22:06.762,50.62,545.0,0.36,0.93,-0.0,0.4,0.5,2.79
2024-12-06 13:22:06.771,51.97,518.0,0.36,0.93,-0.0,0.34,0.5,3.46
2024-12-06 13:22:06.774,49.95,558.0,0.36,0.93,-0.0,0.34,0.5,3.46
2024-12-06 13:22:06.781,51.52,536.0,0.35,0.93,-0.0,0.28,-0.6,4.01
2024-12-06 13:22:06.804,45.67,530.0,0.36,0.93,-0.01,-0.27,0.56,4.19
2024-12-06 13:22:06.807,47.92,525.0,0.36,0.93,-0.01,-0.51,0.68,4.68
2024-12-06 13:22:06.810,47.25,524.0,0.37,0.94,-0.01,-0.57,1.23,5.35
2024-12-06 13:22:06.822,48.38,517.0,0.36,0.94,-0.0,-0.57,1.23,5.35
2024-12-06 13:22:06.829,46.35,513.0,0.36,0.94,0.01,-0.51,0.19,5.84
2024-12-06 13:22:06.834,44.77,512.0,0.36,0.93,0.0,-0.45,0.25,5.9
2024-12-06 13:22:06.842,42.08,529.0,0.37,0.92,0.0,-0.39,0.99,5.96
2024-12-06 13:22:06.869,45.0,515.0,0.37,0.92,0.01,-0.02,1.84,5.9
2024-12-06 13:22:06.872,46.8,515.0,0.37,0.92,0.02,0.04,0.99,6.21
2024-12-06 13:22:07.9,39.6,525.0,0.34,0.94,-0.01,2.42,1.29,2.49
2024-12-06 13:22:07.14,35.33,533.0,0.35,0.93,-0.01,2.36,1.23,2.42
2024-12-06 13:22:07.22,41.85,512.0,0.35,0.93,-0.01,2.05,1.29,2.36
2024-12-06 13:22:07.31,39.38,506.0,0.35,0.93,-0.01,1.93,1.29,2.3
2024-12-06 13:22:07.39,39.15,520.0,0.35,0.93,-0.01,1.81,1.41,2.3
2024-12-06 13:22:07.46,38.47,581.0,0.35,0.93,-0.01,1.75,1.6,2.61
2024-12-06 13:22:07.55,36.67,524.0,0.35,0.93,-0.01,1.75,1.6,2.61
2024-12-06 13:22:07.62,37.8,526.0,0.35,0.93,-0.01,1.81,1.6,3.1
2024-12-06 13:22:07.93,31.5,502.0,0.34,0.92,-0.01,1.87,1.41,3.22
2024-12-06 13:22:07.100,36.45,515.0,0.35,0.92,-0.01,1.69,2.02,3.46
2024-12-06 13:22:07.104,33.52,507.0,0.36,0.92,-0.01,1.5,2.33,3.77
2024-12-06 13:22:07.108,33.75,512.0,0.35,0.92,-0.01,1.32,2.14,3.95
2024-12-06 13:22:07.122,32.4,503.0,0.35,0.92,-0.01,1.14,2.39,3.89
2024-12-06 13:22:07.127,33.08,508.0,0.36,0.92,-0.01,0.89,2.63,3.95
2024-12-06 13:22:07.132,32.62,508.0,0.36,0.92,-0.01,0.71,2.82,4.19
2024-12-06 13:22:07.140,32.17,517.0,0.36,0.93,-0.01,0.71,2.82,4.5
2024-12-06 13:22:07.149,28.8,523.0,0.35,0.92,-0.0,0.59,2.51,4.5
2024-12-06 13:22:07.156,28.12,495.0,0.35,0.91,-0.0,0.71,1.47,4.5
2024-12-06 13:22:07.164,30.15,512.0,0.36,0.91,-0.01,0.46,1.66,4.38
2024-12-06 13:22:07.172,27.22,513.0,0.38,0.92,-0.01,0.1,2.02,4.68
2024-12-06 13:22:07.182,31.5,496.0,0.38,0.92,-0.01,-0.27,1.23,5.05
2024-12-06 13:22:07.213,26.77,513.0,0.38,0.93,-0.0,-1.12,3.0,5.78
2024-12-06 13:22:07.250,29.92,501.0,0.38,0.93,-0.0,-1.31,3.43,6.39
2024-12-06 13:22:07.258,23.4,521.0,0.36,0.93,-0.0,-1.37,3.43,6.88
2024-12-06 13:22:07.261,20.02,523.0,0.36,0.93,-0.0,-1.43,2.63,6.7
2024-12-06 13:22:07.263,22.27,517.0,0.36,0.92,-0.01,-1.43,2.63,6.7
2024-12-06 13:22:07.271,21.6,499.0,0.38,0.92,-0.02,-1.61,3.24,6.94
2024-12-06 13:22:07.281,23.4,512.0,0.38,0.91,-0.01,-1.67,3.55,7.43
2024-12-06 13:22:07.288,20.25,502.0,0.36,0.91,-0.01,-1.55,2.45,7.49
2024-12-06 13:22:07.321,19.8,518.0,0.36,0.92,-0.02,-1.55,2.21,7.18
2024-12-06 13:22:07.323,19.35,498.0,0.36,0.92,-0.0,-1.43,1.96,7.43
2024-12-06 13:22:07.327,20.92,491.0,0.35,0.92,-0.0,-1.12,1.78,7.18
2024-12-06 13:22:07.333,20.48,509.0,0.37,0.93,-0.01,-1.0,2.57,7.18
2024-12-06 13:22:07.340,15.07,503.0,0.37,0.93,-0.01,-0.82,3.79,7.8
2024-12-06 13:22:07.350,18.67,490.0,0.38,0.93,-0.01,-0.51,3.24,8.22
2024-12-06 13:22:07.358,14.62,499.0,0.36,0.93,-0.0,-0.51,3.24,8.22
2024-12-06 13:22:07.367,14.85,495.0,0.36,0.93,-0.01,-0.45,3.55,8.04
2024-12-06 13:22:07.380,11.02,497.0,0.37,0.93,-0.01,-0.33,4.04,8.04
2024-12-06 13:22:07.382,12.6,491.0,0.36,0.92,-0.01,-0.15,3.79,8.22
2024-12-06 13:22:07.388,13.5,482.0,0.36,0.92,-0.01,-0.08,3.49,8.1
2024-12-06 13:22:07.399,14.17,484.0,0.36,0.92,0.0,-0.02,3.91,8.16
2024-12-06 13:22:07.494,5.4,504.0,0.4,0.91,0.0,1.81,6.48,10.11
2024-12-06 13:22:07.500,2.47,498.0,0.38,0.91,0.0,2.05,7.7,10.66
2024-12-06 13:22:07.508,7.65,486.0,0.39,0.91,0.0,2.05,7.7,10.66
2024-12-06 13:22:07.520,3.82,485.0,0.38,0.91,0.0,2.05,7.82,10.79
2024-12-06 13:22:07.523,0.0,487.0,0.39,0.9,-0.0,2.36,8.07,11.03
2024-12-06 13:22:07.531,-1.12,480.0,0.39,0.9,0.0,2.66,9.16,11.64
2024-12-06 13:22:07.543,-0.45,493.0,0.39,0.9,-0.03,2.91,9.65,12.25
2024-12-06 13:22:07.547,-4.05,502.0,0.39,0.9,-0.0,3.09,10.87,13.04
2024-12-06 13:22:07.576,-4.72,484.0,0.34,0.87,0.0,5.16,7.09,11.15
2024-12-06 13:22:07.582,-4.95,489.0,0.38,0.88,-0.0,4.86,9.47,8.83
2024-12-06 13:22:07.586,-2.7,498.0,0.38,0.88,-0.0,3.52,10.02,7.06
2024-12-06 13:22:07.592,-2.7,503.0,0.36,0.91,0.05,3.52,10.02,7.06
2024-12-06 13:22:07.605,-7.2,501.0,0.31,0.89,0.04,2.66,7.21,3.58
2024-12-06 13:22:07.621,-4.72,504.0,0.34,0.88,0.03,3.76,6.11,0.53
2024-12-06 13:22:07.623,-3.38,494.0,0.34,0.88,0.03,3.7,2.76,-3.56
2024-12-06 13:22:07.634,-5.85,488.0,0.33,0.89,0.01,3.7,1.29,-5.57
2024-12-06 13:22:07.646,-5.62,503.0,0.34,0.89,0.01,4.0,1.29,-5.57
2024-12-06 13:22:07.663,-1.57,498.0,0.36,0.91,0.01,3.7,-0.3,-8.38
2024-12-06 13:22:07.672,-2.7,524.0,0.36,0.91,0.01,2.91,-0.66,-8.99
2024-12-06 13:22:07.679,-2.47,515.0,0.36,0.92,0.01,2.17,-1.09,-9.17
2024-12-06 13:22:07.693,0.0,516.0,0.36,0.92,0.01,2.17,-1.09,-9.17
2024-12-06 13:22:07.696,-0.67,499.0,0.38,0.92,-0.01,2.11,0.19,-6.91
2024-12-06 13:22:07.700,-2.92,513.0,0.37,0.93,-0.01,1.93,0.25,-5.39
2024-12-06 13:22:07.709,-0.22,503.0,0.37,0.93,-0.01,1.81,0.62,-4.05
2024-12-06 13:22:07.715,-4.28,505.0,0.36,0.93,-0.01,1.81,0.62,-4.05
2024-12-06 13:22:07.724,-5.62,509.0,0.35,0.93,0.0,1.62,0.56,-3.01
2024-12-06 13:22:07.734,-2.92,513.0,0.34,0.93,0.0,1.01,0.13,-2.46
2024-12-06 13:22:07.740,-0.22,529.0,0.35,0.93,-0.01,0.46,0.56,-1.97
2024-12-06 13:22:07.748,-0.9,517.0,0.35,0.93,-0.01,-0.02,0.68,-1.48
2024-12-06 13:22:07.780,-8.1,508.0,0.36,0.92,-0.01,-0.63,1.05,-0.93
2024-12-06 13:22:07.782,-2.02,508.0,0.37,0.93,-0.0,-1.55,0.92,1.08
2024-12-06 13:22:07.786,-3.15,508.0,0.37,0.93,0.0,-1.73,0.62,2.18
2024-12-06 13:22:07.794,-2.47,516.0,0.37,0.93,0.0,-1.73,0.92,3.16
2024-12-06 13:22:07.800,-2.7,535.0,0.37,0.93,-0.0,-1.73,0.92,3.16
2024-12-06 13:22:07.813,-2.92,514.0,0.37,0.94,-0.01,-1.73,1.72,3.89
2024-12-06 13:22:07.816,-0.9,503.0,0.37,0.94,-0.0,-1.67,2.39,4.56
2024-12-06 13:22:07.827,-0.45,509.0,0.37,0.93,0.01,-1.55,2.76,5.05
2024-12-06 13:22:07.832,-2.92,508.0,0.37,0.93,0.01,-1.31,2.76,5.41
2024-12-06 13:22:07.841,-1.57,522.0,0.38,0.92,0.01,-1.0,2.82,5.78
2024-12-06 13:22:07.847,-3.15,529.0,0.38,0.92,-0.0,-1.0,2.82,5.78
2024-12-06 13:22:07.854,-0.45,512.0,0.38,0.92,-0.0,-0.88,2.88,6.03
2024-12-06 13:22:07.862,-5.62,522.0,0.38,0.92,0.0,-0.7,2.63,6.15
2024-12-06 13:22:07.872,-6.52,516.0,0.38,0.92,0.0,-0.39,2.21,6.09
2024-12-06 13:22:07.881,-7.88,513.0,0.38,0.92,0.0,-0.15,1.6,5.96
2024-12-06 13:22:07.892,-2.92,500.0,0.38,0.92,0.0,0.04,1.17,5.78
2024-12-06 13:22:07.894,-8.1,499.0,0.38,0.92,0.0,0.04,1.17,5.78
2024-12-06 13:22:07.902,-3.82,480.0,0.37,0.92,0.0,0.22,1.11,5.41
2024-12-06 13:22:07.918,-5.4,520.0,0.37,0.92,-0.0,0.53,1.17,5.11
2024-12-06 13:22:07.929,-2.7,537.0,0.37,0.92,-0.0,0.71,1.47,4.93
2024-12-06 13:22:07.933,-3.38,507.0,0.36,0.92,-0.0,0.89,1.78,4.8
2024-12-06 13:22:07.940,-2.7,510.0,0.36,0.92,-0.0,1.01,1.78,4.74
2024-12-06 13:22:07.954,-6.07,506.0,0.36,0.92,0.0,1.26,1.53,4.74
2024-12-06 13:22:07.959,-3.82,501.0,0.35,0.93,-0.0,1.44,1.35,4.87
2024-12-06 13:22:07.964,-9.45,517.0,0.35,0.93,-0.0,1.56,1.17,4.93
2024-12-06 13:22:07.971,-2.47,504.0,0.35,0.92,-0.0,1.56,1.17,4.93
2024-12-06 13:22:07.979,-0.45,517.0,0.35,0.92,-0.01,1.69,1.35,4.93
2024-12-06 13:22:07.986,0.0,521.0,0.35,0.92,-0.01,1.69,1.6,4.8
2024-12-06 13:22:08.24,-3.6,509.0,0.35,0.92,-0.01,1.69,1.96,4.74
2024-12-06 13:22:08.31,0.0,511.0,0.36,0.92,-0.0,1.62,3.12,4.74
2024-12-06 13:22:08.35,-4.5,512.0,0.36,0.92,0.0,1.69,2.88,4.68
2024-12-06 13:22:08.39,-1.8,507.0,0.36,0.92,0.0,1.75,2.39,4.56
2024-12-06 13:22:08.47,-5.17,537.0,0.36,0.91,0.0,1.75,2.08,4.32
2024-12-06 13:22:08.58,-0.45,503.0,0.36,0.91,0.0,1.75,2.08,4.32
2024-12-06 13:22:08.71,-2.47,506.0,0.37,0.91,0.0,1.75,2.08,4.01
2024-12-06 13:22:08.74,-2.47,518.0,0.37,0.91,0.0,1.62,2.33,3.71
2024-12-06 13:22:08.77,-5.17,516.0,0.37,0.91,0.01,1.56,2.45,3.4
2024-12-06 13:22:08.86,-0.22,506.0,0.37,0.91,0.01,1.56,2.69,3.16
2024-12-06 13:22:08.96,-0.22,533.0,0.37,0.91,0.01,1.56,2.69,3.03
2024-12-06 13:22:08.101,-2.7,508.0,0.37,0.91,0.0,1.5,3.12,3.03
2024-12-06 13:22:08.109,-1.35,500.0,0.37,0.91,0.0,1.38,3.49,2.97
2024-12-06 13:22:08.117,-3.15,522.0,0.37,0.91,0.0,1.2,3.61,2.91
2024-12-06 13:22:08.135,-5.62,517.0,0.37,0.91,0.0,1.01,3.49,2.97
2024-12-06 13:22:08.138,-1.57,496.0,0.37,0.92,0.0,0.89,3.18,3.1
2024-12-06 13:22:08.141,-9.68,507.0,0.37,0.92,0.0,0.89,3.18,3.1
2024-12-06 13:22:08.148,-6.97,497.0,0.36,0.92,0.0,0.77,2.76,3.16
2024-12-06 13:22:08.171,-2.47,514.0,0.36,0.92,-0.0,0.28,2.39,2.85
2024-12-06 13:22:08.178,-4.05,511.0,0.36,0.92,0.0,0.28,2.39,2.85
2024-12-06 13:22:08.185,-2.25,513.0,0.36,0.92,0.0,0.16,2.45,2.79
2024-12-06 13:22:08.193,-6.07,511.0,0.36,0.92,0.0,0.1,2.51,2.79
2024-12-06 13:22:08.227,-2.92,517.0,0.36,0.92,0.0,0.1,2.39,2.85
2024-12-06 13:22:08.230,-0.45,504.0,0.36,0.92,-0.0,0.22,2.08,2.97
2024-12-06 13:22:08.236,-1.57,516.0,0.36,0.92,0.0,0.22,1.9,2.85
2024-12-06 13:22:08.245,-0.22,512.0,0.36,0.92,0.0,0.22,1.66,2.61
2024-12-06 13:22:08.274,-3.15,528.0,0.36,0.93,0.0,0.22,1.17,2.0
2024-12-06 13:22:08.278,-0.22,522.0,0.36,0.93,-0.0,0.16,1.29,1.94
2024-12-06 13:22:08.283,-5.62,520.0,0.36,0.93,-0.0,0.16,1.11,1.94
2024-12-06 13:22:08.297,-5.4,500.0,0.36,0.93,0.0,0.16,1.11,1.94
2024-12-06 13:22:08.300,-1.12,516.0,0.36,0.93,0.0,0.22,0.62,2.0
2024-12-06 13:22:08.307,-2.47,509.0,0.36,0.92,0.0,0.4,0.13,2.06
2024-12-06 13:22:08.316,-4.5,524.0,0.36,0.92,-0.0,0.53,-0.36,2.06
2024-12-06 13:22:08.333,-0.22,557.0,0.35,0.91,-0.0,0.59,-1.58,1.63
2024-12-06 13:22:08.338,-1.57,518.0,0.35,0.91,-0.01,0.71,-1.58,1.63
2024-12-06 13:22:08.344,-0.45,509.0,0.36,0.91,-0.01,0.71,-2.19,1.39
2024-12-06 13:22:08.353,-3.82,502.0,0.36,0.92,-0.01,0.59,-1.64,1.14
2024-12-06 13:22:08.370,-2.02,543.0,0.35,0.92,-0.0,0.53,0.01,1.02
2024-12-06 13:22:08.376,-4.5,510.0,0.35,0.92,0.01,0.53,0.01,1.02
2024-12-06 13:22:08.386,-0.22,512.0,0.35,0.92,0.01,0.71,0.68,1.33
2024-12-06 13:22:08.391,-2.47,490.0,0.35,0.93,0.01,0.95,1.29,1.87
2024-12-06 13:22:08.398,-5.62,516.0,0.35,0.93,0.01,1.08,1.66,2.42
2024-12-06 13:22:08.406,-6.07,514.0,0.35,0.93,0.01,1.08,2.08,2.91
2024-12-06 13:22:08.415,-4.72,502.0,0.35,0.93,0.01,1.08,2.08,2.91
2024-12-06 13:22:08.423,-4.28,527.0,0.36,0.93,0.0,0.95,2.39,3.16
2024-12-06 13:22:08.547,-0.9,528.0,0.35,0.92,-0.0,-0.21,0.31,5.23
2024-12-06 13:22:08.553,-1.8,506.0,0.35,0.92,-0.0,-0.33,0.37,5.29
2024-12-06 13:22:08.558,-2.7,514.0,0.35,0.92,-0.0,-0.33,0.37,5.29
2024-12-06 13:22:08.562,-5.4,510.0,0.36,0.92,-0.01,-0.45,0.25,5.35
2024-12-06 13:22:08.570,-2.47,528.0,0.36,0.93,-0.0,-0.51,0.31,5.66
2024-12-06 13:22:08.579,-5.17,505.0,0.36,0.93,-0.0,-0.63,0.74,6.03
2024-12-06 13:22:08.587,1.35,519.0,0.36,0.93,-0.0,-0.57,1.41,6.27
2024-12-06 13:22:08.594,-2.92,535.0,0.36,0.93,-0.01,-0.51,1.9,6.51
2024-12-06 13:22:08.615,-4.72,525.0,0.35,0.93,-0.0,-0.33,2.21,6.76
2024-12-06 13:22:08.620,-2.7,508.0,0.35,0.92,-0.0,-0.15,2.63,6.94
2024-12-06 13:22:08.639,-0.22,513.0,0.35,0.92,-0.0,-0.02,2.94,7.06
2024-12-06 13:22:08.644,-2.7,528.0,0.36,0.92,-0.0,0.1,3.0,7.12
2024-12-06 13:22:08.677,-2.25,520.0,0.36,0.92,-0.0,0.16,2.88,7.25
2024-12-06 13:22:08.681,0.22,538.0,0.36,0.93,0.0,-0.15,2.51,7.43
2024-12-06 13:22:08.686,-4.5,536.0,0.37,0.93,0.0,-0.21,2.27,7.73
2024-12-06 13:22:08.695,-2.47,525.0,0.38,0.93,-0.0,-0.15,2.14,8.28
2024-12-06 13:22:08.700,-1.8,527.0,0.38,0.93,0.0,-0.15,2.21,8.89
2024-12-06 13:22:08.707,-0.45,527.0,0.39,0.93,0.0,-0.08,2.39,9.5
2024-12-06 13:22:08.715,-0.67,529.0,0.38,0.93,0.01,-0.08,2.39,9.5
2024-12-06 13:22:08.724,0.45,522.0,0.38,0.92,0.01,-0.02,2.14,9.93
2024-12-06 13:22:08.732,0.45,545.0,0.39,0.92,0.01,0.04,1.53,10.11
2024-12-06 13:22:08.743,-4.05,511.0,0.39,0.92,0.01,-0.02,1.29,10.18
2024-12-06 13:22:08.755,-6.97,509.0,0.38,0.92,0.0,-0.08,2.45,9.57
2024-12-06 13:22:08.764,-1.12,506.0,0.38,0.92,0.0,-0.08,2.45,9.57
2024-12-06 13:22:08.770,0.22,510.0,0.37,0.92,0.0,-0.02,3.24,9.26
2024-12-06 13:22:08.779,-2.25,531.0,0.37,0.92,0.0,0.1,5.01,9.38
2024-12-06 13:22:08.791,-2.47,526.0,0.37,0.92,0.01,0.4,6.05,9.81
2024-12-06 13:22:08.802,-2.02,512.0,0.37,0.92,0.01,0.71,6.48,10.18
2024-12-06 13:22:08.805,-0.45,501.0,0.36,0.91,0.01,0.71,6.48,10.18
2024-12-06 13:22:08.811,-5.17,527.0,0.36,0.91,0.0,0.89,7.15,10.36
2024-12-06 13:22:08.818,-4.72,524.0,0.36,0.92,0.0,0.95,7.03,10.54
2024-12-06 13:22:08.825,-2.7,510.0,0.37,0.92,0.0,0.89,6.42,10.97
2024-12-06 13:22:08.837,-1.8,520.0,0.38,0.92,-0.0,0.77,5.68,11.52
2024-12-06 13:22:08.841,-2.02,532.0,0.38,0.92,-0.0,0.53,4.77,12.01
2024-12-06 13:22:08.852,-6.75,508.0,0.38,0.92,-0.0,0.53,4.77,12.01
2024-12-06 13:22:08.899,-0.22,522.0,0.38,0.91,0.0,-0.39,5.01,13.17
2024-12-06 13:22:08.902,-5.62,512.0,0.38,0.91,0.01,-0.15,6.23,13.29
2024-12-06 13:22:08.908,-2.7,517.0,0.38,0.91,0.01,-0.02,6.97,13.35
2024-12-06 13:22:08.916,-0.9,511.0,0.39,0.91,0.01,0.16,7.45,13.35
2024-12-06 13:22:08.940,-4.5,512.0,0.39,0.92,0.02,0.16,7.15,13.23
2024-12-06 13:22:08.945,-2.7,531.0,0.39,0.91,0.01,0.1,7.27,13.11
2024-12-06 13:22:08.953,-2.7,516.0,0.39,0.91,0.01,0.04,7.7,13.04
2024-12-06 13:22:08.962,-6.97,524.0,0.39,0.9,0.01,0.04,7.7,13.04
2024-12-06 13:22:08.970,-4.28,514.0,0.39,0.9,0.01,-0.02,8.0,12.86
2024-12-06 13:22:08.978,-1.8,515.0,0.39,0.9,0.01,0.04,7.15,12.98
2024-12-06 13:22:08.985,0.0,517.0,0.4,0.9,0.0,-0.02,7.09,13.11
2024-12-06 13:22:08.998,-2.02,515.0,0.41,0.91,0.01,-0.15,6.66,13.29
2024-12-06 13:22:09.3,-4.5,529.0,0.41,0.91,0.01,-0.45,5.87,13.53
2024-12-06 13:22:09.8,-3.82,516.0,0.41,0.91,0.01,-0.45,5.87,13.53
2024-12-06 13:22:09.16,-1.8,527.0,0.41,0.91,0.02,-0.82,5.56,13.59
2024-12-06 13:22:09.26,-1.35,509.0,0.4,0.9,0.02,-1.06,5.01,13.59
2024-12-06 13:22:09.39,-0.67,510.0,0.38,0.89,0.03,-0.94,3.12,13.11
2024-12-06 13:22:09.50,-3.6,517.0,0.38,0.89,0.03,-0.39,1.11,11.7
2024-12-06 13:22:09.53,-4.5,514.0,0.38,0.89,0.02,-0.82,2.14,10.36
2024-12-06 13:22:09.56,0.9,515.0,0.39,0.89,0.01,-0.82,2.14,10.36
2024-12-06 13:22:09.63,-5.62,523.0,0.38,0.9,0.03,-1.49,3.18,9.08
2024-12-06 13:22:09.71,1.12,536.0,0.37,0.9,0.05,-2.16,3.79,7.55
2024-12-06 13:22:09.78,-4.05,514.0,0.37,0.89,0.05,-2.16,3.0,6.15
2024-12-06 13:22:09.87,-1.12,518.0,0.37,0.89,0.05,-2.1,1.17,4.8
2024-12-06 13:22:09.95,-1.8,537.0,0.37,0.89,0.05,-2.34,0.25,3.52
2024-12-06 13:22:09.128,-2.7,532.0,0.39,0.9,0.04,-2.89,-2.43,0.78
2024-12-06 13:22:09.134,-1.8,539.0,0.38,0.9,0.04,-3.08,-3.1,-0.38
2024-12-06 13:22:09.140,4.95,532.0,0.39,0.89,0.04,-3.08,-3.1,-0.38
2024-12-06 13:22:09.153,4.5,517.0,0.4,0.89,0.04,-3.2,-2.92,-1.05
2024-12-06 13:22:09.159,4.72,546.0,0.38,0.88,0.04,-3.01,-4.57,-1.67
2024-12-06 13:22:09.163,5.85,544.0,0.39,0.89,0.03,-3.01,-5.0,-2.52
2024-12-06 13:22:09.175,3.38,546.0,0.39,0.89,0.03,-3.2,-4.08,-2.76
2024-12-06 13:22:09.180,8.1,544.0,0.4,0.89,0.04,-3.2,-4.08,-3.25
2024-12-06 13:22:09.186,9.68,527.0,0.39,0.89,0.05,-2.95,-6.52,-3.25
2024-12-06 13:22:09.198,9.68,545.0,0.39,0.88,0.04,-2.89,-6.77,-4.17
2024-12-06 13:22:09.202,8.77,530.0,0.39,0.88,0.04,-3.08,-6.03,-4.96
2024-12-06 13:22:09.210,7.65,552.0,0.4,0.88,0.03,-2.77,-7.13,-5.51
2024-12-06 13:22:09.225,9.0,532.0,0.4,0.88,0.03,-2.83,-5.55,-5.51
2024-12-06 13:22:09.234,13.27,581.0,0.42,0.89,0.03,-2.83,-5.55,-5.51
2024-12-06 13:22:09.237,12.15,532.0,0.39,0.9,0.04,-2.47,-7.32,-5.75
2024-12-06 13:22:09.243,14.17,540.0,0.4,0.89,0.03,-2.16,-7.07,-6.3
2024-12-06 13:22:09.250,18.45,526.0,0.4,0.9,0.03,-1.92,-7.01,-6.67
2024-12-06 13:22:09.257,13.5,542.0,0.4,0.9,0.02,-1.43,-7.56,-6.98
2024-12-06 13:22:09.269,19.8,527.0,0.41,0.9,0.02,-1.85,-7.32,-6.79
2024-12-06 13:22:09.272,17.77,537.0,0.42,0.91,0.03,-1.85,-7.32,-6.79
2024-12-06 13:22:09.281,21.15,533.0,0.41,0.91,0.03,-1.73,-8.72,-6.55
2024-12-06 13:22:09.296,19.8,538.0,0.41,0.91,0.01,-1.73,-6.95,-6.06
2024-12-06 13:22:09.300,11.92,531.0,0.4,0.91,0.02,-1.31,-7.62,-5.57
2024-12-06 13:22:09.305,21.38,538.0,0.4,0.92,0.0,-1.06,-6.28,-4.66
2024-12-06 13:22:09.314,22.5,541.0,0.41,0.92,0.0,-0.88,-6.28,-3.74
2024-12-06 13:22:09.321,24.52,539.0,0.4,0.92,0.02,-0.88,-6.28,-3.74
2024-12-06 13:22:09.351,23.4,538.0,0.4,0.92,0.01,-0.39,-5.91,-3.07
2024-12-06 13:22:09.355,23.17,538.0,0.38,0.92,0.02,-0.39,-3.71,-2.52
2024-12-06 13:22:09.359,29.7,551.0,0.39,0.92,-0.0,-0.39,-3.71,-1.79
2024-12-06 13:22:09.366,26.32,543.0,0.4,0.93,0.03,-0.7,-5.06,-1.79
2024-12-06 13:22:09.373,30.82,549.0,0.4,0.93,0.0,-0.88,-6.1,-0.57
2024-12-06 13:22:09.382,30.15,558.0,0.4,0.92,-0.0,-0.76,-4.08,0.47
2024-12-06 13:22:09.389,27.45,566.0,0.4,0.92,0.01,-0.33,-5.24,1.33
2024-12-06 13:22:09.401,30.82,573.0,0.4,0.92,0.01,-0.27,-4.14,2.24
2024-12-06 13:22:09.407,31.72,548.0,0.41,0.93,0.0,-0.27,-4.69,2.91
2024-12-06 13:22:09.413,29.47,554.0,0.4,0.93,0.03,-0.08,-4.69,2.91
2024-12-06 13:22:09.421,27.67,542.0,0.4,0.93,0.02,-0.45,-7.13,3.52
2024-12-06 13:22:09.432,32.17,555.0,0.4,0.93,-0.01,-0.51,-5.36,4.07
2024-12-06 13:22:09.439,33.75,567.0,0.38,0.92,0.0,-0.57,-4.39,4.38
2024-12-06 13:22:09.450,34.42,548.0,0.38,0.92,0.0,-0.27,-4.87,4.8
2024-12-06 13:22:09.453,37.35,559.0,0.39,0.93,0.02,-0.27,-5.61,5.84
2024-12-06 13:22:09.462,35.77,559.0,0.39,0.94,0.02,-0.7,-5.61,5.84
2024-12-06 13:22:09.473,33.97,566.0,0.37,0.93,0.01,-0.15,-5.18,6.82
2024-12-06 13:22:09.478,35.1,554.0,0.37,0.92,0.0,0.22,-3.78,7.06
2024-12-06 13:22:09.484,34.42,555.0,0.38,0.92,0.01,0.28,-2.07,7.49
2024-12-06 13:22:09.493,37.12,583.0,0.38,0.92,0.01,0.28,-1.46,8.22
2024-12-06 13:22:09.590,45.22,558.0,0.36,0.91,0.02,0.65,-2.07,8.95
2024-12-06 13:22:09.603,47.25,571.0,0.37,0.92,-0.0,0.46,0.19,8.59
2024-12-06 13:22:09.610,40.72,583.0,0.37,0.92,-0.0,0.34,0.56,8.47
2024-12-06 13:22:09.616,43.65,552.0,0.37,0.91,0.01,0.4,0.56,7.98
2024-12-06 13:22:09.623,46.12,569.0,0.36,0.89,0.01,0.4,0.56,7.98
2024-12-06 13:22:09.629,42.52,562.0,0.37,0.9,0.02,0.28,0.44,7.37
2024-12-06 13:22:09.637,45.45,601.0,0.38,0.9,0.01,0.28,-0.3,7.31
2024-12-06 13:22:09.645,45.0,561.0,0.38,0.9,0.01,0.28,1.11,7.31
2024-12-06 13:22:09.653,46.12,582.0,0.38,0.9,0.01,0.46,0.19,7.06
2024-12-06 13:22:09.662,48.82,569.0,0.37,0.9,0.03,0.46,0.62,6.57
2024-12-06 13:22:09.670,49.5,565.0,0.38,0.89,0.02,0.46,0.62,6.57
2024-12-06 13:22:09.678,46.8,579.0,0.39,0.9,0.02,0.34,1.9,6.27
2024-12-06 13:22:09.687,47.47,578.0,0.39,0.9,0.04,0.34,1.23,6.45
2024-12-06 13:22:09.692,48.15,558.0,0.39,0.89,0.02,0.65,0.31,6.09
2024-12-06 13:22:09.704,54.0,565.0,0.38,0.89,0.02,0.71,1.9,5.54
2024-12-06 13:22:09.707,53.77,594.0,0.4,0.89,0.0,0.71,2.33,5.35
2024-12-06 13:22:09.716,53.32,563.0,0.41,0.9,0.02,0.83,2.33,5.35
2024-12-06 13:22:09.723,55.57,576.0,0.39,0.89,0.03,1.14,1.11,5.17
2024-12-06 13:22:09.730,51.3,568.0,0.39,0.9,0.02,1.14,0.68,4.38
2024-12-06 13:22:09.740,53.77,569.0,0.41,0.91,0.02,0.71,1.96,4.01
2024-12-06 13:22:09.748,52.88,575.0,0.41,0.91,0.02,0.59,1.78,4.07
2024-12-06 13:22:09.760,55.35,561.0,0.4,0.91,0.03,0.59,1.78,4.07
2024-12-06 13:22:09.763,54.22,576.0,0.39,0.9,0.02,0.77,0.74,3.71
2024-12-06 13:22:09.775,54.22,594.0,0.4,0.92,0.01,0.59,1.66,3.77
2024-12-06 13:22:09.778,57.82,564.0,0.4,0.92,0.02,0.4,1.35,4.13
2024-12-06 13:22:09.825,58.5,586.0,0.39,0.92,0.01,-0.33,1.9,4.07
2024-12-06 13:22:09.830,58.95,569.0,0.38,0.92,0.01,-0.33,1.47,4.56
2024-12-06 13:22:09.838,60.52,569.0,0.39,0.93,0.02,-0.76,1.47,4.56
2024-12-06 13:22:09.847,61.2,576.0,0.38,0.91,0.02,-1.0,1.11,4.87
2024-12-06 13:22:09.856,63.67,591.0,0.38,0.91,0.01,-1.06,1.11,4.62
2024-12-06 13:22:09.866,61.65,601.0,0.39,0.93,0.02,-1.61,1.6,4.93
2024-12-06 13:22:09.881,64.12,577.0,0.39,0.93,0.02,-2.1,1.41,5.72
2024-12-06 13:22:09.891,64.12,574.0,0.38,0.91,0.03,-2.16,0.19,6.21
2024-12-06 13:22:09.895,63.22,586.0,0.39,0.91,0.02,-2.22,0.13,6.27
2024-12-06 13:22:09.902,67.72,588.0,0.4,0.92,0.02,-2.71,1.05,6.51
2024-12-06 13:22:09.912,67.28,578.0,0.4,0.92,0.02,-2.83,0.92,7.0
2024-12-06 13:22:09.916,68.85,599.0,0.4,0.91,0.02,-2.65,0.74,7.18
2024-12-06 13:22:09.926,65.47,592.0,0.39,0.9,0.02,-2.65,0.74,7.18
2024-12-06 13:22:09.932,65.92,596.0,0.4,0.91,0.03,-2.77,0.37,7.43
2024-12-06 13:22:09.943,65.92,585.0,0.41,0.92,0.02,-2.89,-0.17,8.04
2024-12-06 13:22:09.949,71.1,601.0,0.4,0.92,0.02,-2.83,-0.48,8.53
2024-12-06 13:22:09.960,69.3,603.0,0.4,0.92,0.02,-2.71,-0.91,8.65
2024-12-06 13:22:09.970,69.75,583.0,0.39,0.91,0.02,-2.83,-0.85,8.28
2024-12-06 13:22:09.981,67.5,629.0,0.4,0.9,0.03,-3.08,-0.48,7.86
2024-12-06 13:22:09.986,73.35,601.0,0.4,0.91,0.02,-3.26,-0.3,7.61
2024-12-06 13:22:10.2,70.2,607.0,0.4,0.91,0.02,-3.08,0.31,7.61
2024-12-06 13:22:10.36,69.97,595.0,0.4,0.91,0.02,-2.71,0.19,7.73
2024-12-06 13:22:10.40,74.47,611.0,0.4,0.92,0.02,-2.65,-0.24,8.41
2024-12-06 13:22:10.46,74.7,600.0,0.4,0.93,0.02,-2.65,-0.24,8.41
2024-12-06 13:22:10.54,75.15,592.0,0.4,0.92,0.02,-2.65,-0.6,8.77
2024-12-06 13:22:10.63,73.8,599.0,0.4,0.91,0.02,-2.53,-0.97,8.95
2024-12-06 13:22:10.71,72.67,594.0,0.4,0.91,0.01,-2.4,-1.15,8.89
2024-12-06 13:22:10.84,76.72,598.0,0.4,0.91,0.02,-2.34,-0.91,8.83
2024-12-06 13:22:10.87,76.5,607.0,0.41,0.91,0.02,-2.4,-0.72,8.77
2024-12-06 13:22:10.98,75.15,604.0,0.41,0.91,0.02,-2.4,-0.72,8.77
2024-12-06 13:22:10.101,76.05,616.0,0.41,0.91,0.03,-2.28,-0.91,8.77
2024-12-06 13:22:10.118,76.05,614.0,0.41,0.91,0.03,-2.16,-0.85,8.77
2024-12-06 13:22:10.123,73.12,601.0,0.41,0.9,0.03,-1.85,-0.85,8.59
2024-12-06 13:22:10.135,76.95,609.0,0.41,0.9,0.03,-1.49,-0.6,8.16
2024-12-06 13:22:10.137,76.72,606.0,0.41,0.89,0.03,-1.37,-0.42,7.67
2024-12-06 13:22:10.141,72.45,613.0,0.42,0.89,0.03,-1.37,-0.42,7.67
2024-12-06 13:22:10.148,78.07,606.0,0.42,0.89,0.03,-1.43,-0.17,7.18
2024-12-06 13:22:10.158,73.35,606.0,0.42,0.89,0.03,-1.37,0.19,6.94
2024-12-06 13:22:10.167,77.17,609.0,0.41,0.89,0.03,-1.18,0.13,6.88
2024-12-06 13:22:10.173,79.88,616.0,0.41,0.89,0.03,-1.06,-0.05,6.88
2024-12-06 13:22:10.185,82.35,614.0,0.41,0.9,0.03,-0.94,-0.3,6.82
2024-12-06 13:22:10.188,80.55,613.0,0.41,0.89,0.02,-0.94,-0.3,6.82
2024-12-06 13:22:10.197,81.45,605.0,0.41,0.89,0.02,-1.12,-0.3,6.76
2024-12-06 13:22:10.206,81.67,658.0,0.41,0.9,0.02,-1.12,-0.66,6.94
2024-12-06 13:22:10.218,83.25,620.0,0.41,0.9,0.02,-1.31,-0.66,6.88
2024-12-06 13:22:10.221,81.22,608.0,0.41,0.9,0.02,-1.24,-0.17,6.7
2024-12-06 13:22:10.260,82.8,613.0,0.41,0.9,0.02,-1.24,-0.17,6.7
2024-12-06 13:22:10.265,83.47,603.0,0.41,0.91,0.03,-0.08,-0.05,6.57
2024-12-06 13:22:10.271,79.65,606.0,0.41,0.91,0.02,-0.08,-0.05,6.57
2024-12-06 13:22:10.273,83.7,608.0,0.4,0.9,0.02,0.16,-0.72,7.0
2024-12-06 13:22:10.279,84.6,615.0,0.41,0.89,0.02,0.28,-0.85,6.76
2024-12-06 13:22:10.393,82.8,616.0,0.42,0.9,0.02,-1.43,-2.98,12.19
2024-12-06 13:22:10.400,87.07,616.0,0.43,0.89,0.02,-1.61,-2.62,12.37
2024-12-06 13:22:10.409,88.42,611.0,0.43,0.89,0.03,-1.61,-2.62,12.31
2024-12-06 13:22:10.418,88.65,623.0,0.43,0.89,0.03,-1.55,-3.04,12.31
2024-12-06 13:22:10.432,85.72,623.0,0.43,0.89,0.02,-1.61,-3.04,12.25
2024-12-06 13:22:10.444,89.77,632.0,0.44,0.88,0.02,-1.61,-2.8,11.7
2024-12-06 13:22:10.452,91.8,639.0,0.44,0.89,0.02,-1.79,-2.62,10.97
2024-12-06 13:22:10.481,86.62,613.0,0.44,0.88,0.03,-2.04,-2.43,10.3
2024-12-06 13:22:10.490,91.35,625.0,0.45,0.87,0.03,-1.31,-1.15,7.67
2024-12-06 13:22:10.494,90.22,635.0,0.45,0.86,0.03,-0.88,-0.42,6.82
2024-12-06 13:22:10.503,93.15,628.0,0.45,0.86,0.03,-0.39,0.44,6.15
2024-12-06 13:22:10.513,91.12,620.0,0.45,0.85,0.02,-0.02,0.86,5.54
2024-12-06 13:22:10.518,92.02,640.0,0.45,0.85,0.03,-0.02,0.86,5.54
2024-12-06 13:22:10.525,92.25,616.0,0.44,0.87,0.03,-0.02,0.74,5.41
2024-12-06 13:22:10.533,89.1,625.0,0.43,0.88,0.03,-0.15,0.8,5.41
2024-12-06 13:22:10.541,93.6,624.0,0.42,0.88,0.03,-0.21,0.8,5.48
2024-12-06 13:22:10.644,93.15,636.0,0.44,0.88,0.03,0.04,0.37,8.59
2024-12-06 13:22:10.646,93.15,641.0,0.46,0.86,0.03,-0.08,0.5,8.71
2024-12-06 13:22:10.653,96.75,637.0,0.46,0.86,0.03,-0.21,0.25,8.53
2024-12-06 13:22:10.662,94.5,638.0,0.47,0.86,0.03,-0.39,-0.3,8.22
2024-12-06 13:22:10.668,98.1,653.0,0.46,0.88,0.03,-0.39,-0.3,8.22
2024-12-06 13:22:10.711,96.97,638.0,0.45,0.9,0.03,-0.82,-0.78,8.34
2024-12-06 13:22:10.716,96.52,656.0,0.45,0.9,0.03,-1.12,-1.76,10.54
2024-12-06 13:22:10.723,94.27,643.0,0.45,0.9,0.03,-1.12,-1.64,10.91
2024-12-06 13:22:10.737,96.97,652.0,0.47,0.87,0.03,-1.18,-1.21,10.42
2024-12-06 13:22:10.743,93.15,637.0,0.47,0.87,0.03,-1.31,-0.6,8.59
2024-12-06 13:22:10.747,96.3,649.0,0.49,0.87,0.03,-1.31,-0.36,7.92
2024-12-06 13:22:10.753,98.1,643.0,0.47,0.88,0.02,-1.37,-0.36,7.92
2024-12-06 13:22:10.763,95.4,637.0,0.47,0.87,0.03,-0.88,-0.85,7.37
2024-12-06 13:22:10.769,99.0,635.0,0.47,0.87,0.03,-0.51,-1.4,7.37
2024-12-06 13:22:10.810,98.77,663.0,0.45,0.88,0.04,-0.27,-1.15,7.43
2024-12-06 13:22:10.818,97.42,671.0,0.45,0.87,0.03,-0.21,-0.42,7.31
2024-12-06 13:22:10.822,100.12,641.0,0.45,0.86,0.03,-0.15,0.25,7.0
2024-12-06 13:22:10.829,100.12,649.0,0.45,0.86,0.03,0.1,0.68,6.76
2024-12-06 13:22:10.845,103.72,638.0,0.45,0.86,0.03,0.1,0.68,6.76
2024-12-06 13:22:10.848,101.7,661.0,0.45,0.87,0.04,0.22,0.56,6.33
2024-12-06 13:22:10.852,103.5,647.0,0.45,0.88,0.04,0.1,0.44,6.21
2024-12-06 13:22:10.861,102.6,649.0,0.45,0.88,0.04,0.16,0.37,6.15
2024-12-06 13:22:10.869,100.12,657.0,0.45,0.88,0.04,0.28,0.31,6.09
2024-12-06 13:22:10.882,105.07,640.0,0.45,0.88,0.04,0.28,0.31,6.09
2024-12-06 13:22:10.885,102.38,649.0,0.45,0.88,0.03,0.34,0.25,6.15
2024-12-06 13:22:10.893,98.55,667.0,0.45,0.87,0.03,0.46,0.37,6.03
2024-12-06 13:22:10.901,103.72,653.0,0.45,0.86,0.03,0.53,0.62,5.84
2024-12-06 13:22:10.935,105.52,666.0,0.45,0.87,0.04,0.46,0.56,5.72
2024-12-06 13:22:10.938,105.3,650.0,0.45,0.87,0.04,0.34,0.01,5.35
2024-12-06 13:22:10.941,100.12,681.0,0.45,0.88,0.04,-0.08,0.31,5.41
2024-12-06 13:22:10.947,105.52,658.0,0.45,0.88,0.04,-0.02,0.5,5.11
2024-12-06 13:22:10.954,104.62,643.0,0.45,0.88,0.04,0.22,-0.17,4.99
2024-12-06 13:22:10.963,102.6,653.0,0.45,0.88,0.03,0.22,0.13,4.56
2024-12-06 13:22:10.974,106.88,663.0,0.45,0.86,0.03,-0.02,0.13,4.56
2024-12-06 13:22:10.982,106.42,650.0,0.46,0.86,0.04,0.16,-0.24,4.19
2024-12-06 13:22:10.986,99.9,656.0,0.45,0.87,0.03,-0.27,-0.72,4.19
2024-12-06 13:22:10.994,101.25,663.0,0.45,0.87,0.03,-0.39,0.13,3.83
2024-12-06 13:22:11.4,103.27,661.0,0.45,0.87,0.03,-0.76,-0.42,3.77
2024-12-06 13:22:11.11,105.07,653.0,0.45,0.89,0.04,-0.76,-0.42,3.95
2024-12-06 13:22:11.17,105.52,652.0,0.45,0.9,0.03,-1.24,-0.85,3.95
2024-12-06 13:22:11.29,106.88,647.0,0.45,0.88,0.03,-1.06,-0.42,3.77
2024-12-06 13:22:11.40,105.97,642.0,0.46,0.87,0.03,-0.57,-0.3,3.46
2024-12-06 13:22:11.42,103.95,636.0,0.47,0.86,0.03,-0.15,-0.3,3.22
2024-12-06 13:22:11.48,101.02,660.0,0.47,0.86,0.03,0.1,-0.97,2.85
2024-12-06 13:22:11.56,102.38,649.0,0.46,0.85,0.03,0.1,-0.97,2.85
2024-12-06 13:22:11.64,101.92,653.0,0.46,0.85,0.03,0.1,-1.09,2.61
2024-12-06 13:22:11.72,105.07,659.0,0.46,0.86,0.03,0.28,-1.58,2.42
2024-12-06 13:22:11.84,103.72,652.0,0.46,0.87,0.03,0.1,-0.42,2.55
2024-12-06 13:22:11.88,104.4,658.0,0.46,0.88,0.03,-0.08,0.62,2.79
2024-12-06 13:22:11.95,106.65,654.0,0.46,0.88,0.03,-0.02,1.17,2.79
2024-12-06 13:22:11.104,106.88,652.0,0.46,0.87,0.03,-0.02,1.17,2.79
2024-12-06 13:22:11.120,102.15,667.0,0.47,0.87,0.03,0.28,1.35,2.79
2024-12-06 13:22:11.122,106.42,649.0,0.47,0.87,0.03,0.53,1.35,2.79
2024-12-06 13:22:11.129,105.07,653.0,0.47,0.87,0.03,0.65,1.35,2.79
2024-12-06 13:22:11.135,107.1,658.0,0.46,0.87,0.03,0.65,1.35,2.73
2024-12-06 13:22:11.164,102.38,658.0,0.46,0.87,0.03,0.65,1.53,2.73
2024-12-06 13:22:11.167,104.62,671.0,0.46,0.87,0.03,0.89,1.6,2.79
2024-12-06 13:22:11.176,100.12,642.0,0.47,0.87,0.02,1.08,1.84,3.03
2024-12-06 13:22:11.181,104.4,652.0,0.47,0.87,0.02,1.01,2.21,3.28
2024-12-06 13:22:11.191,102.38,643.0,0.47,0.87,0.03,0.95,2.51,3.34
2024-12-06 13:22:11.197,104.17,649.0,0.47,0.87,0.03,0.95,2.51,3.34
2024-12-06 13:22:11.205,100.12,659.0,0.47,0.87,0.03,0.89,2.69,3.52
2024-12-06 13:22:11.214,103.72,663.0,0.46,0.87,0.04,0.83,2.88,3.77
2024-12-06 13:22:11.221,106.88,674.0,0.46,0.87,0.04,0.83,3.0,3.95
2024-12-06 13:22:11.229,105.52,647.0,0.46,0.87,0.03,0.89,2.88,4.07
2024-12-06 13:22:11.245,106.2,664.0,0.47,0.87,0.03,1.01,2.76,4.26
2024-12-06 13:22:11.247,106.65,640.0,0.47,0.87,0.03,1.01,2.76,4.26
2024-12-06 13:22:11.252,104.4,660.0,0.47,0.87,0.03,1.01,2.57,4.44
2024-12-06 13:22:11.262,104.17,663.0,0.47,0.88,0.03,0.89,2.27,4.56
2024-12-06 13:22:11.268,100.35,649.0,0.47,0.89,0.03,0.65,1.78,4.74
2024-12-06 13:22:11.283,102.38,638.0,0.47,0.89,0.03,0.4,1.41,4.8
2024-12-06 13:22:11.286,99.67,659.0,0.46,0.9,0.03,0.34,1.23,4.8
2024-12-06 13:22:11.310,107.1,657.0,0.46,0.9,0.03,0.34,1.23,4.8
2024-12-06 13:22:11.322,101.7,652.0,0.46,0.88,0.03,1.2,1.78,4.44
2024-12-06 13:22:11.324,105.07,639.0,0.46,0.88,0.03,1.5,1.84,4.32
2024-12-06 13:22:11.329,107.1,646.0,0.46,0.88,0.03,1.5,1.84,4.32
2024-12-06 13:22:11.338,104.62,643.0,0.46,0.88,0.03,1.69,1.72,4.26
2024-12-06 13:22:11.349,105.75,656.0,0.46,0.87,0.03,1.69,1.35,4.26
2024-12-06 13:22:11.355,105.52,649.0,0.46,0.87,0.03,1.56,1.05,4.26
2024-12-06 13:22:11.386,102.15,662.0,0.46,0.87,0.06,1.44,0.92,4.26
2024-12-06 13:22:11.391,101.7,646.0,0.45,0.88,0.04,1.44,1.35,4.19
2024-12-06 13:22:11.396,101.47,638.0,0.46,0.87,0.03,1.44,1.6,4.19
2024-12-06 13:22:11.401,101.02,653.0,0.46,0.87,0.03,1.56,1.66,4.13
2024-12-06 13:22:11.407,107.32,660.0,0.46,0.87,0.03,1.69,1.66,4.01
2024-12-06 13:22:11.417,103.95,658.0,0.46,0.87,0.03,1.69,1.66,4.01
2024-12-06 13:22:11.423,106.65,636.0,0.46,0.87,0.03,1.69,1.84,3.95
2024-12-06 13:22:11.432,104.85,645.0,0.46,0.87,0.03,1.62,2.14,3.95
2024-12-06 13:22:11.442,106.65,638.0,0.46,0.87,0.03,1.56,2.21,3.83
2024-12-06 13:22:11.446,102.82,641.0,0.45,0.87,0.03,1.38,2.21,3.71
2024-12-06 13:22:11.474,104.17,651.0,0.45,0.87,0.03,1.38,1.35,3.16
2024-12-06 13:22:11.479,103.95,652.0,0.46,0.88,0.03,0.95,2.33,3.46
2024-12-06 13:22:11.491,107.1,635.0,0.45,0.88,0.03,1.01,2.57,3.52
2024-12-06 13:22:11.499,103.95,647.0,0.45,0.88,0.03,1.2,2.45,3.34
2024-12-06 13:22:11.503,106.2,643.0,0.46,0.88,0.03,1.2,2.45,3.22
2024-12-06 13:22:11.508,105.3,648.0,0.46,0.88,0.03,1.32,2.39,3.22
2024-12-06 13:22:11.517,104.62,651.0,0.46,0.87,0.03,1.32,2.14,3.1
2024-12-06 13:22:11.524,102.82,645.0,0.46,0.87,0.03,1.26,1.53,2.85
2024-12-06 13:22:11.536,101.92,640.0,0.46,0.87,0.03,1.32,0.86,2.61
2024-12-06 13:22:11.539,101.92,644.0,0.46,0.87,0.03,1.08,1.17,2.67
2024-12-06 13:22:11.549,105.52,640.0,0.46,0.87,0.03,1.08,1.17,2.67
2024-12-06 13:22:11.556,101.47,642.0,0.46,0.87,0.04,0.95,1.11,2.67
2024-12-06 13:22:11.563,104.85,646.0,0.45,0.87,0.03,1.08,0.68,2.67
2024-12-06 13:22:11.573,103.5,661.0,0.46,0.87,0.03,1.2,0.5,2.73
2024-12-06 13:22:11.580,106.65,638.0,0.47,0.88,0.03,1.2,0.56,2.97
2024-12-06 13:22:11.688,103.95,654.0,0.46,0.89,0.02,2.91,-1.52,3.52
2024-12-06 13:22:11.693,101.47,634.0,0.46,0.88,0.02,3.27,-1.7,3.16
2024-12-06 13:22:11.701,104.4,630.0,0.46,0.88,0.02,3.39,-1.64,2.79
2024-12-06 13:22:11.713,106.88,631.0,0.45,0.88,0.03,3.46,-1.46,2.24
2024-12-06 13:22:11.728,101.02,635.0,0.45,0.87,0.03,3.46,-1.46,2.24
2024-12-06 13:22:11.730,105.52,635.0,0.45,0.86,0.03,3.39,-1.03,1.63
2024-12-06 13:22:11.733,104.4,630.0,0.46,0.86,0.03,3.21,-0.54,1.14
2024-12-06 13:22:11.740,103.95,648.0,0.46,0.85,0.03,2.97,-0.05,0.47
2024-12-06 13:22:11.755,107.1,623.0,0.46,0.85,0.03,2.6,0.5,-0.44
2024-12-06 13:22:11.758,101.47,683.0,0.47,0.85,0.03,2.3,1.05,-1.6
2024-12-06 13:22:11.763,100.57,634.0,0.48,0.85,0.03,2.3,1.05,-1.6
2024-12-06 13:22:11.771,105.07,640.0,0.47,0.85,0.03,2.11,1.23,-2.95
2024-12-06 13:22:11.780,102.38,629.0,0.43,0.9,0.02,1.99,0.99,-3.56
2024-12-06 13:22:11.786,104.62,624.0,0.4,0.89,0.03,2.54,1.05,-1.36
2024-12-06 13:22:11.794,106.88,624.0,0.4,0.89,0.03,2.85,0.5,-0.44
2024-12-06 13:22:11.813,104.17,639.0,0.44,0.87,0.01,2.48,0.25,-0.51
2024-12-06 13:22:11.821,105.52,628.0,0.42,0.88,0.02,2.48,0.62,-0.38
2024-12-06 13:22:11.830,104.17,616.0,0.42,0.88,0.02,3.03,1.47,-0.32
2024-12-06 13:22:11.833,102.6,612.0,0.42,0.89,0.02,3.15,2.02,-0.81
2024-12-06 13:22:11.841,103.72,609.0,0.44,0.89,0.02,2.48,1.41,-0.75
2024-12-06 13:22:11.881,103.5,622.0,0.43,0.92,0.01,2.48,1.41,-0.75
2024-12-06 13:22:11.910,105.07,609.0,0.41,0.92,0.02,0.22,-2.43,1.94
2024-12-06 13:22:11.913,101.7,631.0,0.42,0.89,0.0,-0.51,-4.26,6.03
2024-12-06 13:22:11.919,101.25,618.0,0.42,0.89,0.0,-0.76,-4.69,6.94
2024-12-06 13:22:11.927,95.85,611.0,0.43,0.89,0.0,-0.76,-4.69,7.49
2024-12-06 13:22:11.934,96.97,606.0,0.43,0.89,0.01,-1.12,-5.48,7.49
2024-12-06 13:22:11.943,98.77,603.0,0.44,0.88,0.01,-1.12,-5.24,7.37
2024-12-06 13:22:11.966,98.32,601.0,0.46,0.87,0.02,-1.06,-4.94,5.17
2024-12-06 13:22:11.970,95.17,607.0,0.46,0.87,0.02,-1.06,-4.94,5.17
2024-12-06 13:22:11.978,96.07,584.0,0.46,0.85,0.01,-0.51,-4.2,4.32
2024-12-06 13:22:11.990,90.22,617.0,0.46,0.85,0.0,0.46,-3.17,3.4
2024-12-06 13:22:12.2,94.95,597.0,0.45,0.87,0.0,0.65,-2.13,3.22
2024-12-06 13:22:12.7,93.15,604.0,0.45,0.87,0.0,0.34,-2.86,3.16
2024-12-06 13:22:12.9,91.57,587.0,0.43,0.88,0.02,0.34,-2.86,3.16
2024-12-06 13:22:12.17,94.05,583.0,0.43,0.87,0.02,0.53,-3.29,2.61
2024-12-06 13:22:12.25,88.65,580.0,0.44,0.88,0.01,0.22,-2.8,2.36
2024-12-06 13:22:12.34,94.5,589.0,0.45,0.88,0.01,-0.02,-2.86,2.97
2024-12-06 13:22:12.43,89.32,577.0,0.45,0.85,0.0,0.59,-3.78,2.55
2024-12-06 13:22:12.50,88.65,578.0,0.4,0.86,0.0,0.71,-2.62,1.14
2024-12-06 13:22:12.83,90.22,586.0,0.41,0.86,0.01,1.14,0.62,0.72
2024-12-06 13:22:12.86,88.42,587.0,0.4,0.87,0.01,1.56,1.17,0.1
2024-12-06 13:22:12.93,86.4,581.0,0.42,0.88,0.02,1.56,1.17,0.1
2024-12-06 13:22:12.101,89.1,592.0,0.43,0.89,0.02,1.44,0.74,-0.2
2024-12-06 13:22:12.109,86.85,586.0,0.43,0.89,0.01,1.26,0.31,-0.44
2024-12-06 13:22:12.117,83.92,573.0,0.43,0.88,-0.01,1.32,0.68,-0.87
2024-12-06 13:22:12.126,84.15,579.0,0.43,0.88,-0.01,1.5,1.41,-1.3
2024-12-06 13:22:12.133,81.67,572.0,0.43,0.89,0.0,1.26,0.5,-1.12
2024-12-06 13:22:12.141,87.52,577.0,0.43,0.91,0.01,1.26,0.5,-1.12
2024-12-06 13:22:12.151,82.8,573.0,0.42,0.91,0.01,1.01,0.44,-0.87
2024-12-06 13:22:12.157,81.9,573.0,0.41,0.88,0.01,1.44,0.99,-1.24
2024-12-06 13:22:12.168,83.92,578.0,0.43,0.87,0.01,1.99,1.35,-1.85
2024-12-06 13:22:12.173,82.8,572.0,0.43,0.87,0.01,1.93,1.6,-1.91
2024-12-06 13:22:12.180,80.78,572.0,0.44,0.88,0.01,1.87,1.96,-1.67
2024-12-06 13:22:12.193,82.35,570.0,0.44,0.89,0.01,1.87,1.96,-1.67
2024-12-06 13:22:12.196,83.03,569.0,0.43,0.88,0.01,2.05,1.53,-1.42
2024-12-06 13:22:12.206,85.05,559.0,0.43,0.87,0.01,2.54,0.8,-1.48
2024-12-06 13:22:12.213,81.9,582.0,0.44,0.88,0.01,2.6,0.37,-1.6
2024-12-06 13:22:12.226,83.03,569.0,0.44,0.88,0.01,2.17,0.19,-1.3
2024-12-06 13:22:12.230,83.92,566.0,0.44,0.9,0.01,1.69,0.25,-0.99
2024-12-06 13:22:12.235,83.7,583.0,0.43,0.91,-0.0,1.69,0.25,-0.99
2024-12-06 13:22:12.245,76.72,565.0,0.43,0.91,0.0,1.44,0.25,-0.51
2024-12-06 13:22:12.253,81.22,584.0,0.43,0.91,0.01,1.26,-0.3,0.1
2024-12-06 13:22:12.287,82.8,570.0,0.43,0.91,0.0,1.08,-0.24,0.59
2024-12-06 13:22:12.291,76.72,554.0,0.43,0.91,0.01,0.77,-0.24,1.26
2024-12-06 13:22:12.295,74.92,586.0,0.43,0.91,0.01,0.77,-0.17,1.45
2024-12-06 13:22:12.304,78.3,558.0,0.43,0.91,0.01,0.89,-0.11,1.63
2024-12-06 13:22:12.313,77.62,567.0,0.43,0.89,0.0,0.89,-0.11,1.63
2024-12-06 13:22:12.318,74.92,573.0,0.43,0.88,-0.0,1.2,0.5,1.45
2024-12-06 13:22:12.327,75.82,560.0,0.43,0.89,0.0,1.14,0.07,1.57
2024-12-06 13:22:12.339,78.07,557.0,0.43,0.9,-0.0,0.77,-0.24,1.81
2024-12-06 13:22:12.342,75.82,553.0,0.43,0.9,-0.0,0.77,-0.36,2.12
2024-12-06 13:22:12.350,74.03,556.0,0.43,0.89,-0.0,1.2,-0.66,2.24
2024-12-06 13:22:12.358,75.82,546.0,0.43,0.88,-0.0,1.2,-0.66,2.24
2024-12-06 13:22:12.368,76.95,549.0,0.43,0.86,0.0,1.87,-0.6,1.87
2024-12-06 13:22:12.374,71.78,551.0,0.43,0.87,0.0,2.3,-0.42,1.33
2024-12-06 13:22:12.382,72.67,570.0,0.42,0.87,-0.0,2.66,0.25,0.9
2024-12-06 13:22:12.390,73.35,554.0,0.42,0.87,-0.0,2.91,0.37,0.78
2024-12-06 13:22:12.397,76.5,557.0,0.42,0.89,-0.0,2.97,0.07,0.78
2024-12-06 13:22:12.407,74.03,548.0,0.42,0.89,-0.0,2.97,0.07,0.78
2024-12-06 13:22:12.421,72.67,546.0,0.42,0.88,-0.01,3.09,0.07,0.04
2024-12-06 13:22:12.423,74.92,541.0,0.43,0.86,-0.01,3.21,1.05,-1.18
2024-12-06 13:22:12.430,62.32,546.0,0.44,0.87,-0.01,3.33,1.78,-2.89
2024-12-06 13:22:12.437,72.67,561.0,0.44,0.87,-0.01,3.39,2.88,-4.41
2024-12-06 13:22:12.446,68.17,559.0,0.43,0.89,-0.01,3.39,2.76,-4.9
2024-12-06 13:22:12.456,67.5,560.0,0.41,0.91,0.0,3.39,2.76,-4.9
2024-12-06 13:22:12.461,70.42,539.0,0.4,0.88,-0.02,4.0,2.45,-5.51
2024-12-06 13:22:12.469,72.22,544.0,0.4,0.87,-0.02,4.74,5.56,-7.46
2024-12-06 13:22:12.480,63.45,538.0,0.39,0.92,0.02,4.31,4.22,-8.01
2024-12-06 13:22:12.484,69.07,566.0,0.39,0.92,0.02,3.64,1.84,-6.06
2024-12-06 13:22:12.493,66.6,543.0,0.35,0.96,0.02,3.64,-1.21,-3.8
2024-12-06 13:22:12.522,67.28,541.0,0.37,0.91,-0.02,2.54,-1.52,-2.58
2024-12-06 13:22:12.529,63.22,538.0,0.4,0.91,-0.01,1.69,-0.24,-2.52
2024-12-06 13:22:12.531,66.15,540.0,0.38,0.91,-0.01,1.5,0.31,-2.21
2024-12-06 13:22:12.539,66.15,527.0,0.38,0.91,0.0,1.5,0.31,-2.21
2024-12-06 13:22:12.547,67.05,535.0,0.37,0.91,0.01,2.05,-0.24,-2.15
2024-12-06 13:22:12.554,64.57,538.0,0.38,0.91,-0.0,2.11,0.13,-2.21
2024-12-06 13:22:12.563,63.9,545.0,0.39,0.93,-0.01,1.5,0.92,-2.03
2024-12-06 13:22:12.573,54.0,539.0,0.39,0.93,0.0,0.83,0.56,-1.3
2024-12-06 13:22:12.586,65.92,528.0,0.4,0.93,0.0,0.95,-0.36,-0.81
2024-12-06 13:22:12.589,63.67,522.0,0.39,0.92,-0.01,0.95,-0.36,-0.81
2024-12-06 13:22:12.592,62.32,546.0,0.39,0.91,-0.01,0.95,-0.48,-0.69
2024-12-06 13:22:12.601,61.88,522.0,0.4,0.93,-0.01,0.22,-0.17,-0.02
2024-12-06 13:22:12.610,62.32,528.0,0.4,0.92,-0.01,-0.15,0.25,0.84
2024-12-06 13:22:12.616,60.3,527.0,0.4,0.91,0.0,-0.08,-0.91,1.08
2024-12-06 13:22:12.627,58.05,526.0,0.39,0.91,0.0,-0.27,-0.42,1.08
2024-12-06 13:22:12.635,59.85,536.0,0.4,0.91,-0.01,-0.27,-0.42,1.08
2024-12-06 13:22:12.640,58.05,527.0,0.41,0.92,-0.01,-0.63,1.11,1.51
2024-12-06 13:22:12.739,54.0,522.0,0.39,0.9,-0.01,0.65,1.66,2.06
2024-12-06 13:22:12.745,48.15,533.0,0.4,0.91,-0.01,0.65,1.66,2.06
2024-12-06 13:22:12.784,54.67,543.0,0.38,0.92,0.01,0.89,0.62,2.36
2024-12-06 13:22:12.787,44.77,520.0,0.38,0.92,-0.01,0.89,0.62,2.36
2024-12-06 13:22:12.790,49.95,527.0,0.39,0.91,-0.02,1.08,1.41,2.12
2024-12-06 13:22:12.799,45.0,538.0,0.39,0.92,-0.01,0.83,1.66,2.18
2024-12-06 13:22:12.809,51.07,529.0,0.39,0.93,-0.0,0.53,1.23,2.67
2024-12-06 13:22:12.814,44.77,518.0,0.39,0.93,-0.0,0.83,0.44,2.79
2024-12-06 13:22:12.826,48.15,535.0,0.37,0.91,0.0,0.89,0.74,2.49
2024-12-06 13:22:12.835,51.3,531.0,0.38,0.91,-0.01,0.89,0.74,2.49
2024-12-06 13:22:12.840,42.97,517.0,0.38,0.91,-0.01,0.77,1.66,2.42
2024-12-06 13:22:12.845,47.47,533.0,0.38,0.92,-0.0,0.59,2.02,2.67
2024-12-06 13:22:12.863,46.57,518.0,0.37,0.92,0.0,0.65,1.53,2.97
2024-12-06 13:22:12.870,45.9,519.0,0.37,0.92,0.0,1.08,1.17,2.67
2024-12-06 13:22:12.873,45.0,515.0,0.37,0.9,0.0,1.08,1.17,2.67
2024-12-06 13:22:12.876,46.35,518.0,0.38,0.91,-0.01,1.01,1.96,2.3
2024-12-06 13:22:12.887,40.72,518.0,0.38,0.91,-0.01,0.77,2.94,2.18
2024-12-06 13:22:12.891,41.85,503.0,0.37,0.91,0.0,0.59,3.24,2.24
2024-12-06 13:22:12.899,44.32,511.0,0.37,0.91,-0.0,0.77,2.76,2.18
2024-12-06 13:22:12.912,40.27,525.0,0.37,0.91,-0.0,1.14,3.24,1.94
2024-12-06 13:22:12.921,42.97,505.0,0.37,0.9,-0.01,1.14,3.24,1.94
2024-12-06 13:22:12.923,43.2,510.0,0.39,0.91,-0.01,1.01,3.61,2.0
2024-12-06 13:22:12.930,37.8,500.0,0.39,0.92,-0.02,0.89,3.98,2.42
2024-12-06 13:22:12.976,40.27,506.0,0.39,0.92,-0.01,0.95,3.85,3.03
2024-12-06 13:22:12.982,43.88,504.0,0.39,0.93,-0.01,0.59,3.12,2.79
2024-12-06 13:22:12.986,37.12,507.0,0.39,0.93,-0.01,0.46,2.69,3.22
2024-12-06 13:22:12.991,29.7,511.0,0.39,0.93,-0.0,0.46,2.69,3.28
2024-12-06 13:22:13.0,39.38,509.0,0.38,0.92,0.0,0.71,1.96,3.28
2024-12-06 13:22:13.8,41.17,525.0,0.38,0.92,-0.01,0.77,2.33,3.1
2024-12-06 13:22:13.14,38.47,497.0,0.39,0.93,-0.01,0.71,2.88,3.16
2024-12-06 13:22:13.26,34.65,499.0,0.38,0.93,-0.01,0.65,3.3,3.46
2024-12-06 13:22:13.33,37.12,530.0,0.38,0.93,-0.01,0.77,2.21,3.46
2024-12-06 13:22:13.38,36.45,510.0,0.37,0.92,0.0,0.77,2.21,3.46
2024-12-06 13:22:13.46,38.7,510.0,0.37,0.92,-0.01,0.71,2.14,3.1
2024-12-06 13:22:13.54,38.92,509.0,0.39,0.92,-0.01,0.59,3.0,3.1
2024-12-06 13:22:13.61,38.92,514.0,0.39,0.92,-0.01,0.59,3.55,3.58
2024-12-06 13:22:13.70,31.72,513.0,0.39,0.89,-0.0,0.89,3.24,4.07
2024-12-06 13:22:13.80,34.42,501.0,0.38,0.91,-0.0,0.89,2.88,4.13
2024-12-06 13:22:13.93,33.75,513.0,0.37,0.9,-0.0,0.89,2.88,4.13
2024-12-06 13:22:13.99,33.3,500.0,0.38,0.9,-0.01,0.65,3.3,4.13
2024-12-06 13:22:13.102,33.3,512.0,0.39,0.91,-0.01,0.53,4.04,4.5
2024-12-06 13:22:13.112,31.72,516.0,0.38,0.91,0.0,0.53,3.61,4.87
2024-12-06 13:22:13.123,31.27,512.0,0.38,0.91,0.0,0.65,2.94,4.68
2024-12-06 13:22:13.131,28.12,519.0,0.37,0.91,-0.0,0.59,3.85,4.44
2024-12-06 13:22:13.136,31.72,497.0,0.39,0.91,-0.01,0.59,3.85,4.44
2024-12-06 13:22:13.139,29.92,497.0,0.4,0.92,-0.01,0.53,5.14,4.8
2024-12-06 13:22:13.150,26.77,512.0,0.38,0.92,-0.0,0.65,4.83,4.99
2024-12-06 13:22:13.158,29.47,493.0,0.37,0.91,0.0,0.83,3.91,4.32
2024-12-06 13:22:13.164,25.42,495.0,0.37,0.91,0.0,0.83,5.26,3.83
2024-12-06 13:22:13.172,18.45,493.0,0.39,0.91,-0.0,0.83,6.42,4.26
2024-12-06 13:22:13.180,25.2,490.0,0.41,0.91,-0.0,0.89,6.42,4.26
2024-12-06 13:22:13.186,29.47,501.0,0.38,0.9,0.0,1.2,5.75,4.62
2024-12-06 13:22:13.195,28.8,506.0,0.38,0.91,-0.01,1.32,5.93,4.26
2024-12-06 13:22:13.202,27.0,491.0,0.41,0.92,-0.02,0.89,7.7,4.62
2024-12-06 13:22:13.211,26.77,507.0,0.41,0.92,-0.02,0.83,8.37,5.48
2024-12-06 13:22:13.227,25.42,501.0,0.39,0.91,-0.0,0.83,8.37,5.35
2024-12-06 13:22:13.229,24.3,505.0,0.36,0.91,0.0,1.01,6.66,5.35
2024-12-06 13:22:13.261,24.3,518.0,0.38,0.92,-0.01,0.59,7.45,4.99
2024-12-06 13:22:13.267,21.6,494.0,0.38,0.9,-0.01,0.59,9.29,5.17
2024-12-06 13:22:13.271,19.57,512.0,0.4,0.9,-0.0,0.59,10.57,5.78
2024-12-06 13:22:13.281,17.32,503.0,0.39,0.9,-0.01,0.89,10.57,6.39
2024-12-06 13:22:13.293,11.92,494.0,0.4,0.91,-0.01,1.2,11.79,6.7
2024-12-06 13:22:13.297,20.92,507.0,0.4,0.91,-0.01,1.32,12.89,8.04
2024-12-06 13:22:13.305,17.1,509.0,0.41,0.91,-0.0,1.32,12.89,8.04
2024-12-06 13:22:13.310,18.9,492.0,0.39,0.9,0.0,1.81,11.85,8.34
2024-12-06 13:22:13.318,17.55,500.0,0.41,0.92,-0.01,1.62,12.58,8.34
2024-12-06 13:22:13.329,14.85,500.0,0.41,0.93,-0.0,1.69,12.7,8.95
2024-12-06 13:22:13.334,10.12,491.0,0.4,0.92,0.0,2.11,11.42,9.02
2024-12-06 13:22:13.342,10.12,491.0,0.4,0.92,0.0,1.87,12.76,9.69
2024-12-06 13:22:13.354,6.52,508.0,0.42,0.92,0.0,1.87,12.76,10.05
2024-12-06 13:22:13.364,13.72,491.0,0.41,0.92,0.01,1.99,11.36,10.05
2024-12-06 13:22:13.366,7.42,484.0,0.43,0.93,-0.01,2.17,12.15,10.36
2024-12-06 13:22:13.374,10.57,488.0,0.42,0.93,0.01,2.42,12.22,11.15
2024-12-06 13:22:13.385,8.55,490.0,0.42,0.92,-0.0,2.66,11.42,11.4
2024-12-06 13:22:13.390,2.47,486.0,0.42,0.92,-0.0,2.48,12.76,12.01
2024-12-06 13:22:13.421,7.42,478.0,0.42,0.91,0.0,2.78,12.4,12.62
2024-12-06 13:22:13.423,0.45,487.0,0.41,0.91,0.0,3.21,11.85,12.74
2024-12-06 13:22:13.430,2.02,489.0,0.41,0.91,0.0,3.39,12.83,13.41
2024-12-06 13:22:13.439,-2.92,488.0,0.42,0.91,0.0,3.7,11.85,13.65
2024-12-06 13:22:13.446,-2.7,489.0,0.41,0.91,0.0,3.7,11.85,13.65
2024-12-06 13:22:13.454,-0.67,483.0,0.34,0.88,0.02,3.7,11.24,13.47
2024-12-06 13:22:13.462,-0.9,497.0,0.31,0.85,-0.02,6.08,7.45,9.2
2024-12-06 13:22:13.467,-1.12,501.0,0.32,0.88,0.02,3.58,12.4,5.96
2024-12-06 13:22:13.475,-0.45,513.0,0.32,0.88,0.02,3.46,6.72,0.96
2024-12-06 13:22:13.482,-6.52,491.0,0.29,0.88,0.07,1.75,7.33,-3.86
2024-12-06 13:22:13.490,-9.9,502.0,0.28,0.86,0.02,1.75,7.33,-3.86
2024-12-06 13:22:13.500,-4.72,511.0,0.29,0.86,0.03,2.17,6.66,-8.01
2024-12-06 13:22:13.508,-7.65,500.0,0.31,0.86,0.01,3.03,3.49,-11.55
2024-12-06 13:22:13.515,-6.52,504.0,0.33,0.88,0.01,2.42,2.82,-13.81
2024-12-06 13:22:13.522,-2.02,525.0,0.33,0.88,0.01,2.3,1.72,-15.46
2024-12-06 13:22:13.529,-4.5,503.0,0.33,0.9,0.03,1.5,1.72,-16.07
2024-12-06 13:22:13.538,-3.82,519.0,0.34,0.92,0.02,1.5,1.72,-16.07
2024-12-06 13:22:13.545,-3.6,504.0,0.34,0.93,0.03,0.65,1.29,-15.7
2024-12-06 13:22:13.553,-3.15,504.0,0.33,0.94,0.03,-0.02,-0.3,-15.4
2024-12-06 13:22:13.561,-0.67,511.0,0.36,0.94,0.0,-0.45,0.62,-13.99
2024-12-06 13:22:13.573,-2.25,494.0,0.36,0.94,0.0,-0.15,3.37,-10.76
2024-12-06 13:22:13.580,0.0,505.0,0.39,0.93,-0.02,-0.82,2.21,-7.65
2024-12-06 13:22:13.584,-5.4,503.0,0.35,0.95,-0.0,-0.82,2.21,-7.65
2024-12-06 13:22:13.592,-2.7,519.0,0.33,0.96,0.02,-2.1,0.25,-6.24
2024-12-06 13:22:13.600,-14.4,529.0,0.36,0.95,0.01,-3.2,1.05,-4.72
2024-12-06 13:22:13.607,-2.47,498.0,0.37,0.94,0.01,-3.75,1.6,-2.89
2024-12-06 13:22:13.646,-2.25,498.0,0.38,0.94,0.02,-4.54,-0.17,1.75
2024-12-06 13:22:13.659,-2.02,516.0,0.4,0.93,0.02,-4.54,0.44,2.61
2024-12-06 13:22:13.668,-1.35,516.0,0.4,0.93,0.03,-4.24,0.68,3.16
2024-12-06 13:22:13.670,-5.4,505.0,0.4,0.93,0.02,-3.93,0.56,3.52
2024-12-06 13:22:13.676,-6.07,503.0,0.4,0.92,0.02,-3.44,0.44,3.95
2024-12-06 13:22:13.689,-1.12,516.0,0.4,0.92,0.02,-2.83,0.37,4.26
2024-12-06 13:22:13.783,-3.6,518.0,0.4,0.92,0.02,-2.16,0.25,4.32
2024-12-06 13:22:13.798,0.22,522.0,0.35,0.92,0.01,1.99,2.14,5.11
2024-12-06 13:22:13.803,0.45,529.0,0.35,0.92,0.0,2.05,2.21,5.23
2024-12-06 13:22:13.814,-4.95,506.0,0.35,0.92,0.01,2.05,2.21,5.23
2024-12-06 13:22:13.818,-7.2,508.0,0.35,0.92,0.01,2.17,2.21,5.23
2024-12-06 13:22:13.863,-1.35,531.0,0.35,0.92,0.0,2.66,2.57,5.11
2024-12-06 13:22:13.872,-0.22,505.0,0.36,0.92,0.01,3.39,2.88,4.87
2024-12-06 13:22:13.878,-6.07,503.0,0.36,0.92,0.01,3.39,2.82,4.62
2024-12-06 13:22:13.886,-1.35,511.0,0.36,0.92,0.01,3.33,2.82,4.62
2024-12-06 13:22:13.894,-4.95,502.0,0.37,0.91,0.01,3.27,2.82,4.44
2024-12-06 13:22:13.905,0.0,504.0,0.37,0.92,0.01,3.15,3.12,4.38
2024-12-06 13:22:13.914,-1.12,501.0,0.37,0.92,0.01,3.15,3.37,4.44
2024-12-06 13:22:13.917,-2.7,505.0,0.37,0.92,0.01,3.03,3.18,4.56
2024-12-06 13:22:13.928,-2.7,507.0,0.37,0.92,0.02,3.03,3.18,4.56
2024-12-06 13:22:13.940,-3.82,512.0,0.37,0.92,0.02,3.03,3.0,4.62
2024-12-06 13:22:13.943,-1.8,497.0,0.37,0.91,0.02,3.03,2.82,4.56
2024-12-06 13:22:13.948,-2.02,501.0,0.37,0.91,0.01,2.91,2.57,4.5
2024-12-06 13:22:13.956,-2.7,496.0,0.37,0.91,0.01,2.6,2.39,4.32
2024-12-06 13:22:13.965,-3.82,496.0,0.37,0.9,0.01,2.23,2.39,4.01
2024-12-06 13:22:13.987,-1.35,509.0,0.37,0.9,0.01,2.23,2.39,4.01
2024-12-06 13:22:13.990,-2.25,527.0,0.38,0.91,0.01,1.75,2.45,3.58
2024-12-06 13:22:13.993,-4.05,522.0,0.38,0.91,0.01,1.5,2.88,3.52
2024-12-06 13:22:14.9,-4.72,531.0,0.38,0.91,0.01,1.38,3.0,3.52
2024-12-06 13:22:14.14,-3.38,529.0,0.37,0.91,0.01,1.38,3.0,3.52
2024-12-06 13:22:14.18,-2.02,510.0,0.37,0.92,0.02,1.26,3.12,3.58
2024-12-06 13:22:14.28,-0.45,507.0,0.37,0.92,0.02,1.2,3.37,3.58
2024-12-06 13:22:14.33,-1.12,500.0,0.37,0.92,0.02,1.14,3.18,3.52
2024-12-06 13:22:14.63,-2.47,516.0,0.37,0.91,0.01,0.71,2.21,3.4
2024-12-06 13:22:14.67,-2.25,514.0,0.37,0.91,0.01,0.4,1.78,3.22
2024-12-06 13:22:14.102,0.22,499.0,0.37,0.92,0.01,0.16,0.99,2.97
2024-12-06 13:22:14.109,-1.57,501.0,0.38,0.92,0.01,0.1,-3.17,2.3
2024-12-06 13:22:14.115,0.0,508.0,0.38,0.93,0.01,-0.15,-3.47,2.24
2024-12-06 13:22:14.120,-1.8,511.0,0.38,0.93,0.01,-0.33,-2.8,2.12
2024-12-06 13:22:14.123,-5.17,476.0,0.38,0.93,0.01,-0.33,-2.8,2.12
2024-12-06 13:22:14.136,-5.4,511.0,0.37,0.92,0.01,-0.27,-1.82,1.94
2024-12-06 13:22:14.139,-1.8,511.0,0.36,0.92,0.0,-0.15,-0.3,1.75
2024-12-06 13:22:14.148,-2.7,519.0,0.36,0.92,0.01,0.04,1.41,1.75
2024-12-06 13:22:14.157,-3.38,509.0,0.35,0.92,0.01,0.22,2.88,1.81
2024-12-06 13:22:14.163,-4.05,517.0,0.35,0.92,0.01,0.46,3.85,1.81
2024-12-06 13:22:14.171,-3.38,502.0,0.35,0.92,0.01,0.46,3.85,2.0
2024-12-06 13:22:14.181,-2.47,507.0,0.35,0.92,0.02,0.65,4.28,2.0
2024-12-06 13:22:14.187,-2.02,522.0,0.35,0.92,0.02,0.65,3.98,2.3
2024-12-06 13:22:14.196,0.0,506.0,0.36,0.92,0.01,0.53,3.49,2.67
2024-12-06 13:22:14.205,-2.47,512.0,0.36,0.92,0.0,0.28,2.88,2.91
2024-12-06 13:22:14.212,-1.8,512.0,0.36,0.92,0.0,-0.02,2.27,3.16
2024-12-06 13:22:14.219,-2.25,548.0,0.36,0.92,0.0,-0.02,2.27,3.16
2024-12-06 13:22:14.224,-2.25,500.0,0.36,0.92,0.01,-0.27,1.66,3.4
2024-12-06 13:22:14.233,-5.85,506.0,0.36,0.92,0.01,-0.27,1.23,3.58
2024-12-06 13:22:14.242,0.0,506.0,0.36,0.92,0.01,-0.21,1.17,3.71
2024-12-06 13:22:14.248,-3.82,523.0,0.36,0.92,0.01,-0.08,1.35,3.83
2024-12-06 13:22:14.256,-2.02,506.0,0.36,0.92,0.01,-0.08,1.78,3.89
2024-12-06 13:22:14.264,-3.6,503.0,0.35,0.93,0.02,0.1,1.78,3.89
2024-12-06 13:22:14.275,-2.47,517.0,0.35,0.93,0.02,0.28,2.08,3.95
2024-12-06 13:22:14.279,-1.8,533.0,0.35,0.93,0.02,0.46,2.33,4.01
2024-12-06 13:22:14.286,-1.8,517.0,0.35,0.93,0.02,0.65,2.27,4.07
2024-12-06 13:22:14.295,-4.5,523.0,0.36,0.92,0.02,0.65,2.27,4.13
2024-12-06 13:22:14.305,-2.47,520.0,0.36,0.92,0.01,0.65,2.27,4.13
2024-12-06 13:22:14.336,-6.52,518.0,0.36,0.93,0.02,0.34,1.05,4.5
2024-12-06 13:22:14.339,-1.57,522.0,0.36,0.93,0.02,0.34,1.05,4.5
2024-12-06 13:22:14.348,-4.28,506.0,0.36,0.93,0.01,0.22,0.86,4.74
2024-12-06 13:22:14.356,-4.28,499.0,0.36,0.93,0.01,0.16,0.92,4.99
2024-12-06 13:22:14.365,-2.47,506.0,0.36,0.93,0.01,0.22,0.92,5.17
2024-12-06 13:22:14.370,-2.02,529.0,0.36,0.93,0.01,0.28,0.86,5.35
2024-12-06 13:22:14.378,-0.45,503.0,0.36,0.93,0.01,0.28,0.86,5.35
2024-12-06 13:22:14.389,-3.82,508.0,0.36,0.92,0.01,0.34,1.11,5.54
2024-12-06 13:22:14.394,0.45,508.0,0.35,0.92,0.01,0.28,1.41,5.66
2024-12-06 13:22:14.402,-1.8,518.0,0.35,0.92,0.01,0.34,1.6,5.72
2024-12-06 13:22:14.412,-4.05,530.0,0.35,0.92,0.01,0.28,1.78,5.84
2024-12-06 13:22:14.418,-1.8,528.0,0.35,0.92,0.01,0.28,2.08,6.03
2024-12-06 13:22:14.427,-1.8,497.0,0.35,0.92,0.01,0.28,2.51,6.27
2024-12-06 13:22:14.442,-4.5,524.0,0.35,0.92,0.01,0.22,2.51,6.27
2024-12-06 13:22:14.448,-4.05,518.0,0.35,0.92,0.01,0.16,2.76,6.45
2024-12-06 13:22:14.458,-3.82,506.0,0.35,0.92,0.01,0.28,3.24,6.82
2024-12-06 13:22:14.464,1.35,513.0,0.35,0.92,0.01,0.28,3.24,7.0
2024-12-06 13:22:14.474,-1.57,556.0,0.35,0.92,0.01,0.28,3.24,7.0
2024-12-06 13:22:14.479,-1.8,534.0,0.36,0.93,0.01,0.28,2.94,7.25
2024-12-06 13:22:14.488,-6.07,500.0,0.36,0.93,0.01,0.28,2.45,7.43
2024-12-06 13:22:14.496,-4.05,521.0,0.36,0.93,0.01,0.4,2.02,7.73
2024-12-06 13:22:14.502,0.45,509.0,0.37,0.93,0.0,0.59,2.02,8.04
2024-12-06 13:22:14.511,-4.95,506.0,0.37,0.93,-0.01,0.59,2.02,8.04
2024-12-06 13:22:14.518,-4.05,511.0,0.37,0.93,-0.01,0.65,2.51,8.28
2024-12-06 13:22:14.558,-4.05,515.0,0.37,0.92,0.01,1.87,4.89,9.08
2024-12-06 13:22:14.563,-1.12,533.0,0.38,0.92,0.01,2.05,6.11,9.5
2024-12-06 13:22:14.570,-2.47,505.0,0.39,0.92,0.01,2.17,6.48,10.05
2024-12-06 13:22:14.578,-0.9,510.0,0.39,0.92,0.01,2.11,6.6,10.36
2024-12-06 13:22:14.590,-1.8,512.0,0.38,0.92,0.01,2.11,6.6,10.48
2024-12-06 13:22:14.595,-2.25,509.0,0.38,0.92,0.01,1.99,6.54,10.48
2024-12-06 13:22:14.602,0.67,508.0,0.39,0.92,0.01,1.87,5.68,10.66
2024-12-06 13:22:14.611,-4.5,521.0,0.39,0.92,0.01,1.81,5.26,10.97
2024-12-06 13:22:14.623,-0.67,510.0,0.39,0.92,0.01,1.69,5.14,11.27
2024-12-06 13:22:14.635,-1.8,511.0,0.39,0.92,0.01,1.69,4.83,11.64
2024-12-06 13:22:14.641,-1.8,518.0,0.39,0.93,0.01,1.69,4.83,11.64
2024-12-06 13:22:14.644,-3.15,503.0,0.39,0.93,0.01,1.69,4.83,12.19
2024-12-06 13:22:14.651,-5.85,536.0,0.39,0.92,0.01,1.69,4.89,12.62
2024-12-06 13:22:14.658,-1.12,503.0,0.39,0.92,0.02,1.69,4.83,13.04
2024-12-06 13:22:14.682,-0.45,515.0,0.4,0.9,0.02,1.44,4.28,13.53
2024-12-06 13:22:14.706,-1.35,515.0,0.41,0.9,0.02,1.26,4.16,13.65
2024-12-06 13:22:14.712,-1.35,515.0,0.4,0.89,0.02,0.89,5.32,13.84
2024-12-06 13:22:14.726,-1.35,513.0,0.39,0.88,0.02,0.89,6.05,13.78
2024-12-06 13:22:14.730,-1.12,514.0,0.39,0.89,0.03,0.95,6.66,13.84
2024-12-06 13:22:14.834,-4.05,509.0,0.41,0.9,0.01,-1.85,2.02,13.9
2024-12-06 13:22:14.837,-4.28,525.0,0.41,0.9,0.02,-1.79,2.45,14.02
2024-12-06 13:22:14.844,-1.8,507.0,0.41,0.9,0.02,-1.61,3.18,14.26
2024-12-06 13:22:14.853,-1.57,509.0,0.41,0.9,0.02,-1.49,3.98,14.51
2024-12-06 13:22:14.868,-2.92,537.0,0.41,0.91,0.02,-1.37,4.83,14.81
2024-12-06 13:22:14.874,1.35,520.0,0.41,0.9,0.03,-1.37,4.83,14.81
2024-12-06 13:22:14.876,-3.6,518.0,0.41,0.9,0.03,-1.37,5.81,15.12
2024-12-06 13:22:14.885,-1.12,511.0,0.41,0.9,0.03,-1.43,6.23,15.49
2024-12-06 13:22:14.891,-3.15,523.0,0.42,0.9,0.02,-1.55,6.23,15.85
2024-12-06 13:22:14.900,-4.28,512.0,0.42,0.9,0.02,-1.73,6.05,16.34
2024-12-06 13:22:14.907,-2.47,525.0,0.41,0.9,0.02,-1.98,5.56,16.89
2024-12-06 13:22:14.923,-4.95,528.0,0.41,0.89,0.02,-1.98,5.56,16.89
2024-12-06 13:22:14.928,-1.35,508.0,0.41,0.89,0.02,-2.16,5.44,17.56
2024-12-06 13:22:14.930,1.57,534.0,0.41,0.89,0.03,-2.4,5.01,18.42
2024-12-06 13:22:14.939,-0.67,510.0,0.42,0.89,0.04,-2.59,4.46,19.27
2024-12-06 13:22:14.946,1.57,526.0,0.42,0.89,0.04,-2.71,4.04,19.7
2024-12-06 13:22:14.959,1.12,511.0,0.42,0.89,0.04,-2.71,4.04,19.76
2024-12-06 13:22:14.962,-0.45,514.0,0.43,0.89,0.04,-2.77,3.55,19.76
2024-12-06 13:22:14.971,-1.35,510.0,0.45,0.88,0.04,-2.95,3.43,19.51
2024-12-06 13:22:15.7,-3.6,507.0,0.48,0.87,0.03,-3.08,5.01,16.71
2024-12-06 13:22:15.10,1.12,515.0,0.46,0.87,0.04,-3.08,4.83,15.79
2024-12-06 13:22:15.15,-2.7,523.0,0.43,0.87,0.06,-2.65,2.39,14.14
2024-12-06 13:22:15.24,1.12,530.0,0.42,0.87,0.07,-2.53,-0.48,11.64
2024-12-06 13:22:15.32,-0.67,519.0,0.42,0.87,0.07,-2.59,-2.01,8.89
2024-12-06 13:22:15.43,-3.15,523.0,0.42,0.87,0.07,-2.59,-2.01,6.03
2024-12-06 13:22:15.46,3.15,513.0,0.42,0.86,0.07,-2.47,-4.14,6.03
2024-12-06 13:22:15.54,3.6,530.0,0.42,0.86,0.07,-2.47,-6.16,2.97
2024-12-06 13:22:15.62,3.38,516.0,0.43,0.85,0.06,-2.4,-6.46,0.23
2024-12-06 13:22:15.74,2.7,526.0,0.43,0.85,0.06,-2.28,-6.46,-1.91
2024-12-06 13:22:15.78,3.15,536.0,0.43,0.85,0.06,-2.1,-8.54,-4.35
2024-12-06 13:22:15.86,1.35,529.0,0.4,0.84,0.07,-2.1,-8.54,-7.04
2024-12-06 13:22:15.97,3.15,521.0,0.41,0.85,0.06,-2.16,-8.54,-7.04
2024-12-06 13:22:15.112,5.85,524.0,0.42,0.85,0.06,-2.04,-7.99,-8.62
2024-12-06 13:22:15.143,7.65,532.0,0.4,0.87,0.05,-2.28,-12.32,-12.59
2024-12-06 13:22:15.148,7.65,538.0,0.41,0.86,0.04,-2.47,-11.65,-13.38
2024-12-06 13:22:15.156,11.92,529.0,0.42,0.86,0.04,-2.47,-10.67,-13.57
2024-12-06 13:22:15.167,12.15,529.0,0.42,0.86,0.04,-2.47,-10.61,-13.38
2024-12-06 13:22:15.172,11.47,534.0,0.42,0.87,0.05,-2.22,-10.73,-13.51
2024-12-06 13:22:15.183,13.72,553.0,0.41,0.87,0.05,-2.22,-10.73,-13.51
2024-12-06 13:22:15.188,18.9,542.0,0.42,0.88,0.04,-2.4,-10.25,-13.75
2024-12-06 13:22:15.197,18.9,537.0,0.42,0.88,0.04,-2.4,-9.64,-13.87
2024-12-06 13:22:15.229,16.65,536.0,0.45,0.89,0.03,-2.28,-7.8,-12.77
2024-12-06 13:22:15.235,13.5,536.0,0.46,0.9,0.03,-2.28,-7.8,-12.77
2024-12-06 13:22:15.237,24.52,538.0,0.44,0.91,0.03,-1.98,-7.07,-11.8
2024-12-06 13:22:15.243,24.3,545.0,0.45,0.9,0.05,-1.55,-6.95,-11.49
2024-12-06 13:22:15.251,21.82,552.0,0.45,0.91,0.04,-1.55,-7.32,-10.88
2024-12-06 13:22:15.258,25.65,557.0,0.45,0.91,0.04,-1.37,-6.52,-10.33
2024-12-06 13:22:15.267,26.55,545.0,0.45,0.92,0.03,-1.43,-6.64,-9.42
2024-12-06 13:22:15.282,28.12,548.0,0.45,0.92,0.03,-1.43,-6.64,-9.42
2024-12-06 13:22:15.286,29.7,546.0,0.43,0.91,0.03,-0.88,-6.22,-8.56
2024-12-06 13:22:15.289,29.92,551.0,0.44,0.92,0.02,-0.51,-5.97,-8.2
2024-12-06 13:22:15.297,32.85,553.0,0.44,0.93,0.04,-1.12,-6.16,-6.73
2024-12-06 13:22:15.306,32.4,568.0,0.44,0.93,0.04,-0.63,-7.68,-5.82
2024-12-06 13:22:15.327,32.17,558.0,0.43,0.9,0.0,-0.57,-5.3,-5.45
2024-12-06 13:22:15.340,31.05,557.0,0.41,0.95,-0.0,-0.76,-5.67,-3.07
2024-12-06 13:22:15.345,36.0,558.0,0.39,0.94,0.02,-0.21,-7.32,-0.2
2024-12-06 13:22:15.352,38.02,564.0,0.39,0.94,0.02,0.34,-7.32,0.78
2024-12-06 13:22:15.360,30.38,569.0,0.41,0.91,0.0,0.34,-7.32,1.75
2024-12-06 13:22:15.368,36.9,570.0,0.4,0.92,0.01,-0.15,-5.42,1.75
2024-12-06 13:22:15.376,37.58,551.0,0.4,0.93,0.03,0.28,-6.64,2.42
2024-12-06 13:22:15.385,42.97,579.0,0.41,0.92,0.0,0.28,-3.47,3.03
2024-12-06 13:22:15.391,39.38,578.0,0.4,0.93,0.01,0.53,-3.59,3.95
2024-12-06 13:22:15.407,46.12,559.0,0.4,0.93,0.01,0.89,-3.04,4.99
2024-12-06 13:22:15.414,43.42,553.0,0.41,0.94,0.02,0.53,-3.59,6.15
2024-12-06 13:22:15.419,45.22,563.0,0.4,0.94,0.03,0.53,-3.59,6.15
2024-12-06 13:22:15.423,47.92,617.0,0.39,0.92,0.01,0.89,-3.35,6.7
2024-12-06 13:22:15.456,45.67,563.0,0.39,0.91,0.0,1.08,-1.15,7.61
2024-12-06 13:22:15.463,46.12,566.0,0.39,0.91,0.01,0.71,0.19,8.1
2024-12-06 13:22:15.469,50.4,578.0,0.38,0.9,0.01,1.26,0.19,8.22
2024-12-06 13:22:15.477,49.72,574.0,0.39,0.9,0.01,1.32,2.02,8.41
2024-12-06 13:22:15.488,51.3,556.0,0.39,0.9,0.01,1.38,0.99,8.89
2024-12-06 13:22:15.494,48.6,584.0,0.39,0.91,0.03,1.75,1.72,8.77
2024-12-06 13:22:15.502,51.3,571.0,0.38,0.9,0.01,1.75,1.72,8.77
2024-12-06 13:22:15.513,51.75,583.0,0.39,0.91,0.01,1.62,3.0,8.53
2024-12-06 13:22:15.519,50.4,564.0,0.4,0.91,0.02,1.87,2.27,8.71
2024-12-06 13:22:15.524,46.57,570.0,0.4,0.9,0.01,2.05,2.39,8.47
2024-12-06 13:22:15.531,52.42,560.0,0.4,0.9,0.01,2.05,2.88,8.28
2024-12-06 13:22:15.539,56.47,577.0,0.4,0.91,0.01,1.93,2.51,8.28
2024-12-06 13:22:15.555,50.4,586.0,0.4,0.9,0.03,1.93,2.51,8.28
2024-12-06 13:22:15.557,56.7,592.0,0.39,0.9,0.02,1.99,1.6,7.67
2024-12-06 13:22:15.562,57.15,581.0,0.39,0.9,0.02,1.69,3.0,7.25
2024-12-06 13:22:15.571,59.4,578.0,0.39,0.89,0.04,1.5,2.94,7.25
2024-12-06 13:22:15.584,57.82,579.0,0.39,0.89,0.04,1.56,2.14,6.76
2024-12-06 13:22:15.586,58.27,574.0,0.38,0.89,0.03,1.56,2.14,6.76
2024-12-06 13:22:15.596,59.85,589.0,0.39,0.9,0.01,1.38,4.59,6.7
2024-12-06 13:22:15.602,63.22,584.0,0.41,0.9,0.02,1.44,5.87,7.49
2024-12-06 13:22:15.631,58.72,587.0,0.39,0.9,0.01,2.11,5.68,7.25
2024-12-06 13:22:15.639,58.72,603.0,0.4,0.92,0.02,1.44,5.68,7.31
2024-12-06 13:22:15.650,60.97,570.0,0.39,0.9,0.03,1.2,5.5,6.94
2024-12-06 13:22:15.676,63.67,585.0,0.42,0.9,0.02,0.59,5.81,7.37
2024-12-06 13:22:15.679,65.7,584.0,0.4,0.89,0.02,0.77,4.77,7.37
2024-12-06 13:22:15.686,65.92,589.0,0.41,0.9,0.01,0.71,5.14,7.25
2024-12-06 13:22:15.707,68.4,582.0,0.42,0.9,0.02,0.28,3.61,7.43
2024-12-06 13:22:15.713,69.53,596.0,0.41,0.89,0.04,0.28,3.61,7.43
2024-12-06 13:22:15.717,67.5,596.0,0.41,0.9,0.02,0.16,3.0,7.06
2024-12-06 13:22:15.725,68.85,591.0,0.43,0.91,0.02,-0.27,3.49,7.43
2024-12-06 13:22:15.732,72.0,590.0,0.42,0.91,0.03,-0.33,1.96,7.98
2024-12-06 13:22:15.742,68.17,584.0,0.42,0.89,0.02,-0.15,1.41,7.92
2024-12-06 13:22:15.748,65.92,585.0,0.41,0.89,0.02,-0.15,1.9,7.49
2024-12-06 13:22:15.757,67.95,581.0,0.41,0.89,0.02,-0.15,1.9,7.49
2024-12-06 13:22:15.766,66.82,584.0,0.42,0.9,0.02,-0.27,2.57,7.31
2024-12-06 13:22:15.885,77.85,586.0,0.41,0.89,0.03,-3.38,-0.97,9.32
2024-12-06 13:22:15.894,77.85,597.0,0.42,0.88,0.03,-3.56,-1.15,8.77
2024-12-06 13:22:15.903,77.85,599.0,0.43,0.89,0.03,-3.93,-2.07,8.28
2024-12-06 13:22:15.908,79.65,594.0,0.43,0.89,0.03,-4.17,-2.92,7.98
2024-12-06 13:22:15.917,78.53,604.0,0.43,0.9,0.03,-4.17,-2.92,7.98
2024-12-06 13:22:15.925,76.5,603.0,0.43,0.9,0.03,-4.24,-4.14,7.67
2024-12-06 13:22:15.937,77.85,614.0,0.43,0.9,0.03,-4.3,-4.81,7.37
2024-12-06 13:22:15.969,79.42,593.0,0.43,0.9,0.03,-4.36,-5.18,6.88
2024-12-06 13:22:15.972,81.9,604.0,0.42,0.91,0.03,-4.3,-4.57,6.03
2024-12-06 13:22:15.978,80.32,608.0,0.42,0.91,0.03,-4.3,-4.08,6.09
2024-12-06 13:22:15.986,78.07,606.0,0.42,0.9,0.04,-4.24,-3.65,6.15
2024-12-06 13:22:16.21,79.42,610.0,0.43,0.88,0.03,-4.05,-2.92,6.03
2024-12-06 13:22:16.24,83.03,604.0,0.44,0.89,0.02,-4.11,-3.29,6.21
2024-12-06 13:22:16.34,80.55,621.0,0.44,0.89,0.02,-4.3,-3.29,6.45
2024-12-06 13:22:16.46,80.78,620.0,0.44,0.91,0.02,-4.11,-3.23,6.64
2024-12-06 13:22:16.50,79.88,635.0,0.44,0.9,0.03,-4.11,-3.23,6.64
2024-12-06 13:22:16.55,81.9,618.0,0.44,0.89,0.03,-3.81,-2.98,6.51
2024-12-06 13:22:16.63,84.15,628.0,0.44,0.87,0.04,-3.14,-2.43,6.33
2024-12-06 13:22:16.71,84.6,635.0,0.44,0.87,0.04,-2.47,-2.07,5.84
2024-12-06 13:22:16.79,81.0,631.0,0.44,0.87,0.04,-2.1,-1.64,5.78
2024-12-06 13:22:16.89,85.5,617.0,0.45,0.88,0.02,-2.1,-1.15,5.96
2024-12-06 13:22:16.103,87.52,619.0,0.45,0.9,0.03,-2.1,-1.15,5.96
2024-12-06 13:22:16.129,82.8,624.0,0.44,0.89,0.03,-1.61,-1.33,5.29
2024-12-06 13:22:16.133,87.52,637.0,0.44,0.9,0.03,-1.61,-1.33,5.29
2024-12-06 13:22:16.142,87.52,637.0,0.43,0.91,0.03,-1.37,-1.4,5.9
2024-12-06 13:22:16.151,88.2,624.0,0.42,0.91,0.03,-1.0,-0.78,6.27
2024-12-06 13:22:16.159,87.97,613.0,0.42,0.9,0.04,-1.12,-0.05,6.45
2024-12-06 13:22:16.164,90.67,629.0,0.42,0.9,0.04,-0.94,0.37,6.39
2024-12-06 13:22:16.172,91.35,628.0,0.42,0.89,0.04,-0.7,0.56,6.45
2024-12-06 13:22:16.185,85.95,613.0,0.43,0.89,0.03,-0.7,0.56,6.45
2024-12-06 13:22:16.188,87.3,625.0,0.44,0.89,0.03,-0.7,0.5,6.64
2024-12-06 13:22:16.197,92.7,618.0,0.44,0.89,0.03,-0.63,-0.11,6.82
2024-12-06 13:22:16.205,91.12,605.0,0.44,0.89,0.03,-0.51,-0.6,6.94
2024-12-06 13:22:16.212,90.22,623.0,0.44,0.89,0.03,-0.33,-0.85,6.82
2024-12-06 13:22:16.251,92.92,626.0,0.43,0.88,0.04,-0.02,0.44,6.15
2024-12-06 13:22:16.259,90.9,629.0,0.43,0.89,0.04,-0.27,0.31,6.45
2024-12-06 13:22:16.265,93.82,621.0,0.42,0.89,0.04,-0.27,0.31,6.45
2024-12-06 13:22:16.284,94.05,626.0,0.41,0.9,0.04,-0.45,0.25,7.43
2024-12-06 13:22:16.300,93.38,642.0,0.41,0.89,0.04,-0.33,0.07,8.47
2024-12-06 13:22:16.309,94.95,657.0,0.42,0.88,0.04,-0.15,0.13,9.38
2024-12-06 13:22:16.311,93.82,636.0,0.43,0.88,0.05,0.04,0.44,9.99
2024-12-06 13:22:16.319,91.35,656.0,0.44,0.88,0.05,0.22,1.05,10.11
2024-12-06 13:22:16.327,93.38,629.0,0.46,0.87,0.04,0.4,1.66,9.81
2024-12-06 13:22:16.334,92.92,644.0,0.46,0.87,0.04,0.53,1.9,9.14
2024-12-06 13:22:16.342,93.38,631.0,0.46,0.87,0.04,0.53,1.29,8.65
2024-12-06 13:22:16.350,94.95,625.0,0.46,0.88,0.04,0.53,1.29,8.65
2024-12-06 13:22:16.364,90.9,657.0,0.45,0.89,0.03,0.28,0.74,8.34
2024-12-06 13:22:16.370,92.02,629.0,0.45,0.89,0.04,0.1,0.44,8.1
2024-12-06 13:22:16.375,95.62,633.0,0.45,0.89,0.05,-0.08,0.37,7.86
2024-12-06 13:22:16.383,95.85,631.0,0.45,0.89,0.05,-0.15,0.44,7.98
2024-12-06 13:22:16.416,95.17,627.0,0.45,0.88,0.04,0.04,0.74,7.67
2024-12-06 13:22:16.420,93.6,660.0,0.45,0.88,0.04,-0.02,0.86,7.25
2024-12-06 13:22:16.429,94.95,646.0,0.45,0.87,0.04,-0.27,0.92,6.64
2024-12-06 13:22:16.436,95.4,699.0,0.46,0.86,0.04,-0.27,0.92,6.64
2024-12-06 13:22:16.468,96.3,631.0,0.44,0.91,0.04,-1.43,-0.97,7.49
2024-12-06 13:22:16.472,97.88,632.0,0.43,0.92,0.05,-1.43,-0.97,7.49
2024-12-06 13:22:16.481,95.17,651.0,0.42,0.93,0.05,-1.49,-2.01,9.02
2024-12-06 13:22:16.491,94.95,649.0,0.42,0.93,0.05,-1.67,-2.62,10.85
2024-12-06 13:22:16.496,94.5,643.0,0.43,0.93,0.05,-2.04,-3.35,12.37
2024-12-06 13:22:16.504,99.0,646.0,0.43,0.93,0.04,-2.47,-3.59,13.41
2024-12-06 13:22:16.515,95.4,652.0,0.45,0.91,0.04,-3.14,-3.23,12.92
2024-12-06 13:22:16.521,93.38,651.0,0.47,0.89,0.04,-3.14,-3.23,12.13
2024-12-06 13:22:16.530,95.4,642.0,0.49,0.88,0.04,-3.93,-3.04,12.13
2024-12-06 13:22:16.542,95.62,645.0,0.5,0.87,0.04,-4.24,-3.41,10.91
2024-12-06 13:22:16.545,97.42,649.0,0.5,0.86,0.04,-4.17,-3.29,9.75
2024-12-06 13:22:16.552,99.9,640.0,0.51,0.86,0.04,-3.5,-3.53,8.59
2024-12-06 13:22:16.585,98.55,644.0,0.51,0.86,0.04,-2.47,-3.17,7.86
2024-12-06 13:22:16.588,102.38,648.0,0.47,0.84,0.05,-0.02,-1.58,6.94
2024-12-06 13:22:16.592,101.02,646.0,0.47,0.84,0.04,0.77,-0.42,6.88
2024-12-06 13:22:16.598,104.4,647.0,0.47,0.84,0.04,1.01,-0.24,7.18
2024-12-06 13:22:16.627,101.7,661.0,0.45,0.87,0.04,1.26,0.25,7.73
2024-12-06 13:22:16.631,99.0,647.0,0.44,0.85,0.04,2.05,0.31,7.55
2024-12-06 13:22:16.636,101.25,664.0,0.44,0.85,0.04,1.81,1.6,7.67
2024-12-06 13:22:16.644,104.62,653.0,0.45,0.86,0.03,1.87,2.21,7.67
2024-12-06 13:22:16.651,102.15,666.0,0.45,0.86,0.04,1.87,2.21,7.67
2024-12-06 13:22:16.659,104.85,681.0,0.45,0.85,0.04,2.3,2.27,7.25
2024-12-06 13:22:16.671,99.9,663.0,0.46,0.85,0.04,2.54,1.84,6.64
2024-12-06 13:22:16.680,102.82,647.0,0.45,0.85,0.05,2.6,1.84,5.9
2024-12-06 13:22:16.687,104.4,669.0,0.45,0.85,0.05,2.48,1.84,5.23
2024-12-06 13:22:16.691,103.27,661.0,0.45,0.86,0.05,2.11,2.27,4.74
2024-12-06 13:22:16.699,99.67,668.0,0.44,0.86,0.05,2.11,2.27,4.74
2024-12-06 13:22:16.707,105.52,649.0,0.45,0.85,0.05,2.3,3.06,4.19
2024-12-06 13:22:16.719,100.35,647.0,0.46,0.83,0.05,2.66,3.67,3.71
2024-12-06 13:22:16.722,106.42,658.0,0.47,0.84,0.04,2.78,3.67,3.22
2024-12-06 13:22:16.730,104.85,649.0,0.47,0.84,0.04,2.48,3.12,2.79
2024-12-06 13:22:16.757,101.25,664.0,0.45,0.87,0.04,1.2,3.0,1.94
2024-12-06 13:22:16.761,104.4,650.0,0.44,0.88,0.05,0.77,3.18,1.69
2024-12-06 13:22:16.771,101.02,654.0,0.44,0.88,0.05,0.65,3.49,1.69
2024-12-06 13:22:16.779,102.82,682.0,0.45,0.88,0.05,0.77,3.79,1.87
2024-12-06 13:22:16.814,105.52,668.0,0.48,0.89,0.04,0.77,2.21,2.06
2024-12-06 13:22:16.819,103.05,654.0,0.48,0.89,0.04,0.53,1.47,2.06
2024-12-06 13:22:16.822,103.27,668.0,0.48,0.89,0.04,0.53,1.47,2.06
2024-12-06 13:22:16.830,101.92,659.0,0.48,0.89,0.04,0.4,0.68,2.24
2024-12-06 13:22:16.932,104.85,648.0,0.48,0.87,0.03,0.95,-0.17,5.17
2024-12-06 13:22:16.936,103.05,661.0,0.47,0.87,0.03,0.95,-0.17,5.23
2024-12-06 13:22:16.944,100.57,661.0,0.47,0.87,0.03,0.77,-0.11,5.23
2024-12-06 13:22:16.967,103.5,657.0,0.46,0.87,0.03,0.46,0.5,4.99
2024-12-06 13:22:16.976,101.25,649.0,0.46,0.87,0.04,0.46,0.8,4.8
2024-12-06 13:22:16.979,100.57,678.0,0.46,0.87,0.04,0.59,1.29,4.56
2024-12-06 13:22:16.988,97.2,668.0,0.46,0.87,0.04,0.59,1.29,4.56
2024-12-06 13:22:16.997,105.52,677.0,0.47,0.86,0.04,0.83,1.66,4.38
2024-12-06 13:22:17.35,101.47,649.0,0.47,0.86,0.04,0.95,1.47,4.26
2024-12-06 13:22:17.38,103.5,660.0,0.46,0.87,0.03,0.89,0.99,3.58
2024-12-06 13:22:17.44,101.7,671.0,0.46,0.87,0.04,1.01,1.17,3.46
2024-12-06 13:22:17.57,100.57,657.0,0.46,0.87,0.04,1.08,1.47,3.34
2024-12-06 13:22:17.59,100.57,653.0,0.46,0.87,0.04,1.08,1.47,3.28
2024-12-06 13:22:17.66,103.72,670.0,0.46,0.87,0.04,1.26,1.84,3.28
2024-12-06 13:22:17.75,100.8,665.0,0.47,0.87,0.04,1.32,1.78,3.22
2024-12-06 13:22:17.82,106.2,648.0,0.47,0.87,0.04,1.2,1.78,3.22
2024-12-06 13:22:17.90,103.27,662.0,0.47,0.87,0.04,1.08,1.6,3.28
2024-12-06 13:22:17.98,103.72,639.0,0.47,0.87,0.04,0.89,1.41,3.28
2024-12-06 13:22:17.106,103.27,659.0,0.47,0.88,0.04,0.77,1.35,3.34
2024-12-06 13:22:17.115,103.72,651.0,0.46,0.88,0.04,0.77,1.35,3.34
2024-12-06 13:22:17.135,106.2,658.0,0.47,0.88,0.04,0.77,1.29,3.46
2024-12-06 13:22:17.138,101.7,635.0,0.47,0.88,0.04,1.01,0.8,3.71
2024-12-06 13:22:17.149,102.82,654.0,0.47,0.88,0.04,1.14,0.8,3.77
2024-12-06 13:22:17.265,100.35,652.0,0.46,0.87,0.04,0.95,0.37,4.19
2024-12-06 13:22:17.290,103.95,634.0,0.46,0.87,0.04,0.71,0.31,4.01
2024-12-06 13:22:17.294,101.7,630.0,0.46,0.87,0.04,0.65,0.37,3.95
2024-12-06 13:22:17.300,106.2,637.0,0.46,0.87,0.04,0.71,0.44,3.95
2024-12-06 13:22:17.306,98.32,632.0,0.46,0.88,0.04,0.71,0.44,4.01
2024-12-06 13:22:17.313,101.02,641.0,0.46,0.88,0.04,0.71,0.37,4.01
2024-12-06 13:22:17.322,102.6,654.0,0.46,0.88,0.03,0.71,0.25,4.07
2024-12-06 13:22:17.336,99.45,647.0,0.46,0.88,0.03,0.65,0.01,4.01
2024-12-06 13:22:17.338,103.5,629.0,0.46,0.88,0.03,0.59,-0.11,3.95
2024-12-06 13:22:17.342,104.4,657.0,0.46,0.88,0.03,0.53,-0.17,3.89
2024-12-06 13:22:17.350,100.35,642.0,0.46,0.88,0.03,0.53,-0.17,3.89
2024-12-06 13:22:17.358,103.27,633.0,0.46,0.88,0.04,0.4,0.01,3.77
2024-12-06 13:22:17.368,101.47,663.0,0.46,0.88,0.04,0.34,0.25,3.77
2024-12-06 13:22:17.375,103.27,638.0,0.46,0.87,0.04,0.4,0.44,3.71
2024-12-06 13:22:17.388,103.72,635.0,0.46,0.87,0.04,0.59,0.5,3.64
2024-12-06 13:22:17.393,105.3,638.0,0.46,0.87,0.03,0.77,0.62,3.58
2024-12-06 13:22:17.399,105.52,630.0,0.46,0.87,0.03,0.77,0.62,3.58
2024-12-06 13:22:17.409,103.27,636.0,0.46,0.87,0.03,0.83,0.74,3.4
2024-12-06 13:22:17.416,97.42,628.0,0.46,0.87,0.03,0.89,0.92,3.22
2024-12-06 13:22:17.421,100.57,655.0,0.46,0.87,0.03,0.89,1.05,3.16
2024-12-06 13:22:17.435,101.02,633.0,0.46,0.87,0.03,0.95,1.11,3.16
2024-12-06 13:22:17.438,103.5,637.0,0.46,0.87,0.03,1.01,1.17,3.1
2024-12-06 13:22:17.445,106.2,652.0,0.46,0.87,0.03,1.01,1.17,3.1
2024-12-06 13:22:17.493,99.22,654.0,0.47,0.87,0.03,1.62,0.99,2.12
2024-12-06 13:22:17.497,100.35,660.0,0.47,0.87,0.03,1.62,1.35,2.06
2024-12-06 13:22:17.506,103.5,645.0,0.47,0.86,0.03,1.75,1.05,1.75
2024-12-06 13:22:17.513,101.02,643.0,0.47,0.86,0.03,2.05,0.5,0.96
2024-12-06 13:22:17.524,102.6,648.0,0.47,0.86,0.03,2.11,-0.3,0.1
2024-12-06 13:22:17.531,103.27,660.0,0.48,0.86,0.03,2.11,-0.3,0.1
2024-12-06 13:22:17.538,103.05,655.0,0.48,0.86,0.03,2.05,-0.42,-0.81
2024-12-06 13:22:17.548,103.05,632.0,0.48,0.86,0.03,1.81,-1.03,-2.15
2024-12-06 13:22:17.555,104.85,665.0,0.48,0.86,0.03,1.38,-1.15,-3.44
2024-12-06 13:22:17.564,104.17,650.0,0.48,0.86,0.03,1.14,-1.15,-4.41
2024-12-06 13:22:17.569,104.62,642.0,0.47,0.86,0.03,0.89,-1.03,-5.45
2024-12-06 13:22:17.581,105.52,623.0,0.47,0.86,0.03,0.89,-1.03,-5.45
2024-12-06 13:22:17.584,104.85,644.0,0.47,0.87,0.03,0.71,-0.6,-6.18
2024-12-06 13:22:17.615,105.3,653.0,0.39,0.9,0.04,2.17,0.07,-2.83
2024-12-06 13:22:17.623,102.82,652.0,0.43,0.85,0.03,3.09,0.01,-0.99
2024-12-06 13:22:17.631,102.82,632.0,0.47,0.85,0.01,2.36,0.44,-1.05
2024-12-06 13:22:17.736,97.65,640.0,0.44,0.87,0.01,0.1,-1.88,9.69
2024-12-06 13:22:17.751,100.12,628.0,0.46,0.87,0.02,-0.45,-2.49,9.44
2024-12-06 13:22:17.753,97.2,625.0,0.46,0.87,0.02,-0.82,-3.1,8.83
2024-12-06 13:22:17.761,92.92,631.0,0.46,0.87,0.01,-0.45,-3.1,7.43
2024-12-06 13:22:17.773,92.92,642.0,0.47,0.85,0.01,0.16,-2.19,5.78
2024-12-06 13:22:17.781,96.52,625.0,0.48,0.85,0.01,0.16,-2.19,5.78
2024-12-06 13:22:17.783,92.47,613.0,0.48,0.87,0.02,0.59,-1.21,4.62
2024-12-06 13:22:17.805,89.1,621.0,0.46,0.87,0.04,0.71,-1.33,3.52
2024-12-06 13:22:17.807,96.07,646.0,0.45,0.86,0.03,1.2,-1.03,1.81
2024-12-06 13:22:17.814,94.95,621.0,0.45,0.87,0.02,1.2,-1.21,1.87
2024-12-06 13:22:17.821,89.1,637.0,0.44,0.88,0.01,1.01,-1.21,1.87
2024-12-06 13:22:17.831,92.02,636.0,0.43,0.87,0.01,0.83,-1.15,1.75
2024-12-06 13:22:17.837,89.77,633.0,0.43,0.86,0.01,0.65,-0.66,1.81
2024-12-06 13:22:17.850,92.92,623.0,0.44,0.86,0.01,0.65,-0.11,1.81
2024-12-06 13:22:17.854,89.32,623.0,0.44,0.86,0.01,0.71,0.56,1.69
2024-12-06 13:22:17.861,92.02,617.0,0.44,0.86,0.01,0.71,0.56,1.69
2024-12-06 13:22:17.869,88.2,636.0,0.44,0.86,0.01,0.95,1.6,1.39
2024-12-06 13:22:17.886,88.2,620.0,0.45,0.87,0.02,1.32,1.78,0.72
2024-12-06 13:22:17.982,86.4,614.0,0.44,0.89,0.02,1.44,1.41,1.02
2024-12-06 13:22:17.988,86.85,633.0,0.44,0.89,0.02,1.38,1.96,1.39
2024-12-06 13:22:18.1,88.88,602.0,0.45,0.9,0.03,1.01,1.66,1.94
2024-12-06 13:22:18.8,82.35,631.0,0.45,0.9,0.03,0.4,1.23,2.61
2024-12-06 13:22:18.11,87.97,616.0,0.45,0.92,0.03,0.4,-14.4,3.4
2024-12-06 13:22:18.21,86.17,601.0,0.44,0.91,0.02,-0.02,0.68,3.4
2024-12-06 13:22:18.28,87.52,603.0,0.44,0.9,0.02,-0.15,0.44,3.89
2024-12-06 13:22:18.37,86.17,601.0,0.45,0.89,0.02,0.1,0.44,4.13
2024-12-06 13:22:18.43,84.15,609.0,0.45,0.89,0.02,0.28,0.07,4.44
2024-12-06 13:22:18.55,85.05,608.0,0.45,0.89,0.02,0.53,0.25,4.5
2024-12-06 13:22:18.59,84.82,602.0,0.45,0.88,0.01,0.65,0.8,4.44
2024-12-06 13:22:18.68,81.22,610.0,0.45,0.88,0.01,0.65,0.8,4.44
2024-12-06 13:22:18.75,83.7,607.0,0.45,0.89,0.02,0.65,0.68,4.44
2024-12-06 13:22:18.89,80.55,601.0,0.45,0.89,0.02,0.65,0.86,4.5
2024-12-06 13:22:18.91,83.47,610.0,0.45,0.89,0.02,0.71,0.8,4.5
2024-12-06 13:22:18.98,82.12,614.0,0.45,0.89,0.02,0.89,0.13,4.74
2024-12-06 13:22:18.108,83.7,612.0,0.44,0.89,0.03,1.26,-0.85,4.62
2024-12-06 13:22:18.115,84.6,586.0,0.43,0.88,0.02,1.26,-0.85,4.62
2024-12-06 13:22:18.128,82.35,599.0,0.43,0.88,0.01,1.26,-0.17,4.32
2024-12-06 13:22:18.131,79.42,605.0,0.43,0.88,0.01,1.14,0.07,4.01
2024-12-06 13:22:18.173,82.35,596.0,0.43,0.89,0.02,0.77,0.44,3.95
2024-12-06 13:22:18.176,76.72,615.0,0.42,0.89,0.01,0.83,0.56,4.56
2024-12-06 13:22:18.180,80.1,609.0,0.42,0.88,0.01,1.01,0.74,4.44
2024-12-06 13:22:18.184,78.97,595.0,0.42,0.88,0.01,1.26,0.92,3.95
2024-12-06 13:22:18.192,78.3,592.0,0.43,0.87,0.02,1.2,0.5,3.52
2024-12-06 13:22:18.201,79.88,595.0,0.43,0.89,0.03,1.2,0.5,3.52
2024-12-06 13:22:18.209,76.95,580.0,0.43,0.9,0.02,1.2,0.13,3.1
2024-12-06 13:22:18.217,75.82,588.0,0.43,0.9,0.02,1.2,-0.24,2.67
2024-12-06 13:22:18.227,76.28,592.0,0.44,0.91,0.01,1.14,-0.3,2.61
2024-12-06 13:22:18.230,78.07,623.0,0.44,0.91,0.01,1.14,-0.48,2.91
2024-12-06 13:22:18.238,78.75,587.0,0.44,0.9,0.01,1.32,-1.58,2.91
2024-12-06 13:22:18.248,76.28,589.0,0.43,0.89,0.01,1.32,-1.58,2.91
2024-12-06 13:22:18.256,76.72,581.0,0.43,0.88,0.01,1.26,-1.76,2.67
2024-12-06 13:22:18.262,75.38,579.0,0.42,0.87,0.0,1.38,-1.4,2.3
2024-12-06 13:22:18.270,76.72,597.0,0.43,0.87,0.01,1.38,-0.78,1.63
2024-12-06 13:22:18.286,76.05,594.0,0.43,0.87,0.01,0.95,-1.15,1.57
2024-12-06 13:22:18.306,75.82,615.0,0.43,0.9,0.03,0.95,-1.76,1.57
2024-12-06 13:22:18.314,78.07,594.0,0.43,0.88,0.02,1.01,-0.91,0.9
2024-12-06 13:22:18.318,74.03,583.0,0.43,0.88,0.02,0.71,-0.42,0.78
2024-12-06 13:22:18.325,72.9,600.0,0.43,0.88,0.02,0.71,-0.42,0.78
2024-12-06 13:22:18.332,71.32,586.0,0.43,0.88,0.02,0.59,0.07,0.96
2024-12-06 13:22:18.443,66.6,568.0,0.43,0.9,0.03,1.69,2.94,-0.02
2024-12-06 13:22:18.457,63.67,586.0,0.43,0.91,0.02,1.44,1.96,0.29
2024-12-06 13:22:18.462,68.85,570.0,0.43,0.91,0.01,1.5,1.29,0.47
2024-12-06 13:22:18.473,64.8,573.0,0.43,0.91,0.01,1.44,0.5,0.53
2024-12-06 13:22:18.481,64.12,571.0,0.42,0.9,0.0,1.44,0.5,0.53
2024-12-06 13:22:18.486,63.45,585.0,0.42,0.9,-0.01,1.26,-0.17,0.53
2024-12-06 13:22:18.490,63.9,552.0,0.42,0.91,-0.0,0.95,0.07,0.59
2024-12-06 13:22:18.511,65.03,556.0,0.42,0.91,0.01,1.01,-0.85,1.2
2024-12-06 13:22:18.517,63.45,556.0,0.41,0.9,0.01,0.95,0.31,1.02
2024-12-06 13:22:18.527,60.75,557.0,0.42,0.89,0.0,0.95,0.31,1.02
2024-12-06 13:22:18.530,64.8,568.0,0.42,0.9,0.01,1.08,1.23,1.26
2024-12-06 13:22:18.537,65.7,568.0,0.42,0.9,0.0,1.01,1.78,1.69
2024-12-06 13:22:18.543,66.82,572.0,0.42,0.9,0.01,0.95,2.14,2.06
2024-12-06 13:22:18.553,65.25,579.0,0.42,0.9,0.01,0.77,2.21,2.55
2024-12-06 13:22:18.561,60.75,549.0,0.42,0.9,0.02,0.77,2.21,2.55
2024-12-06 13:22:18.566,61.42,552.0,0.41,0.89,0.02,0.71,1.72,2.91
2024-12-06 13:22:18.574,63.45,569.0,0.41,0.89,0.01,0.71,1.84,2.97
2024-12-06 13:22:18.582,63.9,566.0,0.43,0.89,0.01,0.53,1.84,3.03
2024-12-06 13:22:18.590,59.85,570.0,0.43,0.89,0.01,0.46,1.96,3.22
2024-12-06 13:22:18.598,63.67,565.0,0.43,0.9,0.01,0.53,1.6,3.28
2024-12-06 13:22:18.605,64.12,546.0,0.43,0.9,0.01,0.53,1.6,3.28
2024-12-06 13:22:18.638,58.27,534.0,0.42,0.9,0.01,0.77,1.35,2.67
2024-12-06 13:22:18.644,60.75,551.0,0.43,0.89,0.01,0.77,1.35,2.67
2024-12-06 13:22:18.650,59.4,547.0,0.43,0.89,0.01,0.59,1.35,2.55
2024-12-06 13:22:18.658,60.07,537.0,0.43,0.9,0.01,0.53,1.35,2.67
2024-12-06 13:22:18.666,61.65,574.0,0.44,0.9,0.02,0.71,0.92,2.91
2024-12-06 13:22:18.678,60.3,548.0,0.44,0.9,0.02,0.77,0.56,3.34
2024-12-06 13:22:18.682,58.95,553.0,0.43,0.9,0.02,1.26,-0.42,3.03
2024-12-06 13:22:18.693,55.57,545.0,0.42,0.89,0.01,1.26,-0.42,3.03
2024-12-06 13:22:18.699,56.47,533.0,0.42,0.89,-0.0,1.38,-0.17,2.67
2024-12-06 13:22:18.706,58.27,536.0,0.42,0.9,-0.0,1.32,0.37,2.55
2024-12-06 13:22:18.721,55.35,548.0,0.42,0.92,0.0,0.95,0.19,3.16
2024-12-06 13:22:18.727,58.05,562.0,0.42,0.92,0.0,0.89,-0.48,3.71
2024-12-06 13:22:18.729,53.1,532.0,0.4,0.91,0.0,0.89,-0.78,3.83
2024-12-06 13:22:18.745,56.02,526.0,0.41,0.91,0.0,0.46,0.25,4.13
2024-12-06 13:22:18.753,54.9,526.0,0.41,0.91,0.01,0.22,0.56,4.8
2024-12-06 13:22:18.765,48.6,531.0,0.4,0.9,0.01,0.34,0.8,5.54
2024-12-06 13:22:18.773,50.4,527.0,0.4,0.9,0.01,0.77,0.44,5.78
2024-12-06 13:22:18.793,51.75,526.0,0.4,0.9,0.01,0.77,16.06,5.6
2024-12-06 13:22:18.797,50.62,512.0,0.41,0.9,0.0,0.71,2.51,5.35
2024-12-06 13:22:18.799,51.97,513.0,0.42,0.9,0.01,0.53,3.3,5.17
2024-12-06 13:22:18.807,49.72,527.0,0.42,0.9,0.01,0.95,2.33,5.23
2024-12-06 13:22:18.842,50.85,519.0,0.43,0.9,-0.01,1.26,2.27,4.32
2024-12-06 13:22:18.845,46.57,518.0,0.43,0.9,-0.01,1.08,1.72,4.68
2024-12-06 13:22:18.853,45.67,520.0,0.42,0.91,0.01,1.08,0.74,4.74
2024-12-06 13:22:18.861,45.67,523.0,0.41,0.9,0.01,1.08,0.74,4.74
2024-12-06 13:22:18.869,47.25,526.0,0.42,0.89,0.01,0.89,1.23,4.5
2024-12-06 13:22:18.876,49.5,519.0,0.42,0.9,0.01,0.71,1.72,4.38
2024-12-06 13:22:18.886,43.42,529.0,0.41,0.9,0.01,0.71,2.02,4.5
2024-12-06 13:22:18.895,48.82,547.0,0.41,0.89,0.01,0.83,0.86,4.26
2024-12-06 13:22:18.904,42.52,520.0,0.4,0.89,0.01,0.83,1.66,3.95
2024-12-06 13:22:18.908,41.62,520.0,0.41,0.9,0.0,0.83,1.66,3.89
2024-12-06 13:22:18.930,44.55,541.0,0.42,0.89,0.0,0.71,3.12,4.13
2024-12-06 13:22:18.935,46.57,523.0,0.41,0.9,0.01,0.65,2.33,4.13
2024-12-06 13:22:19.46,38.25,521.0,0.42,0.89,0.01,0.71,3.3,3.46
2024-12-06 13:22:19.66,42.08,529.0,0.42,0.89,0.02,1.32,4.46,1.69
2024-12-06 13:22:19.72,34.2,510.0,0.43,0.89,0.02,1.56,4.71,1.75
2024-12-06 13:22:19.81,35.1,518.0,0.43,0.89,0.02,1.75,4.22,1.81
2024-12-06 13:22:19.94,34.42,521.0,0.42,0.89,0.01,1.87,3.85,1.39
2024-12-06 13:22:19.98,37.58,509.0,0.41,0.88,0.01,1.87,3.85,1.39
2024-12-06 13:22:19.104,32.62,514.0,0.42,0.89,0.0,1.75,4.1,0.96
2024-12-06 13:22:19.111,36.22,519.0,0.42,0.89,0.01,1.69,4.1,0.84
2024-12-06 13:22:19.120,33.97,520.0,0.42,0.9,0.01,1.69,4.28,0.96
2024-12-06 13:22:19.143,38.25,515.0,0.4,0.91,0.01,1.87,4.16,1.87
2024-12-06 13:22:19.150,27.0,505.0,0.4,0.9,0.01,1.87,4.28,1.69
2024-12-06 13:22:19.158,31.05,510.0,0.41,0.91,0.01,1.62,4.65,1.69
2024-12-06 13:22:19.168,33.08,503.0,0.41,0.91,0.01,1.56,4.89,2.12
2024-12-06 13:22:19.177,35.1,515.0,0.41,0.92,0.01,1.44,4.89,2.97
2024-12-06 13:22:19.181,27.67,499.0,0.41,0.92,0.0,1.44,4.89,2.97
2024-12-06 13:22:19.189,30.38,520.0,0.4,0.91,0.01,1.44,4.71,3.89
2024-12-06 13:22:19.199,35.55,516.0,0.4,0.91,0.01,1.44,3.91,4.13
2024-12-06 13:22:19.204,30.38,509.0,0.4,0.91,0.0,1.01,4.04,4.19
2024-12-06 13:22:19.213,31.05,494.0,0.4,0.91,0.0,0.71,4.83,4.5
2024-12-06 13:22:19.221,30.6,511.0,0.41,0.92,0.0,0.65,5.38,5.23
2024-12-06 13:22:19.228,29.02,502.0,0.42,0.92,0.01,0.65,5.38,5.23
2024-12-06 13:22:19.237,28.35,513.0,0.41,0.92,0.02,0.71,5.26,6.15
2024-12-06 13:22:19.246,31.95,507.0,0.4,0.91,0.02,0.95,4.22,6.33
2024-12-06 13:22:19.255,24.52,502.0,0.42,0.9,0.01,0.77,4.77,5.96
2024-12-06 13:22:19.267,26.1,499.0,0.42,0.9,0.01,0.4,5.75,6.03
2024-12-06 13:22:19.303,28.12,516.0,0.42,0.89,0.01,0.59,5.07,6.88
2024-12-06 13:22:19.305,28.35,502.0,0.43,0.89,0.01,0.59,5.5,7.12
2024-12-06 13:22:19.325,20.92,497.0,0.45,0.9,0.01,0.4,5.5,7.12
2024-12-06 13:22:19.330,25.2,514.0,0.44,0.9,0.01,0.22,6.11,7.49
2024-12-06 13:22:19.333,19.57,523.0,0.42,0.9,0.02,0.28,5.5,7.49
2024-12-06 13:22:19.336,22.05,503.0,0.42,0.9,0.02,0.34,5.2,7.0
2024-12-06 13:22:19.389,22.95,505.0,0.42,0.9,0.02,0.34,5.99,6.7
2024-12-06 13:22:19.392,24.97,498.0,0.43,0.88,0.01,0.77,5.26,6.94
2024-12-06 13:22:19.397,19.12,502.0,0.43,0.89,0.01,0.77,5.26,7.06
2024-12-06 13:22:19.406,21.38,504.0,0.43,0.89,0.02,0.83,4.83,7.37
2024-12-06 13:22:19.412,17.77,511.0,0.42,0.89,0.01,0.95,4.28,7.31
2024-12-06 13:22:19.423,22.05,510.0,0.42,0.89,0.01,0.95,4.04,7.06
2024-12-06 13:22:19.436,19.35,493.0,0.42,0.89,0.01,1.01,4.04,6.82
2024-12-06 13:22:19.442,21.82,502.0,0.42,0.89,0.01,1.01,4.04,6.82
2024-12-06 13:22:19.445,18.45,498.0,0.43,0.9,0.02,0.95,4.83,6.88
2024-12-06 13:22:19.451,18.45,496.0,0.43,0.9,0.02,1.08,5.07,7.25
2024-12-06 13:22:19.459,18.23,492.0,0.41,0.89,0.02,1.32,4.46,7.18
2024-12-06 13:22:19.467,14.62,509.0,0.41,0.89,0.02,1.26,5.68,6.82
2024-12-06 13:22:19.475,16.42,504.0,0.42,0.89,0.01,1.14,7.39,6.94
2024-12-06 13:22:19.484,16.42,500.0,0.42,0.89,0.01,1.14,7.39,6.94
2024-12-06 13:22:19.493,16.88,495.0,0.42,0.89,0.02,1.2,8.31,7.25
2024-12-06 13:22:19.504,12.82,506.0,0.41,0.89,0.02,1.32,7.88,7.25
2024-12-06 13:22:19.512,15.07,509.0,0.41,0.89,0.01,1.56,7.52,7.06
2024-12-06 13:22:19.523,14.4,503.0,0.41,0.89,0.01,1.75,7.94,7.18
2024-12-06 13:22:19.526,15.75,534.0,0.43,0.89,0.01,1.93,8.37,7.61
2024-12-06 13:22:19.560,13.72,511.0,0.44,0.89,0.01,1.93,8.37,7.61
2024-12-06 13:22:19.562,11.02,497.0,0.45,0.89,0.0,2.17,8.13,8.22
2024-12-06 13:22:19.567,13.05,518.0,0.46,0.9,0.01,2.11,8.13,8.22
2024-12-06 13:22:19.577,10.57,492.0,0.44,0.89,0.01,2.23,7.82,8.34
2024-12-06 13:22:19.584,5.17,488.0,0.43,0.89,0.02,2.42,7.39,8.04
2024-12-06 13:22:19.590,9.68,503.0,0.43,0.89,0.02,2.48,8.07,7.92
2024-12-06 13:22:19.601,6.3,499.0,0.44,0.89,0.02,2.72,8.92,8.28
2024-12-06 13:22:19.607,3.38,496.0,0.45,0.89,0.03,2.72,8.92,8.28
2024-12-06 13:22:19.617,9.0,501.0,0.43,0.9,0.03,3.09,8.37,8.53
2024-12-06 13:22:19.634,6.97,512.0,0.43,0.89,0.02,3.21,7.82,8.28
2024-12-06 13:22:19.638,7.2,499.0,0.45,0.9,0.02,3.15,9.47,9.14
2024-12-06 13:22:19.646,2.7,494.0,0.44,0.89,0.03,3.15,9.47,9.14
2024-12-06 13:22:19.654,4.5,498.0,0.44,0.88,0.03,3.33,7.82,8.95
2024-12-06 13:22:19.660,1.12,507.0,0.46,0.89,0.01,3.21,8.86,8.89
2024-12-06 13:22:19.669,5.17,509.0,0.46,0.89,0.02,2.91,10.32,9.69
2024-12-06 13:22:19.675,3.15,494.0,0.46,0.89,0.03,3.09,9.47,10.05
2024-12-06 13:22:19.683,0.22,494.0,0.44,0.88,0.03,3.09,9.71,10.05
2024-12-06 13:22:19.691,1.12,507.0,0.44,0.89,0.02,3.09,9.71,10.05
2024-12-06 13:22:19.700,-3.15,498.0,0.46,0.89,0.02,3.33,10.45,10.66
2024-12-06 13:22:19.706,-0.22,523.0,0.45,0.88,0.03,3.46,9.29,11.4
2024-12-06 13:22:19.719,-2.02,495.0,0.4,0.87,0.03,3.52,6.42,10.18
2024-12-06 13:22:19.757,-0.67,514.0,0.41,0.86,0.03,2.36,3.12,0.35
2024-12-06 13:22:19.767,-0.67,508.0,0.41,0.86,0.03,1.93,2.02,-0.93
2024-12-06 13:22:19.770,-3.15,500.0,0.41,0.87,0.04,2.17,1.47,-2.58
2024-12-06 13:22:19.777,-3.38,505.0,0.4,0.88,0.02,2.17,1.47,-2.58
2024-12-06 13:22:19.784,-2.7,515.0,0.4,0.88,0.03,2.23,2.27,-4.29
2024-12-06 13:22:19.794,-3.38,519.0,0.4,0.88,0.03,2.54,0.8,-5.57
2024-12-06 13:22:19.800,-6.3,506.0,0.41,0.88,0.01,2.36,0.8,-6.3
2024-12-06 13:22:19.808,-1.57,507.0,0.41,0.88,0.01,1.87,1.66,-6.55
2024-12-06 13:22:19.816,-5.17,524.0,0.42,0.89,0.02,1.38,1.11,-6.3
2024-12-06 13:22:19.823,-2.7,506.0,0.41,0.89,0.03,1.38,1.11,-6.3
2024-12-06 13:22:19.834,-7.65,509.0,0.41,0.9,0.02,0.95,0.62,-5.82
2024-12-06 13:22:19.844,-2.92,518.0,0.43,0.91,0.01,0.77,1.84,-4.6
2024-12-06 13:22:19.847,-2.47,516.0,0.43,0.91,0.02,0.71,2.69,-2.7
2024-12-06 13:22:19.853,-4.5,510.0,0.43,0.91,0.02,0.34,2.39,-0.99
2024-12-06 13:22:19.863,-2.02,507.0,0.41,0.92,0.03,0.34,1.84,0.29
2024-12-06 13:22:19.876,-2.92,510.0,0.41,0.92,0.03,-0.21,1.84,0.29
2024-12-06 13:22:19.879,-2.92,522.0,0.42,0.92,0.03,-0.7,1.47,1.39
2024-12-06 13:22:19.888,-5.62,517.0,0.43,0.91,0.03,-1.06,1.41,2.49
2024-12-06 13:22:19.894,-3.6,516.0,0.43,0.91,0.03,-1.24,1.35,3.34
2024-12-06 13:22:19.907,-0.9,506.0,0.43,0.91,0.03,-1.37,0.99,3.95
2024-12-06 13:22:19.910,-3.38,484.0,0.43,0.9,0.03,-1.37,0.99,3.95
2024-12-06 13:22:19.916,-0.22,517.0,0.44,0.9,0.03,-1.31,1.05,4.44
2024-12-06 13:22:19.923,-3.15,512.0,0.45,0.9,0.03,-1.18,1.53,4.68
2024-12-06 13:22:19.934,-3.15,511.0,0.45,0.89,0.03,-1.12,1.78,4.68
2024-12-06 13:22:19.942,0.0,518.0,0.45,0.89,0.03,-0.88,1.9,4.56
2024-12-06 13:22:19.975,-3.6,517.0,0.45,0.88,0.03,0.16,1.41,3.95
2024-12-06 13:22:20.72,-7.2,504.0,0.45,0.88,0.03,0.22,0.92,3.77
2024-12-06 13:22:20.81,-0.67,525.0,0.4,0.89,0.02,1.56,3.49,2.97
2024-12-06 13:22:20.87,-3.6,522.0,0.4,0.89,0.02,1.56,3.49,2.97
2024-12-06 13:22:20.97,-6.07,502.0,0.41,0.89,0.02,1.56,3.18,2.97
2024-12-06 13:22:20.103,-6.97,506.0,0.41,0.89,0.02,1.44,2.69,2.91
2024-12-06 13:22:20.112,-0.9,508.0,0.42,0.89,0.02,1.26,2.27,2.91
2024-12-06 13:22:20.120,-4.72,505.0,0.42,0.89,0.02,1.14,2.02,2.85
2024-12-06 13:22:20.127,-6.75,525.0,0.42,0.89,0.02,1.08,1.78,2.73
2024-12-06 13:22:20.139,-5.62,521.0,0.42,0.89,0.03,1.14,1.72,2.55
2024-12-06 13:22:20.144,-5.62,516.0,0.42,0.89,0.03,1.14,1.72,2.55
2024-12-06 13:22:20.155,-5.4,515.0,0.43,0.88,0.02,1.2,1.72,2.18
2024-12-06 13:22:20.160,-2.7,507.0,0.43,0.89,0.02,1.2,1.9,1.94
2024-12-06 13:22:20.166,-6.07,500.0,0.43,0.89,0.02,1.08,2.14,1.63
2024-12-06 13:22:20.173,-4.95,511.0,0.43,0.89,0.02,0.95,2.21,1.33
2024-12-06 13:22:20.181,-3.38,522.0,0.42,0.89,0.03,0.95,2.21,1.33
2024-12-06 13:22:20.189,-2.92,514.0,0.42,0.89,0.03,0.89,2.02,1.14
2024-12-06 13:22:20.198,-1.57,505.0,0.42,0.89,0.03,0.83,1.84,1.08
2024-12-06 13:22:20.205,-2.7,497.0,0.42,0.89,0.03,0.71,1.72,1.08
2024-12-06 13:22:20.213,-3.38,509.0,0.42,0.89,0.03,0.71,1.78,1.2
2024-12-06 13:22:20.220,-1.12,507.0,0.42,0.89,0.03,0.65,1.84,1.39
2024-12-06 13:22:20.228,0.0,523.0,0.42,0.89,0.02,0.65,1.84,1.39
2024-12-06 13:22:20.238,-0.9,515.0,0.42,0.89,0.02,0.46,2.08,1.51
2024-12-06 13:22:20.244,-1.57,504.0,0.42,0.89,0.03,0.34,2.14,1.57
2024-12-06 13:22:20.277,-3.38,508.0,0.42,0.89,0.02,-0.15,1.9,1.33
2024-12-06 13:22:20.281,-6.07,505.0,0.42,0.89,0.03,-0.21,1.78,1.26
2024-12-06 13:22:20.294,-8.32,506.0,0.42,0.89,0.03,-0.27,1.78,1.2
2024-12-06 13:22:20.300,-2.47,511.0,0.42,0.89,0.03,-0.27,1.72,1.2
2024-12-06 13:22:20.304,-3.15,568.0,0.42,0.9,0.03,-0.27,1.72,1.2
2024-12-06 13:22:20.312,-3.15,507.0,0.42,0.9,0.02,-0.21,1.53,1.26
2024-12-06 13:22:20.320,-1.57,516.0,0.42,0.9,0.02,-0.21,1.78,1.26
2024-12-06 13:22:20.329,-5.4,505.0,0.42,0.9,0.02,-0.27,2.14,1.14
2024-12-06 13:22:20.337,-5.85,527.0,0.42,0.9,0.03,-0.27,1.96,1.08
2024-12-06 13:22:20.347,-3.15,541.0,0.41,0.9,0.03,-0.27,1.96,1.02
2024-12-06 13:22:20.351,-0.67,509.0,0.41,0.9,0.03,-0.27,1.96,1.02
2024-12-06 13:22:20.363,-6.3,507.0,0.41,0.9,0.03,-0.21,2.27,1.08
2024-12-06 13:22:20.367,-3.15,513.0,0.41,0.9,0.03,-0.21,2.39,1.14
2024-12-06 13:22:20.375,-7.65,501.0,0.41,0.9,0.02,-0.27,2.69,1.2
2024-12-06 13:22:20.385,-1.12,509.0,0.41,0.9,0.02,-0.27,3.0,1.26
2024-12-06 13:22:20.395,-4.72,529.0,0.41,0.9,0.02,-0.27,3.06,1.33
2024-12-06 13:22:20.420,-4.95,520.0,0.41,0.91,0.03,-0.27,2.63,1.33
2024-12-06 13:22:20.423,-2.7,503.0,0.41,0.91,0.03,-0.33,2.57,1.39
2024-12-06 13:22:20.428,-3.15,505.0,0.41,0.91,0.03,-0.33,2.39,1.39
2024-12-06 13:22:20.436,-4.28,512.0,0.41,0.91,0.03,-0.33,2.39,1.39
2024-12-06 13:22:20.471,-7.88,519.0,0.41,0.91,0.03,-0.33,2.21,1.39
2024-12-06 13:22:20.474,-3.15,542.0,0.41,0.9,0.03,-0.27,1.53,1.26
2024-12-06 13:22:20.476,-5.62,528.0,0.41,0.9,0.03,-0.27,1.53,1.26
2024-12-06 13:22:20.489,-6.07,524.0,0.41,0.9,0.03,-0.33,1.41,1.26
2024-12-06 13:22:20.491,-3.15,506.0,0.41,0.9,0.03,-0.27,1.23,1.26
2024-12-06 13:22:20.497,-5.85,509.0,0.41,0.9,0.03,-0.21,0.92,1.33
2024-12-06 13:22:20.507,-2.7,509.0,0.41,0.9,0.03,-0.15,0.56,1.33
2024-12-06 13:22:20.512,-2.25,506.0,0.41,0.9,0.03,-0.15,0.56,1.39
2024-12-06 13:22:20.521,-2.25,508.0,0.41,0.9,0.03,-0.02,0.44,1.39
2024-12-06 13:22:20.528,-5.85,504.0,0.4,0.91,0.03,-0.02,0.56,1.45
2024-12-06 13:22:20.541,-3.6,512.0,0.4,0.91,0.03,-0.02,0.92,1.45
2024-12-06 13:22:20.544,-3.38,508.0,0.4,0.91,0.03,0.04,1.23,1.51
2024-12-06 13:22:20.554,-4.5,497.0,0.4,0.91,0.03,0.1,1.53,1.63
2024-12-06 13:22:20.560,-0.22,504.0,0.4,0.91,0.03,0.1,1.53,1.63
2024-12-06 13:22:20.572,-2.02,515.0,0.4,0.91,0.03,0.1,1.72,1.75
2024-12-06 13:22:20.575,-7.2,516.0,0.4,0.9,0.03,0.16,1.84,1.81
2024-12-06 13:22:20.582,-2.47,524.0,0.4,0.9,0.03,0.16,2.02,2.0
2024-12-06 13:22:20.592,-2.92,507.0,0.4,0.9,0.03,0.16,2.14,2.12
2024-12-06 13:22:20.599,-3.15,518.0,0.4,0.9,0.03,0.16,2.14,2.24
2024-12-06 13:22:20.607,-0.67,526.0,0.4,0.9,0.03,0.22,2.33,2.24
2024-12-06 13:22:20.614,-0.9,505.0,0.4,0.9,0.03,0.34,2.45,2.36
2024-12-06 13:22:20.623,-3.38,512.0,0.4,0.9,0.03,0.4,2.51,2.49
2024-12-06 13:22:20.682,-3.15,521.0,0.4,0.91,0.03,0.53,2.39,2.55
2024-12-06 13:22:20.689,-5.62,519.0,0.4,0.91,0.03,0.83,2.45,3.1
2024-12-06 13:22:20.691,-8.55,511.0,0.4,0.91,0.03,0.83,2.39,3.16
2024-12-06 13:22:20.695,-2.7,539.0,0.4,0.9,0.03,0.77,2.57,3.22
2024-12-06 13:22:20.703,-7.2,514.0,0.4,0.9,0.03,0.65,2.33,3.1
2024-12-06 13:22:20.711,-3.15,503.0,0.4,0.9,0.03,0.65,2.33,2.97
2024-12-06 13:22:20.718,-6.97,518.0,0.4,0.9,0.03,0.53,2.27,2.97
2024-12-06 13:22:20.727,-5.17,503.0,0.4,0.9,0.03,0.53,2.33,2.91
2024-12-06 13:22:20.737,-2.7,515.0,0.4,0.9,0.03,0.46,2.02,2.85
2024-12-06 13:22:20.744,-3.15,502.0,0.4,0.9,0.03,0.4,1.84,2.67
2024-12-06 13:22:20.751,-2.47,520.0,0.4,0.9,0.03,0.28,1.78,2.61
2024-12-06 13:22:20.757,-4.05,514.0,0.4,0.91,0.03,0.28,1.78,2.61
2024-12-06 13:22:20.774,-6.07,527.0,0.4,0.91,0.03,0.22,1.6,2.55
2024-12-06 13:22:20.777,-6.3,535.0,0.39,0.91,0.03,0.16,1.6,2.42
2024-12-06 13:22:20.781,-7.88,510.0,0.39,0.91,0.03,0.1,1.66,2.36
2024-12-06 13:22:20.795,-0.9,517.0,0.39,0.91,0.03,0.04,1.66,2.3
2024-12-06 13:22:20.801,-3.82,518.0,0.39,0.91,0.03,0.04,1.66,2.3
2024-12-06 13:22:20.805,-4.95,517.0,0.39,0.91,0.03,0.04,1.6,2.42
2024-12-06 13:22:20.812,-3.15,512.0,0.39,0.91,0.03,-0.02,1.41,2.42
2024-12-06 13:22:20.819,-3.6,511.0,0.39,0.91,0.03,-0.08,1.23,2.49
2024-12-06 13:22:20.826,-0.9,509.0,0.39,0.91,0.03,-0.21,1.11,2.49
2024-12-06 13:22:20.835,-2.47,514.0,0.39,0.91,0.03,-0.27,0.8,2.55
2024-12-06 13:22:20.842,-3.15,520.0,0.39,0.91,0.03,-0.27,0.8,2.55
2024-12-06 13:22:20.849,-0.45,510.0,0.4,0.91,0.03,-0.33,0.62,2.61
