Timestamp,PosIsDeg,ForceIs,AccX,AccY,AccZ,GyroX,GyroY,GyroZ
2024-12-16 10:31:52.578,3.38,547.0,0.24,0.96,0.09,0.11,-0.1,0.29
2024-12-16 10:31:52.647,5.85,545.0,0.24,0.96,0.09,-0.01,0.14,0.29
2024-12-16 10:31:52.717,-0.45,535.0,0.25,0.96,0.1,0.11,-0.71,0.23
2024-12-16 10:31:52.806,4.5,519.0,0.22,0.95,0.1,0.23,-2.97,-2.03
2024-12-16 10:31:52.861,2.02,505.0,0.24,0.98,0.11,-0.01,-0.04,-7.09
2024-12-16 10:31:52.930,11.02,497.0,0.22,0.96,0.1,0.96,0.75,-4.22
2024-12-16 10:31:52.994,13.05,515.0,0.23,0.99,0.09,0.29,4.78,0.23
2024-12-16 10:31:53.56,12.15,548.0,0.26,0.98,0.1,-1.05,7.77,5.6
2024-12-16 10:31:53.188,16.2,540.0,0.3,0.97,0.07,-1.6,3.13,11.77
2024-12-16 10:31:53.292,17.1,574.0,0.27,0.95,0.13,-6.42,-0.89,12.62
2024-12-16 10:31:53.347,21.15,560.0,0.27,0.95,0.11,-5.08,-2.66,6.82
2024-12-16 10:31:53.395,27.9,555.0,0.27,0.95,0.12,-3.98,-3.09,6.09
2024-12-16 10:31:53.457,29.47,561.0,0.27,0.95,0.12,-2.46,-1.75,3.96
2024-12-16 10:31:53.512,32.4,580.0,0.27,0.93,0.12,-1.23,-2.48,1.45
2024-12-16 10:31:53.563,34.88,564.0,0.28,0.94,0.13,-1.66,-0.1,3.89
2024-12-16 10:31:53.611,36.45,569.0,0.29,0.93,0.12,-1.91,0.51,3.04
2024-12-16 10:31:53.659,33.97,555.0,0.29,0.94,0.14,-1.91,1.3,3.35
2024-12-16 10:31:54.931,36.67,562.0,0.31,0.93,0.13,0.05,1.55,1.27
2024-12-16 10:31:54.978,40.72,555.0,0.3,0.93,0.13,-0.07,1.49,1.33
2024-12-16 10:31:55.28,39.6,553.0,0.31,0.94,0.13,-0.26,1.12,1.45
2024-12-16 10:31:55.91,37.8,567.0,0.31,0.94,0.13,-0.26,0.88,0.9
2024-12-16 10:31:55.171,38.02,551.0,0.31,0.94,0.13,-0.2,0.75,1.09
2024-12-16 10:31:55.275,42.52,556.0,0.31,0.93,0.13,0.05,0.27,0.29
2024-12-16 10:31:55.317,43.88,552.0,0.31,0.93,0.14,0.17,-0.34,-0.19
2024-12-16 10:31:55.368,39.83,549.0,0.3,0.94,0.13,-0.07,0.27,-0.5
2024-12-16 10:31:55.410,39.38,542.0,0.3,0.93,0.13,-0.5,0.57,-0.62
2024-12-16 10:31:55.459,42.08,564.0,0.3,0.94,0.13,-0.75,0.75,-0.5
2024-12-16 10:31:55.506,43.42,550.0,0.31,0.94,0.13,-0.75,0.69,-0.38
2024-12-16 10:31:55.551,40.05,556.0,0.31,0.93,0.13,-0.14,0.88,-0.68
2024-12-16 10:31:55.608,45.0,541.0,0.3,0.95,0.14,0.54,0.33,-1.6
2024-12-16 10:31:55.661,40.27,550.0,0.31,0.94,0.14,0.84,-0.04,-2.03
2024-12-16 10:31:55.710,42.08,539.0,0.31,0.93,0.14,0.84,-0.71,-1.66
2024-12-16 10:31:55.760,39.38,557.0,0.3,0.94,0.14,0.35,-0.47,-0.62
2024-12-16 10:31:55.804,39.38,541.0,0.3,0.94,0.14,-0.44,-0.41,-0.01
2024-12-16 10:31:55.849,40.05,545.0,0.3,0.94,0.14,-0.56,-0.65,-0.13
2024-12-16 10:31:55.897,31.27,544.0,0.3,0.94,0.14,-0.2,-1.08,-0.19
2024-12-16 10:31:55.945,40.27,555.0,0.3,0.95,0.14,-0.01,-1.38,-0.62
2024-12-16 10:31:55.995,39.15,548.0,0.3,0.94,0.14,0.11,-0.89,-0.5
2024-12-16 10:31:56.8,41.85,535.0,0.3,0.94,0.13,0.05,-0.83,-0.5
2024-12-16 10:31:56.56,38.25,554.0,0.3,0.94,0.14,0.05,-0.77,-0.32
2024-12-16 10:31:57.24,37.8,546.0,0.3,0.94,0.13,0.35,-0.34,0.78
2024-12-16 10:31:57.88,36.9,560.0,0.3,0.95,0.14,0.23,-0.28,1.09
2024-12-16 10:31:57.138,33.75,675.0,0.37,0.94,0.17,-1.05,19.37,32.15
2024-12-16 10:31:57.187,28.12,702.0,0.29,0.82,0.11,-4.9,11.37,25.26
2024-12-16 10:31:57.284,22.95,699.0,0.25,0.89,0.17,-6.97,-0.34,10.18
2024-12-16 10:31:57.353,21.82,673.0,0.47,0.87,0.2,0.47,5.51,5.66
2024-12-16 10:31:57.496,20.48,655.0,0.39,0.88,0.15,0.6,-10.54,-1.54
2024-12-16 10:31:57.543,16.2,560.0,0.34,0.87,0.16,-1.72,-10.11,-11.06
2024-12-16 10:31:57.589,11.92,543.0,0.33,0.93,0.14,-0.14,-8.28,-16.0
2024-12-16 10:31:57.645,6.75,530.0,0.32,0.95,0.12,-0.75,-7.97,-17.65
2024-12-16 10:31:57.711,9.22,532.0,0.3,0.94,0.17,-3.49,-10.66,-17.28
2024-12-16 10:31:57.770,8.1,592.0,0.3,0.96,0.13,0.84,-8.04,-16.19
2024-12-16 10:31:59.49,-5.85,525.0,0.25,0.95,0.13,-0.14,-0.16,0.54
2024-12-16 10:31:59.123,-1.57,520.0,0.25,0.95,0.13,-0.2,0.33,1.15
2024-12-16 10:31:59.181,3.38,519.0,0.25,0.96,0.13,-0.01,0.63,1.39
2024-12-16 10:31:59.347,3.15,511.0,0.26,0.95,0.14,-0.01,0.39,1.27
2024-12-16 10:31:59.415,2.7,538.0,0.26,0.95,0.13,-0.07,0.39,0.66
2024-12-16 10:31:59.473,-0.45,529.0,0.26,0.95,0.13,-0.32,0.69,0.78
2024-12-16 10:31:59.609,2.7,556.0,0.26,0.95,0.14,-0.2,0.39,0.72
2024-12-16 10:31:59.845,1.12,524.0,0.26,0.95,0.14,0.23,0.2,0.54
2024-12-16 10:31:59.914,4.28,531.0,0.26,0.95,0.14,0.35,0.39,0.6
2024-12-16 10:31:59.968,3.15,523.0,0.27,0.95,0.13,0.29,0.39,0.6
2024-12-16 10:32:00.175,-0.67,538.0,0.26,0.95,0.14,0.17,0.02,0.42
2024-12-16 10:32:00.193,-0.22,518.0,0.26,0.95,0.13,0.17,0.14,0.23
2024-12-16 10:32:01.63,4.72,529.0,0.26,0.95,0.14,0.23,0.08,-0.26
2024-12-16 10:32:01.114,2.02,537.0,0.26,0.95,0.14,0.23,-0.77,-0.62
2024-12-16 10:32:01.173,1.35,522.0,0.26,0.95,0.14,0.05,0.33,-0.01
2024-12-16 10:32:01.223,-0.22,492.0,0.24,0.94,0.14,0.41,-1.75,-4.53
2024-12-16 10:32:01.369,1.8,503.0,0.25,0.98,0.11,0.41,-0.71,-5.99
2024-12-16 10:32:01.424,9.68,510.0,0.25,0.97,0.12,1.33,3.62,-2.94
2024-12-16 10:32:01.484,12.6,538.0,0.29,1.01,0.14,2.43,9.85,8.29
2024-12-16 10:32:01.547,14.85,544.0,0.28,0.95,0.13,-0.14,8.87,16.22
2024-12-16 10:32:01.607,19.35,554.0,0.29,0.94,0.16,-1.42,1.85,15.0
2024-12-16 10:32:01.664,20.92,558.0,0.26,0.93,0.17,-1.78,0.08,12.07
2024-12-16 10:32:01.711,25.42,539.0,0.26,0.91,0.16,-1.91,-1.38,7.56
2024-12-16 10:32:01.778,24.75,551.0,0.27,0.92,0.15,-2.58,-2.97,4.69
2024-12-16 10:32:01.839,29.47,539.0,0.27,0.93,0.14,-2.7,-2.79,-0.26
2024-12-16 10:32:01.898,31.05,539.0,0.3,0.95,0.15,-1.6,-0.59,-2.82
2024-12-16 10:32:01.946,28.8,535.0,0.3,0.94,0.13,-0.56,0.39,-3.06
2024-12-16 10:32:02.9,26.55,536.0,0.29,0.94,0.14,0.05,-0.47,-3.12
2024-12-16 10:32:02.66,33.52,525.0,0.27,0.94,0.15,0.66,0.81,-1.66
2024-12-16 10:32:02.112,36.45,532.0,0.3,0.95,0.13,0.66,-0.41,-2.03
2024-12-16 10:32:03.386,39.83,533.0,0.3,0.94,0.15,0.6,0.51,0.54
2024-12-16 10:32:03.439,42.3,525.0,0.3,0.93,0.15,0.47,-0.41,0.11
2024-12-16 10:32:03.501,40.72,529.0,0.29,0.94,0.15,0.35,-0.53,-0.32
2024-12-16 10:32:03.553,39.83,531.0,0.29,0.94,0.15,0.23,-0.16,-0.5
2024-12-16 10:32:03.617,40.5,538.0,0.29,0.95,0.14,0.29,0.14,0.17
2024-12-16 10:32:03.745,37.58,535.0,0.29,0.94,0.15,0.54,0.33,0.35
2024-12-16 10:32:03.792,38.7,536.0,0.3,0.93,0.15,0.54,-0.1,-0.13
2024-12-16 10:32:03.855,39.83,550.0,0.29,0.94,0.15,0.41,-0.1,-0.87
2024-12-16 10:32:03.902,36.0,528.0,0.29,0.94,0.15,0.41,0.39,-1.11
2024-12-16 10:32:03.949,41.17,537.0,0.29,0.94,0.14,0.29,0.33,-0.99
2024-12-16 10:32:03.995,38.47,532.0,0.29,0.95,0.14,0.47,0.51,-0.56
2024-12-16 10:32:04.42,39.83,527.0,0.29,0.94,0.14,0.66,0.75,0.11
2024-12-16 10:32:04.96,42.97,526.0,0.29,0.95,0.15,0.54,0.81,0.23
2024-12-16 10:32:04.150,41.17,529.0,0.29,0.94,0.14,0.41,0.69,0.35
2024-12-16 10:32:04.198,40.05,525.0,0.29,0.94,0.14,0.41,0.57,0.29
2024-12-16 10:32:05.157,38.92,513.0,0.28,0.94,0.14,0.78,-0.59,-0.87
2024-12-16 10:32:05.227,38.25,579.0,0.33,1.01,0.11,0.9,7.53,6.09
2024-12-16 10:32:05.296,35.55,664.0,0.26,0.78,0.12,-5.2,8.38,17.69
2024-12-16 10:32:05.371,28.8,619.0,0.25,0.84,0.19,-2.33,-6.27,-0.44
2024-12-16 10:32:05.444,24.52,603.0,0.29,0.94,0.19,9.02,-0.28,-10.2
2024-12-16 10:32:05.490,18.9,596.0,0.27,0.97,0.09,4.44,-11.76,-20.46
2024-12-16 10:32:05.568,16.88,572.0,0.25,0.98,0.11,-1.91,-9.13,-16.55
2024-12-16 10:32:05.620,17.32,528.0,0.26,0.96,0.12,-0.93,-2.24,-11.18
2024-12-16 10:32:05.680,13.72,527.0,0.27,0.94,0.13,-0.14,-7.73,-9.78
2024-12-16 10:32:05.729,9.22,536.0,0.25,0.97,0.13,-0.32,-6.69,-9.84
2024-12-16 10:32:05.794,11.7,537.0,0.2,0.97,0.15,0.78,-1.99,-4.96
2024-12-16 10:32:05.848,3.38,536.0,0.23,0.96,0.12,1.76,0.75,-0.68
2024-12-16 10:32:05.899,4.05,559.0,0.24,0.97,0.12,1.15,0.51,-0.19
2024-12-16 10:32:07.203,0.9,525.0,0.22,0.96,0.12,0.05,-0.34,0.72
2024-12-16 10:32:07.275,0.45,536.0,0.22,0.96,0.12,-0.2,0.2,0.72
2024-12-16 10:32:07.326,-0.67,523.0,0.23,0.96,0.12,-0.2,0.08,0.6
2024-12-16 10:32:07.402,0.0,575.0,0.23,0.96,0.12,-0.14,0.08,0.66
2024-12-16 10:32:07.538,0.9,532.0,0.23,0.96,0.13,-0.26,-0.34,0.29
2024-12-16 10:32:07.587,4.28,538.0,0.23,0.96,0.12,-0.2,0.02,0.54
2024-12-16 10:32:07.647,0.0,526.0,0.23,0.96,0.13,-0.32,0.27,0.78
2024-12-16 10:32:07.700,5.4,525.0,0.23,0.96,0.13,-0.2,-0.16,0.72
2024-12-16 10:32:07.758,-1.12,525.0,0.23,0.96,0.13,0.05,-0.28,0.66
2024-12-16 10:32:07.818,0.67,537.0,0.23,0.96,0.12,-0.01,0.02,0.78
2024-12-16 10:32:07.901,4.72,519.0,0.24,0.96,0.12,0.11,-0.34,0.54
2024-12-16 10:32:08.183,-0.9,523.0,0.23,0.97,0.12,0.17,0.2,0.29
2024-12-16 10:32:08.307,5.85,533.0,0.23,0.96,0.12,0.23,0.02,0.05
2024-12-16 10:32:08.366,2.7,529.0,0.23,0.96,0.12,0.11,0.81,0.66
2024-12-16 10:32:08.427,2.92,520.0,0.23,0.96,0.13,0.05,0.14,0.6
2024-12-16 10:32:08.535,4.05,528.0,0.23,0.96,0.13,0.23,0.02,0.78
2024-12-16 10:32:08.581,4.28,525.0,0.23,0.96,0.12,0.23,0.39,0.6
2024-12-16 10:32:08.634,3.6,539.0,0.24,0.96,0.13,0.29,-0.34,0.42
2024-12-16 10:32:08.651,2.92,534.0,0.23,0.96,0.13,0.35,-0.47,0.35
2024-12-16 10:32:09.643,0.45,540.0,0.23,0.96,0.13,0.11,-0.04,0.42
2024-12-16 10:32:09.701,0.22,573.0,0.24,0.96,0.12,0.05,0.14,0.11
2024-12-16 10:32:09.757,0.9,585.0,0.24,0.96,0.09,0.17,0.08,0.54
2024-12-16 10:32:09.803,5.85,522.0,0.23,0.96,0.12,-0.01,0.39,0.78
2024-12-16 10:32:09.860,3.15,532.0,0.24,0.96,0.12,-0.01,0.88,1.09
2024-12-16 10:32:09.926,3.15,553.0,0.24,0.96,0.13,0.05,0.27,1.03
2024-12-16 10:32:09.975,-0.22,512.0,0.16,0.94,0.12,-0.01,-4.13,-7.76
2024-12-16 10:32:10.46,6.52,471.0,0.27,0.99,0.13,1.02,-3.52,-6.6
2024-12-16 10:32:10.111,11.02,470.0,0.22,0.95,0.11,1.94,2.71,-9.41
2024-12-16 10:32:10.163,16.88,511.0,0.19,0.97,0.12,0.05,3.93,1.76
2024-12-16 10:32:10.209,15.52,509.0,0.21,0.98,0.1,0.11,3.99,0.05
2024-12-16 10:32:10.260,19.57,503.0,0.23,0.99,0.13,-1.3,5.82,5.42
2024-12-16 10:32:10.304,15.52,524.0,0.2,0.96,0.17,-2.88,6.49,11.16
2024-12-16 10:32:10.354,25.88,525.0,0.27,0.98,0.11,-2.46,7.53,16.65
2024-12-16 10:32:10.400,23.17,533.0,0.25,0.95,0.14,-1.23,5.03,16.77
2024-12-16 10:32:10.468,28.8,540.0,0.27,0.95,0.12,-1.91,1.73,12.07
2024-12-16 10:32:10.525,25.42,546.0,0.25,0.93,0.13,-2.27,-0.65,5.79
2024-12-16 10:32:10.586,30.82,535.0,0.23,0.92,0.13,-1.97,-0.83,3.83
2024-12-16 10:32:10.634,27.45,535.0,0.26,0.96,0.13,-0.81,-1.32,-0.01
2024-12-16 10:32:10.695,33.3,527.0,0.27,0.96,0.13,-0.26,-0.22,0.96
2024-12-16 10:32:10.740,39.38,534.0,0.26,0.95,0.13,-0.07,-0.34,0.84
2024-12-16 10:32:10.793,32.62,543.0,0.28,0.96,0.13,-0.2,0.69,1.7
2024-12-16 10:32:12.78,42.52,548.0,0.3,0.94,0.15,0.47,0.02,-0.07
2024-12-16 10:32:12.139,44.32,531.0,0.3,0.94,0.14,0.6,0.14,0.23
2024-12-16 10:32:12.185,40.95,541.0,0.3,0.94,0.15,0.29,0.2,0.23
2024-12-16 10:32:12.232,42.75,542.0,0.3,0.94,0.14,0.23,0.63,0.54
2024-12-16 10:32:12.278,40.05,535.0,0.3,0.94,0.14,0.17,0.08,0.42
2024-12-16 10:32:12.371,40.05,543.0,0.3,0.94,0.15,0.23,0.2,0.48
2024-12-16 10:32:12.665,44.1,535.0,0.3,0.94,0.15,0.29,-0.1,-0.26
2024-12-16 10:32:12.729,40.05,526.0,0.29,0.94,0.15,0.29,-0.1,-0.01
2024-12-16 10:32:12.776,41.85,535.0,0.29,0.94,0.15,0.17,0.2,0.05
2024-12-16 10:32:12.826,45.22,532.0,0.29,0.94,0.15,0.17,0.08,0.05
2024-12-16 10:32:12.901,40.27,526.0,0.29,0.94,0.14,0.23,-0.04,-0.01
2024-12-16 10:32:13.25,40.05,545.0,0.29,0.94,0.14,0.47,-0.04,-0.38
2024-12-16 10:32:13.110,39.38,536.0,0.28,0.94,0.15,0.72,0.27,-0.32
2024-12-16 10:32:13.207,36.45,535.0,0.29,0.94,0.14,0.35,0.33,-0.26
2024-12-16 10:32:13.255,41.62,544.0,0.29,0.94,0.14,0.23,0.14,-0.07
2024-12-16 10:32:13.303,44.55,535.0,0.29,0.95,0.15,0.23,0.33,0.05
2024-12-16 10:32:13.352,38.92,545.0,0.29,0.94,0.14,0.11,0.39,0.35
2024-12-16 10:32:13.396,42.08,542.0,0.29,0.94,0.15,0.35,-0.1,0.17
2024-12-16 10:32:13.483,45.45,548.0,0.28,0.94,0.15,0.23,0.08,0.35
2024-12-16 10:32:13.585,44.1,560.0,0.29,0.94,0.14,0.23,-0.1,0.35
2024-12-16 10:32:13.641,39.83,530.0,0.29,0.95,0.15,0.29,-0.22,0.29
2024-12-16 10:32:13.689,39.38,538.0,0.29,0.94,0.14,0.23,0.39,0.42
2024-12-16 10:32:13.735,40.27,538.0,0.3,0.94,0.14,0.29,-0.04,0.54
2024-12-16 10:32:13.787,41.85,543.0,0.29,0.94,0.15,0.35,0.2,0.48
2024-12-16 10:32:13.853,42.3,534.0,0.29,0.94,0.14,0.23,0.45,0.6
2024-12-16 10:32:13.934,37.58,534.0,0.29,0.94,0.15,0.29,0.14,0.29
2024-12-16 10:32:13.987,39.15,525.0,0.29,0.94,0.14,0.23,0.2,0.29
2024-12-16 10:32:14.46,42.3,546.0,0.29,0.94,0.14,0.23,0.33,0.23
2024-12-16 10:32:14.104,42.08,532.0,0.29,0.94,0.14,0.11,0.27,0.17
2024-12-16 10:32:14.153,35.33,533.0,0.29,0.94,0.14,0.11,0.14,-0.13
2024-12-16 10:32:14.205,42.75,568.0,0.29,0.94,0.14,-0.01,0.33,0.05
2024-12-16 10:32:14.243,38.7,521.0,0.29,0.94,0.14,-0.01,-0.04,-0.01
2024-12-16 10:32:14.303,41.85,537.0,0.29,0.94,0.14,-0.01,-0.16,0.05
2024-12-16 10:32:15.268,40.72,512.0,0.28,0.94,0.14,0.23,0.02,-0.07
2024-12-16 10:32:15.327,35.55,590.0,0.4,1.07,0.1,1.82,18.64,11.46
2024-12-16 10:32:15.385,34.65,636.0,0.24,0.88,0.13,-3.25,17.29,26.42
2024-12-16 10:32:15.445,32.62,686.0,0.28,0.83,0.16,-6.36,-0.77,5.79
2024-12-16 10:32:15.490,28.12,631.0,0.34,0.89,0.24,4.93,-2.54,-1.6
2024-12-16 10:32:15.575,24.75,575.0,0.29,0.9,0.17,10.0,-2.97,-12.04
2024-12-16 10:32:15.824,23.85,530.0,0.24,0.97,0.1,0.23,-15.3,-23.45
2024-12-16 10:32:15.968,6.52,531.0,0.22,0.97,0.12,4.14,2.58,-2.64
2024-12-16 10:32:16.46,5.17,528.0,0.26,0.97,0.13,1.63,-0.34,0.23
2024-12-16 10:32:16.103,2.25,538.0,0.24,0.97,0.14,1.33,1.06,1.7
2024-12-16 10:32:17.359,2.25,538.0,0.23,0.97,0.13,-0.07,1.3,1.64
2024-12-16 10:32:17.408,3.82,539.0,0.23,0.95,0.13,0.11,0.69,0.84
2024-12-16 10:32:17.452,3.15,518.0,0.23,0.96,0.13,-0.01,-0.41,0.96
2024-12-16 10:32:17.505,2.7,535.0,0.22,0.96,0.13,-0.26,0.69,1.58
2024-12-16 10:32:17.565,-0.9,534.0,0.23,0.96,0.13,-0.68,0.81,1.39
2024-12-16 10:32:17.616,0.45,512.0,0.23,0.96,0.13,-0.62,0.75,1.03
2024-12-16 10:32:17.672,2.25,556.0,0.23,0.96,0.13,-0.32,0.81,0.54
2024-12-16 10:32:17.753,1.35,549.0,0.24,0.96,0.13,-0.14,0.63,0.54
2024-12-16 10:32:17.952,3.6,527.0,0.24,0.96,0.14,-0.14,0.14,0.84
2024-12-16 10:32:18.20,-1.8,542.0,0.24,0.96,0.13,0.05,-0.22,0.48
2024-12-16 10:32:18.131,4.05,530.0,0.24,0.96,0.13,0.47,0.45,0.78
2024-12-16 10:32:18.214,3.38,535.0,0.24,0.96,0.13,0.54,-0.1,0.66
2024-12-16 10:32:18.323,2.25,549.0,0.24,0.96,0.13,0.23,0.33,0.6
2024-12-16 10:32:18.373,0.9,535.0,0.24,0.96,0.13,0.23,0.39,0.84
2024-12-16 10:32:18.434,4.28,546.0,0.24,0.96,0.13,0.41,0.51,0.9
2024-12-16 10:32:18.507,5.62,536.0,0.24,0.96,0.13,0.47,0.69,0.9
2024-12-16 10:32:18.635,4.05,570.0,0.24,0.96,0.13,0.17,0.88,0.72
2024-12-16 10:32:18.683,-0.45,530.0,0.24,0.95,0.13,-0.2,0.81,0.66
2024-12-16 10:32:18.744,5.4,573.0,0.24,0.96,0.13,-0.2,0.88,0.78
2024-12-16 10:32:18.789,5.17,556.0,0.24,0.96,0.13,-0.26,0.81,0.78
