Timestamp,PosIsDeg,ForceIs,AccX,AccY,AccZ,GyroX,GyroY,GyroZ
2024-12-06 13:32:56.875,-4.28,510.0,0.82,0.55,-0.07,0.19,0.95,1.17
2024-12-06 13:32:56.890,-2.47,515.0,0.84,0.56,-0.08,0.13,1.87,1.47
2024-12-06 13:32:56.919,-3.82,501.0,0.85,0.57,-0.12,1.84,1.99,3.85
2024-12-06 13:32:56.952,-2.47,488.0,0.78,0.53,-0.07,0.62,0.34,0.98
2024-12-06 13:32:56.995,2.25,502.0,0.8,0.54,-0.07,-0.6,0.46,-1.21
2024-12-06 13:32:57.1,-2.92,506.0,0.79,0.56,-0.08,-1.58,-0.7,-1.09
2024-12-06 13:32:57.30,-2.02,518.0,0.78,0.55,-0.08,0.01,1.44,-4.08
2024-12-06 13:32:57.59,2.47,509.0,0.8,0.55,-0.08,0.68,1.62,-5.24
2024-12-06 13:32:57.97,2.02,511.0,0.83,0.57,-0.08,1.17,1.26,-4.69
2024-12-06 13:32:57.112,2.02,519.0,0.82,0.57,-0.09,1.17,0.4,-4.39
2024-12-06 13:32:57.140,2.47,506.0,0.83,0.58,-0.08,1.29,-0.09,-3.65
2024-12-06 13:32:57.167,5.4,501.0,0.8,0.56,-0.1,1.9,1.2,-2.25
2024-12-06 13:32:57.217,7.2,505.0,0.76,0.54,-0.06,1.41,1.13,-4.69
2024-12-06 13:32:57.227,1.35,506.0,0.8,0.58,-0.09,1.41,1.99,-5.55
2024-12-06 13:32:57.249,6.52,525.0,0.81,0.58,-0.11,2.27,1.93,-4.26
2024-12-06 13:32:57.277,9.68,509.0,0.82,0.59,-0.1,2.51,1.5,-4.02
2024-12-06 13:32:57.324,11.7,512.0,0.85,0.61,-0.09,2.57,0.95,-1.33
2024-12-06 13:32:57.332,10.35,520.0,0.81,0.59,-0.09,3.06,1.07,-0.3
2024-12-06 13:32:57.360,12.6,510.0,0.82,0.58,-0.07,3.3,1.99,0.92
2024-12-06 13:32:57.391,10.8,509.0,0.8,0.57,-0.07,3.61,1.81,1.35
2024-12-06 13:32:57.439,12.15,518.0,0.8,0.57,-0.07,3.67,1.99,-0.11
2024-12-06 13:32:57.446,12.38,522.0,0.81,0.58,-0.08,3.91,2.11,0.98
2024-12-06 13:32:57.474,15.07,531.0,0.78,0.56,-0.08,4.16,1.93,0.44
2024-12-06 13:32:57.498,17.1,518.0,0.76,0.55,-0.06,3.73,1.68,-3.17
2024-12-06 13:32:57.559,19.57,533.0,0.78,0.57,-0.08,3.12,2.11,-3.23
2024-12-06 13:32:57.562,20.02,523.0,0.78,0.57,-0.08,2.57,1.99,-4.33
2024-12-06 13:32:57.581,17.77,528.0,0.8,0.58,-0.08,1.47,1.62,-5.42
2024-12-06 13:32:57.683,23.4,530.0,0.78,0.57,-0.08,1.41,0.59,-6.58
2024-12-06 13:32:57.687,21.6,518.0,0.8,0.61,-0.09,1.47,3.7,-5.42
2024-12-06 13:32:57.691,21.6,537.0,0.78,0.58,-0.09,1.78,2.48,-6.16
2024-12-06 13:32:57.718,25.42,517.0,0.81,0.59,-0.08,1.11,1.2,-6.89
2024-12-06 13:32:57.746,24.07,516.0,0.78,0.6,-0.08,0.92,0.65,-6.22
2024-12-06 13:32:57.795,25.88,565.0,0.79,0.62,-0.09,0.8,1.93,-5.67
2024-12-06 13:32:57.807,27.22,527.0,0.78,0.61,-0.09,0.5,1.26,-4.63
2024-12-06 13:32:57.834,28.12,559.0,0.79,0.61,-0.09,0.37,-0.09,-5.73
2024-12-06 13:32:57.858,30.38,536.0,0.8,0.64,-0.1,0.68,0.1,-3.84
2024-12-06 13:32:57.908,31.27,529.0,0.79,0.62,-0.1,1.72,1.26,-1.52
2024-12-06 13:32:57.915,26.1,522.0,0.78,0.61,-0.1,2.33,0.95,-1.03
2024-12-06 13:32:57.939,35.33,529.0,0.79,0.63,-0.08,2.63,1.26,-0.05
2024-12-06 13:32:57.973,33.97,525.0,0.79,0.64,-0.09,2.63,2.17,1.78
2024-12-06 13:32:58.12,32.17,541.0,0.78,0.62,-0.09,3.0,1.81,0.74
2024-12-06 13:32:58.22,31.95,537.0,0.78,0.62,-0.09,3.55,1.62,1.17
2024-12-06 13:32:58.55,39.38,529.0,0.75,0.6,-0.08,3.98,1.32,0.5
2024-12-06 13:32:58.77,37.58,553.0,0.76,0.61,-0.08,3.91,2.23,-1.58
2024-12-06 13:32:58.119,38.7,531.0,0.77,0.63,-0.09,3.49,2.84,-0.54
2024-12-06 13:32:58.134,33.97,531.0,0.77,0.61,-0.09,3.24,2.36,-1.64
2024-12-06 13:32:58.162,45.9,524.0,0.77,0.61,-0.1,2.57,2.11,-0.97
2024-12-06 13:32:58.188,42.97,543.0,0.76,0.61,-0.09,2.82,1.26,-0.91
2024-12-06 13:32:58.234,40.95,534.0,0.76,0.62,-0.07,2.33,1.13,-1.33
2024-12-06 13:32:58.243,43.42,524.0,0.75,0.61,-0.09,1.29,2.54,-1.64
2024-12-06 13:32:58.274,45.9,533.0,0.76,0.6,-0.08,1.41,1.26,-3.53
2024-12-06 13:32:58.297,44.55,532.0,0.78,0.65,-0.08,0.68,1.32,-2.19
2024-12-06 13:32:58.339,46.12,542.0,0.78,0.63,-0.1,0.07,1.62,0.07
2024-12-06 13:32:58.353,47.92,540.0,0.78,0.62,-0.1,-0.66,1.07,1.23
2024-12-06 13:32:58.383,45.45,538.0,0.77,0.61,-0.09,-1.21,0.28,0.68
2024-12-06 13:32:58.408,50.85,582.0,0.76,0.61,-0.07,-1.09,-0.39,0.31
2024-12-06 13:32:58.452,47.7,531.0,0.75,0.62,-0.08,-1.7,1.56,0.07
2024-12-06 13:32:58.465,53.55,546.0,0.78,0.62,-0.09,-1.7,1.81,-0.42
2024-12-06 13:32:58.492,55.12,539.0,0.78,0.61,-0.1,-1.46,0.34,-0.11
2024-12-06 13:32:58.519,54.22,530.0,0.75,0.63,-0.09,-1.64,-0.57,0.13
2024-12-06 13:32:58.551,58.27,539.0,0.76,0.64,-0.09,-1.03,-0.76,-0.42
2024-12-06 13:32:58.578,54.9,538.0,0.76,0.65,-0.08,-0.79,-0.03,0.8
2024-12-06 13:32:58.606,58.27,550.0,0.75,0.63,-0.09,-0.66,0.95,0.13
2024-12-06 13:32:58.629,54.9,534.0,0.76,0.61,-0.09,-0.36,-0.09,-1.03
2024-12-06 13:32:58.732,62.1,538.0,0.75,0.63,-0.07,-0.36,-0.03,-2.31
2024-12-06 13:32:58.741,60.3,548.0,0.77,0.62,-0.1,0.44,0.52,-1.76
2024-12-06 13:32:58.747,57.38,541.0,0.77,0.64,-0.09,-0.42,0.52,-0.6
2024-12-06 13:32:58.767,64.12,538.0,0.76,0.63,-0.09,-0.3,-0.45,-0.48
2024-12-06 13:32:58.812,63.0,568.0,0.76,0.63,-0.08,0.25,-0.09,-0.6
2024-12-06 13:32:58.826,58.27,553.0,0.75,0.63,-0.08,-0.05,0.28,0.25
2024-12-06 13:32:58.849,64.57,540.0,0.74,0.61,-0.1,-0.17,0.83,-0.6
2024-12-06 13:32:58.877,68.62,542.0,0.76,0.64,-0.08,-0.54,0.83,-0.66
2024-12-06 13:32:58.906,67.95,542.0,0.76,0.64,-0.09,-0.91,1.81,0.25
2024-12-06 13:32:58.932,69.53,549.0,0.78,0.66,-0.09,-0.85,1.07,0.62
2024-12-06 13:32:58.962,66.82,586.0,0.76,0.63,-0.1,-0.6,1.5,1.53
2024-12-06 13:32:58.988,69.53,548.0,0.75,0.62,-0.08,0.31,0.52,1.29
2024-12-06 13:32:59.25,72.0,544.0,0.76,0.66,-0.08,0.31,0.34,1.72
2024-12-06 13:32:59.43,71.32,536.0,0.74,0.64,-0.09,0.44,1.5,1.47
2024-12-06 13:32:59.74,72.67,544.0,0.76,0.63,-0.08,0.31,0.77,0.56
2024-12-06 13:32:59.99,72.67,547.0,0.76,0.65,-0.08,-0.17,0.28,1.11
2024-12-06 13:32:59.125,76.72,546.0,0.75,0.64,-0.09,-0.24,1.32,1.47
2024-12-06 13:32:59.153,80.32,540.0,0.77,0.64,-0.09,-0.05,0.77,1.78
2024-12-06 13:32:59.181,78.53,611.0,0.78,0.64,-0.1,0.07,-0.09,3.3
2024-12-06 13:32:59.216,75.6,541.0,0.76,0.63,-0.07,-0.42,-0.7,3.91
2024-12-06 13:32:59.237,80.55,549.0,0.75,0.64,-0.06,-1.4,0.04,3.67
2024-12-06 13:32:59.273,78.07,547.0,0.74,0.63,-0.07,-2.43,1.87,3.3
2024-12-06 13:32:59.292,81.9,561.0,0.77,0.61,-0.06,-2.56,1.38,2.33
2024-12-06 13:32:59.320,81.45,550.0,0.76,0.62,-0.08,-3.1,1.32,2.27
2024-12-06 13:32:59.346,84.15,548.0,0.77,0.63,-0.08,-3.29,-0.03,2.51
2024-12-06 13:32:59.377,82.57,566.0,0.77,0.63,-0.07,-3.23,-0.57,2.51
2024-12-06 13:33:00.739,89.55,530.0,0.77,0.64,-0.08,0.5,0.89,0.56
2024-12-06 13:33:00.860,88.65,548.0,0.76,0.63,-0.07,0.92,1.01,0.92
2024-12-06 13:33:00.865,87.3,532.0,0.75,0.63,-0.07,0.86,1.01,0.86
2024-12-06 13:33:00.868,87.3,538.0,0.75,0.63,-0.07,0.8,0.95,0.8
2024-12-06 13:33:00.883,89.55,541.0,0.75,0.63,-0.07,0.68,1.13,0.74
2024-12-06 13:33:00.887,87.3,537.0,0.75,0.63,-0.07,0.5,1.26,0.74
2024-12-06 13:33:00.892,87.3,531.0,0.75,0.63,-0.07,0.31,1.26,0.8
2024-12-06 13:33:00.901,85.5,541.0,0.76,0.64,-0.06,0.31,1.26,0.86
2024-12-06 13:33:00.937,85.72,548.0,0.76,0.63,-0.07,0.25,1.5,0.86
2024-12-06 13:33:00.942,90.22,537.0,0.77,0.62,-0.07,0.37,1.13,0.92
2024-12-06 13:33:00.946,84.15,571.0,0.77,0.63,-0.07,0.37,1.13,0.92
2024-12-06 13:33:00.960,88.88,542.0,0.76,0.63,-0.07,0.5,1.07,0.86
2024-12-06 13:33:00.965,87.52,552.0,0.76,0.63,-0.08,0.5,0.83,0.8
2024-12-06 13:33:00.980,87.97,525.0,0.76,0.63,-0.07,0.56,0.71,0.74
2024-12-06 13:33:00.983,86.17,525.0,0.76,0.63,-0.07,0.62,0.77,0.68
2024-12-06 13:33:00.986,87.52,538.0,0.76,0.63,-0.07,0.62,0.77,0.68
2024-12-06 13:33:00.994,84.15,555.0,0.76,0.63,-0.07,0.74,0.89,0.62
2024-12-06 13:33:01.4,85.05,538.0,0.76,0.63,-0.07,0.8,0.95,0.62
2024-12-06 13:33:01.11,87.52,547.0,0.76,0.63,-0.07,0.8,1.01,0.5
2024-12-06 13:33:01.17,84.6,529.0,0.76,0.63,-0.07,0.86,1.01,0.5
2024-12-06 13:33:01.24,83.7,546.0,0.76,0.63,-0.07,0.98,1.07,0.5
2024-12-06 13:33:01.32,86.17,530.0,0.76,0.63,-0.07,0.98,1.07,0.5
2024-12-06 13:33:01.65,87.3,547.0,0.76,0.63,-0.07,0.92,1.13,0.5
2024-12-06 13:33:01.68,87.75,550.0,0.76,0.63,-0.07,0.74,1.38,0.56
2024-12-06 13:33:01.69,88.42,541.0,0.76,0.63,-0.07,0.74,1.38,0.56
2024-12-06 13:33:01.76,87.3,544.0,0.76,0.63,-0.07,0.68,1.26,0.74
2024-12-06 13:33:01.84,87.75,530.0,0.76,0.63,-0.07,0.74,1.13,0.86
2024-12-06 13:33:01.92,89.32,543.0,0.76,0.63,-0.07,0.68,1.01,0.98
2024-12-06 13:33:01.102,85.28,543.0,0.76,0.63,-0.07,0.68,0.89,0.98
2024-12-06 13:33:01.112,88.42,539.0,0.76,0.63,-0.07,-14.95,0.89,0.98
2024-12-06 13:33:01.117,90.0,543.0,0.76,0.64,-0.07,0.62,0.89,0.98
2024-12-06 13:33:01.123,88.42,534.0,0.75,0.64,-0.07,0.56,0.89,0.8
2024-12-06 13:33:01.164,88.88,518.0,0.75,0.63,-0.07,0.5,0.71,0.37
2024-12-06 13:33:01.168,84.6,533.0,0.75,0.63,-0.07,0.62,0.52,-0.11
2024-12-06 13:33:01.172,88.42,540.0,0.75,0.63,-0.07,0.62,0.71,-0.42
2024-12-06 13:33:01.177,89.77,547.0,0.75,0.63,-0.07,0.62,0.83,-0.66
2024-12-06 13:33:01.187,84.82,541.0,0.75,0.63,-0.07,0.68,1.07,-0.79
2024-12-06 13:33:01.192,88.65,520.0,0.75,0.63,-0.07,0.68,1.32,-0.72
2024-12-06 13:33:01.205,85.5,534.0,0.76,0.63,-0.07,0.68,1.32,-0.72
2024-12-06 13:33:01.212,85.72,544.0,0.76,0.63,-0.07,0.62,1.26,-0.66
2024-12-06 13:33:01.217,83.92,530.0,0.76,0.63,-0.07,0.62,1.01,-0.48
2024-12-06 13:33:01.233,85.28,535.0,0.76,0.62,-0.07,0.56,0.77,-0.42
2024-12-06 13:33:01.235,88.42,535.0,0.76,0.62,-0.07,0.44,0.65,-0.42
2024-12-06 13:33:01.241,85.28,535.0,0.76,0.63,-0.07,0.44,0.65,-0.42
2024-12-06 13:33:01.249,87.75,535.0,0.75,0.63,-0.07,0.31,0.83,-0.54
2024-12-06 13:33:01.254,88.65,538.0,0.75,0.63,-0.07,0.19,1.01,-0.6
2024-12-06 13:33:01.288,90.45,546.0,0.76,0.64,-0.07,0.01,1.26,-0.54
2024-12-06 13:33:01.316,85.95,535.0,0.77,0.63,-0.07,0.25,0.83,-0.11
2024-12-06 13:33:01.327,86.85,528.0,0.77,0.63,-0.07,0.31,0.71,-0.11
2024-12-06 13:33:01.335,87.3,543.0,0.77,0.63,-0.07,0.37,0.52,-0.17
2024-12-06 13:33:01.337,86.62,540.0,0.77,0.64,-0.07,0.5,0.46,-0.11
2024-12-06 13:33:01.347,85.05,537.0,0.77,0.64,-0.07,0.56,0.46,0.01
2024-12-06 13:33:01.358,88.88,544.0,0.77,0.64,-0.07,0.62,0.4,0.19
2024-12-06 13:33:01.367,87.75,529.0,0.77,0.64,-0.07,0.62,0.4,0.19
2024-12-06 13:33:01.391,91.57,532.0,0.77,0.64,-0.07,0.68,0.65,1.05
2024-12-06 13:33:01.397,86.85,538.0,0.77,0.64,-0.07,0.62,0.71,1.35
2024-12-06 13:33:01.400,85.72,547.0,0.77,0.64,-0.07,0.62,0.71,1.35
2024-12-06 13:33:01.407,88.65,533.0,0.76,0.64,-0.07,0.5,0.77,1.6
2024-12-06 13:33:01.415,85.28,540.0,0.76,0.64,-0.07,0.44,0.77,1.66
2024-12-06 13:33:01.427,84.6,538.0,0.76,0.64,-0.07,0.44,0.65,1.6
2024-12-06 13:33:01.436,86.85,593.0,0.76,0.64,-0.08,0.5,0.65,1.47
2024-12-06 13:33:01.441,87.3,543.0,0.76,0.64,-0.08,0.56,0.65,1.47
2024-12-06 13:33:01.447,88.2,550.0,0.76,0.64,-0.08,0.56,0.65,1.47
2024-12-06 13:33:01.457,84.6,546.0,0.76,0.64,-0.08,0.68,0.59,1.53
2024-12-06 13:33:01.462,90.22,539.0,0.76,0.64,-0.08,0.8,0.4,1.78
2024-12-06 13:33:02.485,87.52,539.0,0.76,0.63,-0.07,0.92,0.59,1.11
2024-12-06 13:33:02.497,87.3,539.0,0.77,0.71,-0.04,-0.85,-2.59,1.9
2024-12-06 13:33:02.536,78.97,566.0,0.74,0.79,-0.07,-5.36,3.39,7.88
2024-12-06 13:33:02.554,80.32,537.0,0.67,0.78,-0.13,-3.47,-6.19,28.15
2024-12-06 13:33:02.581,76.5,524.0,0.59,0.62,-0.1,0.19,-6.98,43.53
2024-12-06 13:33:02.610,70.88,539.0,0.91,0.43,-0.03,0.98,2.9,20.39
2024-12-06 13:33:02.637,66.6,523.0,0.92,0.43,-0.09,3.79,10.78,9.77
2024-12-06 13:33:02.665,71.78,520.0,0.84,0.5,-0.08,2.82,2.17,-2.68
2024-12-06 13:33:02.694,67.28,526.0,0.77,0.53,-0.07,1.35,-7.23,-7.32
2024-12-06 13:33:02.721,72.22,540.0,0.73,0.63,-0.07,2.82,-1.49,-3.29
2024-12-06 13:33:02.752,67.5,543.0,0.77,0.67,-0.1,3.67,6.57,0.37
2024-12-06 13:33:02.788,65.7,542.0,0.84,0.6,-0.11,2.94,4.8,-0.91
2024-12-06 13:33:02.802,67.28,533.0,0.83,0.57,-0.1,1.84,-2.04,-0.72
2024-12-06 13:33:02.831,62.55,521.0,0.78,0.59,-0.07,2.14,-2.59,1.78
2024-12-06 13:33:02.930,66.6,529.0,0.78,0.62,-0.07,3.24,2.66,3.73
2024-12-06 13:33:02.933,64.35,522.0,0.82,0.57,-0.08,3.61,0.89,3.43
2024-12-06 13:33:02.940,61.88,547.0,0.81,0.59,-0.09,3.0,-1.37,4.52
2024-12-06 13:33:02.979,57.38,532.0,0.77,0.6,-0.08,3.12,-0.03,4.52
2024-12-06 13:33:02.996,57.6,527.0,0.78,0.62,-0.08,3.12,1.62,4.89
2024-12-06 13:33:03.28,59.62,525.0,0.78,0.6,-0.09,3.3,2.78,5.44
2024-12-06 13:33:03.54,58.72,531.0,0.79,0.58,-0.08,3.0,1.38,4.1
2024-12-06 13:33:03.80,57.82,543.0,0.78,0.59,-0.09,2.39,0.22,3.79
2024-12-06 13:33:03.105,52.65,526.0,0.77,0.59,-0.08,2.21,1.32,3.18
2024-12-06 13:33:03.136,50.85,548.0,0.78,0.59,-0.08,2.21,2.05,1.9
2024-12-06 13:33:03.160,49.05,525.0,0.79,0.58,-0.09,2.39,1.74,0.98
2024-12-06 13:33:03.210,51.97,548.0,0.8,0.58,-0.09,2.27,1.26,0.86
2024-12-06 13:33:03.215,50.62,536.0,0.79,0.59,-0.09,1.41,1.01,1.23
2024-12-06 13:33:03.244,52.42,532.0,0.76,0.57,-0.09,0.5,0.95,0.8
2024-12-06 13:33:03.271,49.05,546.0,0.79,0.57,-0.08,0.56,1.26,-0.11
2024-12-06 13:33:03.298,50.85,538.0,0.8,0.58,-0.09,0.68,1.38,0.62
2024-12-06 13:33:03.326,46.35,524.0,0.81,0.58,-0.09,0.68,1.13,1.11
2024-12-06 13:33:03.356,47.25,516.0,0.79,0.58,-0.1,0.8,1.01,0.98
2024-12-06 13:33:03.381,40.95,522.0,0.79,0.57,-0.09,1.11,0.95,0.92
2024-12-06 13:33:03.410,41.85,524.0,0.8,0.58,-0.09,1.53,1.01,0.37
2024-12-06 13:33:03.458,43.42,527.0,0.81,0.6,-0.09,1.84,2.11,1.47
2024-12-06 13:33:03.468,37.8,509.0,0.8,0.58,-0.1,1.47,2.23,2.33
2024-12-06 13:33:03.498,38.02,526.0,0.8,0.57,-0.09,1.29,0.71,1.6
2024-12-06 13:33:03.519,41.62,510.0,0.79,0.59,-0.09,1.66,1.74,1.9
2024-12-06 13:33:03.554,37.58,515.0,0.79,0.59,-0.08,2.39,2.36,1.23
2024-12-06 13:33:03.578,35.55,502.0,0.81,0.59,-0.08,2.88,2.42,1.53
2024-12-06 13:33:03.603,36.22,525.0,0.79,0.57,-0.09,2.63,1.68,1.66
2024-12-06 13:33:03.654,40.05,501.0,0.8,0.58,-0.09,2.14,1.01,0.62
2024-12-06 13:33:03.659,36.9,519.0,0.81,0.59,-0.09,2.08,1.68,2.27
2024-12-06 13:33:03.688,34.65,518.0,0.79,0.58,-0.09,2.27,2.11,1.66
2024-12-06 13:33:03.713,34.2,500.0,0.79,0.56,-0.08,2.27,1.99,0.25
2024-12-06 13:33:03.747,31.72,487.0,0.8,0.58,-0.08,2.02,1.74,0.8
2024-12-06 13:33:03.767,30.6,506.0,0.79,0.58,-0.09,2.14,1.81,0.07
2024-12-06 13:33:03.797,26.55,517.0,0.82,0.59,-0.09,2.14,1.32,1.17
2024-12-06 13:33:03.823,27.0,499.0,0.79,0.57,-0.09,1.53,1.93,1.47
2024-12-06 13:33:03.873,27.45,515.0,0.8,0.58,-0.1,1.9,1.62,0.68
2024-12-06 13:33:03.881,27.67,500.0,0.79,0.58,-0.1,3.0,1.74,1.66
2024-12-06 13:33:03.980,22.5,514.0,0.8,0.59,-0.09,3.06,2.17,0.98
2024-12-06 13:33:03.983,22.72,498.0,0.81,0.58,-0.1,2.69,1.74,3.55
2024-12-06 13:33:03.991,23.85,493.0,0.8,0.58,-0.08,2.33,1.93,3.18
2024-12-06 13:33:04.18,20.7,506.0,0.82,0.58,-0.09,2.75,2.66,4.71
2024-12-06 13:33:04.44,21.15,501.0,0.81,0.57,-0.1,3.98,2.6,6.17
2024-12-06 13:33:04.71,21.15,505.0,0.8,0.56,-0.09,4.65,2.66,4.77
2024-12-06 13:33:04.99,19.35,495.0,0.81,0.57,-0.08,4.89,1.68,5.44
2024-12-06 13:33:04.138,16.2,491.0,0.8,0.58,-0.09,5.01,2.9,4.77
2024-12-06 13:33:04.157,16.42,506.0,0.81,0.58,-0.09,4.83,3.82,5.56
2024-12-06 13:33:04.192,16.2,497.0,0.79,0.55,-0.09,4.4,2.6,5.14
2024-12-06 13:33:04.209,11.92,503.0,0.8,0.55,-0.08,3.12,1.81,2.94
2024-12-06 13:33:04.237,14.62,465.0,0.81,0.57,-0.09,2.39,2.11,3.24
2024-12-06 13:33:04.267,11.7,488.0,0.79,0.55,-0.08,2.69,2.36,2.08
2024-12-06 13:33:04.297,7.65,490.0,0.82,0.55,-0.07,2.51,2.48,1.05
2024-12-06 13:33:04.341,8.1,504.0,0.81,0.55,-0.09,2.14,1.56,2.02
2024-12-06 13:33:04.347,7.65,487.0,0.82,0.55,-0.08,1.53,1.44,1.66
2024-12-06 13:33:04.385,9.0,495.0,0.83,0.56,-0.09,1.11,1.93,3.12
2024-12-06 13:33:04.402,9.9,494.0,0.82,0.56,-0.1,1.41,1.68,3.55
2024-12-06 13:33:04.430,6.07,482.0,0.81,0.54,-0.09,1.47,1.56,2.82
2024-12-06 13:33:04.457,7.65,490.0,0.8,0.54,-0.09,1.35,0.46,2.33
2024-12-06 13:33:04.485,8.1,496.0,0.8,0.55,-0.07,1.41,1.32,0.98
2024-12-06 13:33:04.513,0.67,471.0,0.83,0.56,-0.09,0.68,1.74,1.84
2024-12-06 13:33:04.564,3.6,492.0,0.83,0.56,-0.1,1.11,1.5,3.67
2024-12-06 13:33:04.568,2.47,489.0,0.83,0.55,-0.07,0.98,1.13,2.82
2024-12-06 13:33:05.961,-3.38,478.0,0.8,0.57,-0.09,0.56,0.89,0.25
2024-12-06 13:33:07.508,-1.8,483.0,0.81,0.57,-0.1,1.29,1.38,0.25
2024-12-06 13:33:07.512,-0.45,499.0,0.81,0.57,-0.1,1.23,1.32,0.25
2024-12-06 13:33:07.521,-1.8,484.0,0.81,0.57,-0.1,1.11,1.32,0.31
2024-12-06 13:33:07.528,0.0,547.0,0.81,0.57,-0.1,0.98,1.13,0.44
2024-12-06 13:33:07.532,3.82,500.0,0.81,0.57,-0.1,0.98,1.13,0.44
2024-12-06 13:33:07.540,0.45,491.0,0.81,0.57,-0.1,0.8,0.89,0.62
2024-12-06 13:33:07.549,-0.67,494.0,0.8,0.57,-0.1,0.68,0.89,0.68
2024-12-06 13:33:07.557,2.47,499.0,0.8,0.57,-0.1,0.62,0.95,0.68
2024-12-06 13:33:07.564,-1.35,485.0,0.8,0.57,-0.1,0.5,0.83,0.74
2024-12-06 13:33:07.573,3.38,479.0,0.8,0.57,-0.1,0.37,0.71,0.86
2024-12-06 13:33:07.579,-0.22,505.0,0.8,0.57,-0.09,0.37,0.71,0.86
2024-12-06 13:33:07.588,-1.12,490.0,0.8,0.57,-0.09,0.19,0.83,0.86
2024-12-06 13:33:07.621,-1.35,484.0,0.8,0.58,-0.09,-0.17,1.01,1.05
2024-12-06 13:33:07.625,2.02,484.0,0.8,0.57,-0.09,-0.24,1.01,1.17
2024-12-06 13:33:07.633,1.35,484.0,0.8,0.57,-0.09,-0.3,1.01,1.29
2024-12-06 13:33:07.640,2.92,494.0,0.8,0.57,-0.09,-0.42,0.83,1.23
2024-12-06 13:33:07.649,-3.6,490.0,0.8,0.57,-0.09,-0.48,0.65,1.17
2024-12-06 13:33:07.657,-0.22,490.0,0.8,0.57,-0.09,-0.48,0.65,1.17
2024-12-06 13:33:07.666,0.67,506.0,0.8,0.57,-0.09,-0.6,0.59,1.05
2024-12-06 13:33:07.673,-2.7,498.0,0.8,0.57,-0.09,-0.72,0.46,0.98
2024-12-06 13:33:07.682,-1.35,491.0,0.8,0.57,-0.09,-0.79,0.52,0.98
2024-12-06 13:33:07.719,-1.8,498.0,0.8,0.57,-0.09,-0.79,0.59,0.98
2024-12-06 13:33:07.723,3.15,494.0,0.8,0.57,-0.1,-0.91,0.22,0.74
2024-12-06 13:33:07.725,2.7,481.0,0.8,0.57,-0.1,-0.91,0.34,0.74
2024-12-06 13:33:07.736,1.35,478.0,0.8,0.57,-0.09,-0.85,0.16,0.8
2024-12-06 13:33:07.740,1.57,503.0,0.8,0.57,-0.1,-0.85,0.16,0.8
2024-12-06 13:33:07.758,-0.22,490.0,0.8,0.57,-0.1,-0.91,0.1,0.74
2024-12-06 13:33:07.761,-2.7,482.0,0.8,0.57,-0.1,-0.79,-0.03,0.68
2024-12-06 13:33:07.764,2.25,497.0,0.8,0.57,-0.1,-0.72,-0.09,0.62
2024-12-06 13:33:07.772,0.67,499.0,0.8,0.57,-0.1,-0.72,-0.03,0.5
2024-12-06 13:33:07.780,-0.67,496.0,0.8,0.57,-0.09,-0.72,0.04,0.44
2024-12-06 13:33:07.787,2.25,499.0,0.8,0.58,-0.09,-0.79,0.04,0.44
2024-12-06 13:33:07.805,-3.15,478.0,0.8,0.58,-0.09,-0.72,0.16,0.31
2024-12-06 13:33:07.807,0.45,487.0,0.8,0.58,-0.1,-0.72,0.28,0.31
2024-12-06 13:33:07.811,2.47,478.0,0.81,0.58,-0.1,-0.6,0.52,0.37
2024-12-06 13:33:07.845,1.35,484.0,0.8,0.58,-0.1,-0.11,0.34,0.86
2024-12-06 13:33:07.848,-1.8,486.0,0.8,0.58,-0.1,0.07,0.28,0.8
2024-12-06 13:33:07.855,-0.9,494.0,0.8,0.57,-0.1,0.31,0.28,0.74
2024-12-06 13:33:07.869,1.57,481.0,0.8,0.57,-0.1,0.31,0.28,0.74
2024-12-06 13:33:07.871,-3.15,478.0,0.8,0.58,-0.1,0.37,0.34,0.74
2024-12-06 13:33:07.880,-2.25,484.0,0.8,0.58,-0.1,0.5,0.28,0.68
2024-12-06 13:33:07.887,-2.25,479.0,0.8,0.58,-0.11,0.62,0.34,0.74
2024-12-06 13:33:07.901,0.45,496.0,0.8,0.58,-0.11,0.68,0.52,0.86
2024-12-06 13:33:07.904,2.47,498.0,0.8,0.58,-0.11,0.74,0.59,1.05
2024-12-06 13:33:07.912,0.45,495.0,0.8,0.59,-0.1,0.74,0.59,1.05
2024-12-06 13:33:07.942,-2.02,489.0,0.8,0.59,-0.1,0.86,0.59,1.17
2024-12-06 13:33:07.946,-2.7,496.0,0.8,0.58,-0.1,0.98,0.65,1.11
2024-12-06 13:33:07.949,-0.22,489.0,0.8,0.58,-0.1,0.98,0.65,1.11
2024-12-06 13:33:08.994,2.25,502.0,0.8,0.58,-0.1,0.8,0.95,0.44
2024-12-06 13:33:08.997,2.47,511.0,0.76,0.56,-0.08,1.17,0.04,0.01
2024-12-06 13:33:09.10,-1.8,498.0,0.69,0.53,-0.12,0.8,-0.51,-9.33
2024-12-06 13:33:09.38,3.15,511.0,0.8,0.59,-0.07,-1.15,0.22,-8.78
2024-12-06 13:33:09.66,7.65,496.0,0.84,0.62,-0.11,1.66,2.05,-6.1
2024-12-06 13:33:09.95,9.45,502.0,0.81,0.59,-0.12,2.39,1.44,-6.16
2024-12-06 13:33:09.121,9.45,508.0,0.82,0.6,-0.1,1.35,-1.25,-4.51
2024-12-06 13:33:09.224,10.35,523.0,0.78,0.59,-0.11,0.68,1.26,-2.07
2024-12-06 13:33:09.228,8.55,509.0,0.78,0.59,-0.09,-0.24,0.89,-4.14
2024-12-06 13:33:09.231,11.47,513.0,0.79,0.61,-0.09,-0.24,0.77,-4.39
2024-12-06 13:33:09.260,12.15,499.0,0.78,0.61,-0.11,-0.36,1.38,-2.98
2024-12-06 13:33:09.287,11.47,508.0,0.8,0.61,-0.09,-0.97,1.01,-1.76
2024-12-06 13:33:09.331,16.65,523.0,0.79,0.61,-0.11,-1.09,0.59,-1.52
2024-12-06 13:33:09.347,13.5,529.0,0.77,0.61,-0.11,-0.79,-0.21,-1.58
2024-12-06 13:33:09.374,18.45,507.0,0.76,0.61,-0.1,-0.54,-0.09,-1.4
2024-12-06 13:33:09.423,19.12,527.0,0.77,0.62,-0.1,0.01,0.52,-1.88
2024-12-06 13:33:09.426,17.55,532.0,0.76,0.6,-0.11,0.37,-0.03,-1.88
2024-12-06 13:33:09.452,16.42,517.0,0.77,0.6,-0.09,0.19,0.22,-2.56
2024-12-06 13:33:09.479,21.38,517.0,0.77,0.61,-0.1,0.01,0.71,-2.25
2024-12-06 13:33:09.507,22.05,524.0,0.77,0.61,-0.09,0.19,1.07,-2.43
2024-12-06 13:33:09.536,21.82,534.0,0.78,0.62,-0.1,-0.24,0.65,-1.94
2024-12-06 13:33:09.565,28.57,533.0,0.77,0.62,-0.09,-0.54,0.77,-2.01
2024-12-06 13:33:09.590,22.05,525.0,0.77,0.61,-0.09,-0.54,0.71,-3.17
2024-12-06 13:33:09.641,25.42,531.0,0.76,0.59,-0.11,-0.85,1.68,-2.8
2024-12-06 13:33:09.648,27.0,547.0,0.81,0.56,-0.09,-2.01,2.72,-10.31
2024-12-06 13:33:09.673,25.42,544.0,0.74,0.63,-0.1,-2.8,-1.25,-11.47
2024-12-06 13:33:09.700,25.42,535.0,0.69,0.65,-0.09,-1.7,-4.72,-7.38
2024-12-06 13:33:09.730,28.57,527.0,0.73,0.67,-0.08,-1.52,0.16,-4.87
2024-12-06 13:33:09.756,26.77,542.0,0.77,0.66,-0.11,-1.15,3.82,-3.23
2024-12-06 13:33:09.783,27.45,533.0,0.78,0.63,-0.1,0.07,-0.45,-5.48
2024-12-06 13:33:09.812,28.8,534.0,0.77,0.68,-0.1,-0.3,-2.1,-5.0
2024-12-06 13:33:09.839,33.75,544.0,0.73,0.66,-0.12,0.25,1.01,-2.86
2024-12-06 13:33:09.868,31.5,536.0,0.76,0.67,-0.1,0.56,2.9,0.25
2024-12-06 13:33:09.894,32.4,537.0,0.76,0.64,-0.12,1.11,0.95,-0.42
2024-12-06 13:33:09.922,35.1,525.0,0.75,0.63,-0.11,1.47,-0.39,-1.52
2024-12-06 13:33:09.950,39.15,534.0,0.74,0.67,-0.09,1.35,0.22,-0.54
2024-12-06 13:33:09.977,38.47,531.0,0.73,0.65,-0.1,1.53,3.51,0.31
2024-12-06 13:33:10.5,37.12,527.0,0.77,0.65,-0.09,1.05,2.97,0.5
2024-12-06 13:33:10.32,35.77,533.0,0.74,0.63,-0.11,0.62,0.4,0.92
2024-12-06 13:33:10.60,39.15,543.0,0.72,0.64,-0.09,0.13,-0.51,0.25
2024-12-06 13:33:10.93,39.15,537.0,0.74,0.66,-0.08,0.01,1.07,0.56
2024-12-06 13:33:10.115,39.38,555.0,0.74,0.65,-0.09,-0.48,2.05,0.74
2024-12-06 13:33:10.144,40.72,546.0,0.73,0.63,-0.09,0.01,0.22,-0.97
2024-12-06 13:33:10.173,44.32,549.0,0.74,0.65,-0.09,0.01,1.62,-1.33
2024-12-06 13:33:10.261,44.32,550.0,0.74,0.66,-0.1,-0.42,1.38,0.25
2024-12-06 13:33:10.264,48.6,538.0,0.74,0.64,-0.08,-1.64,0.34,-0.66
2024-12-06 13:33:10.281,47.92,539.0,0.74,0.64,-0.09,-1.27,-0.88,-1.33
2024-12-06 13:33:10.317,45.9,528.0,0.75,0.65,-0.09,-0.17,0.04,-1.15
2024-12-06 13:33:10.335,48.6,533.0,0.74,0.65,-0.1,-0.72,0.83,0.8
2024-12-06 13:33:10.363,49.05,533.0,0.75,0.65,-0.1,-0.36,0.16,-0.48
2024-12-06 13:33:10.391,54.0,557.0,0.75,0.66,-0.09,-0.24,-0.21,0.31
2024-12-06 13:33:10.422,55.12,546.0,0.73,0.65,-0.1,-0.3,0.1,0.44
2024-12-06 13:33:10.446,56.02,540.0,0.75,0.68,-0.09,-0.6,-0.03,1.05
2024-12-06 13:33:10.475,55.57,553.0,0.74,0.66,-0.11,-0.79,1.5,1.84
2024-12-06 13:33:10.502,54.9,546.0,0.73,0.64,-0.09,0.01,-0.45,1.17
2024-12-06 13:33:10.547,58.72,540.0,0.72,0.66,-0.09,0.07,-0.7,0.37
2024-12-06 13:33:10.557,60.3,556.0,0.71,0.66,-0.1,0.25,1.01,-0.17
2024-12-06 13:33:10.585,59.4,551.0,0.73,0.66,-0.09,0.68,0.83,-0.48
2024-12-06 13:33:10.624,60.52,539.0,0.73,0.66,-0.11,0.74,0.83,-0.79
2024-12-06 13:33:10.640,63.9,559.0,0.73,0.65,-0.09,0.62,-0.03,-1.76
2024-12-06 13:33:10.673,62.77,544.0,0.73,0.68,-0.09,0.37,1.13,-1.21
2024-12-06 13:33:10.697,65.92,533.0,0.73,0.66,-0.11,0.92,1.32,-0.91
2024-12-06 13:33:10.723,66.38,550.0,0.74,0.64,-0.1,1.41,1.26,-1.94
2024-12-06 13:33:10.750,68.17,538.0,0.74,0.66,-0.09,1.05,0.83,-2.07
2024-12-06 13:33:10.793,65.03,549.0,0.74,0.67,-0.1,0.74,1.2,-0.66
2024-12-06 13:33:10.805,67.05,545.0,0.74,0.66,-0.1,0.92,1.68,-0.11
2024-12-06 13:33:10.833,68.85,556.0,0.74,0.65,-0.1,0.31,1.74,0.74
2024-12-06 13:33:10.861,67.5,538.0,0.73,0.65,-0.08,0.01,0.16,0.37
2024-12-06 13:33:10.890,68.85,549.0,0.74,0.68,-0.08,-0.66,0.52,0.8
2024-12-06 13:33:10.917,73.57,548.0,0.73,0.66,-0.09,-0.91,1.93,1.35
2024-12-06 13:33:10.944,75.38,595.0,0.76,0.66,-0.09,-0.3,0.71,1.66
2024-12-06 13:33:10.998,76.95,554.0,0.73,0.66,-0.09,-1.09,0.65,1.84
2024-12-06 13:33:11.1,75.82,557.0,0.73,0.66,-0.1,-0.66,0.34,2.08
2024-12-06 13:33:11.27,74.47,573.0,0.75,0.67,-0.08,-0.42,0.34,2.69
2024-12-06 13:33:11.56,74.25,550.0,0.73,0.68,-0.09,-0.79,1.81,3.61
2024-12-06 13:33:11.83,79.88,566.0,0.74,0.65,-0.1,-0.54,0.95,3.24
2024-12-06 13:33:11.111,76.72,552.0,0.74,0.67,-0.08,-0.66,0.16,3.12
2024-12-06 13:33:11.137,84.15,555.0,0.72,0.65,-0.1,-0.36,2.05,2.45
2024-12-06 13:33:11.165,80.78,557.0,0.74,0.66,-0.09,0.44,-0.09,2.51
2024-12-06 13:33:11.193,81.9,553.0,0.73,0.65,-0.1,0.5,1.44,1.9
2024-12-06 13:33:11.313,80.55,565.0,0.74,0.65,-0.1,-0.36,1.81,1.47
2024-12-06 13:33:12.585,88.65,564.0,0.75,0.65,-0.09,0.37,0.65,0.62
2024-12-06 13:33:12.593,85.05,564.0,0.75,0.65,-0.09,0.5,0.65,0.56
2024-12-06 13:33:12.598,88.88,555.0,0.74,0.66,-0.09,0.56,0.71,0.5
2024-12-06 13:33:12.605,86.85,568.0,0.74,0.66,-0.09,0.62,0.65,0.56
2024-12-06 13:33:12.619,90.45,544.0,0.74,0.66,-0.09,0.68,0.71,0.56
2024-12-06 13:33:12.621,84.38,628.0,0.74,0.66,-0.09,0.68,0.71,0.68
2024-12-06 13:33:12.630,85.95,551.0,0.74,0.66,-0.08,0.68,0.71,0.68
2024-12-06 13:33:12.641,84.38,568.0,0.74,0.65,-0.08,0.68,0.83,0.8
2024-12-06 13:33:12.648,85.05,549.0,0.74,0.65,-0.08,0.62,0.95,0.86
2024-12-06 13:33:12.654,86.85,576.0,0.74,0.66,-0.08,0.56,1.07,0.98
2024-12-06 13:33:12.662,83.92,562.0,0.74,0.66,-0.08,0.5,1.13,1.05
2024-12-06 13:33:12.668,86.4,548.0,0.74,0.66,-0.08,0.5,0.95,1.11
2024-12-06 13:33:12.676,89.55,557.0,0.74,0.66,-0.09,0.5,0.95,1.11
2024-12-06 13:33:12.684,87.07,550.0,0.74,0.66,-0.09,0.56,0.77,1.05
2024-12-06 13:33:12.692,88.88,553.0,0.74,0.66,-0.09,0.56,0.71,0.98
2024-12-06 13:33:12.700,85.5,597.0,0.74,0.66,-0.09,0.62,0.71,0.98
2024-12-06 13:33:12.708,83.03,570.0,0.74,0.66,-0.09,0.62,0.65,0.98
2024-12-06 13:33:12.720,83.92,550.0,0.74,0.65,-0.09,0.62,0.71,1.11
2024-12-06 13:33:12.733,86.17,568.0,0.74,0.65,-0.09,0.62,0.71,1.11
2024-12-06 13:33:12.740,87.52,561.0,0.74,0.66,-0.08,0.56,0.77,1.23
2024-12-06 13:33:12.743,84.15,533.0,0.74,0.66,-0.08,0.62,0.77,1.35
2024-12-06 13:33:12.748,85.5,566.0,0.74,0.66,-0.08,0.56,0.83,1.47
2024-12-06 13:33:12.756,84.15,562.0,0.74,0.66,-0.08,0.5,0.83,1.47
2024-12-06 13:33:12.763,82.8,531.0,0.74,0.66,-0.08,0.5,0.83,1.47
2024-12-06 13:33:12.775,86.85,561.0,0.74,0.66,-0.08,0.44,0.77,1.47
2024-12-06 13:33:12.778,85.28,560.0,0.74,0.66,-0.08,0.37,0.71,1.35
2024-12-06 13:33:12.813,87.97,563.0,0.74,0.66,-0.08,0.19,0.28,1.29
2024-12-06 13:33:12.816,90.0,547.0,0.74,0.65,-0.09,0.13,0.77,1.17
2024-12-06 13:33:12.821,85.5,559.0,0.74,0.65,-0.09,0.37,0.71,1.11
2024-12-06 13:33:12.824,87.97,551.0,0.74,0.65,-0.08,0.37,0.59,1.05
2024-12-06 13:33:12.834,83.03,550.0,0.74,0.65,-0.08,0.37,0.71,0.98
2024-12-06 13:33:12.841,86.62,550.0,0.74,0.65,-0.08,0.44,0.83,0.98
2024-12-06 13:33:12.847,88.42,555.0,0.74,0.65,-0.08,0.44,1.01,0.92
2024-12-06 13:33:12.860,83.92,561.0,0.74,0.65,-0.08,0.44,1.01,0.92
2024-12-06 13:33:12.863,87.3,566.0,0.74,0.65,-0.08,0.44,0.95,0.86
2024-12-06 13:33:12.871,85.05,558.0,0.74,0.65,-0.08,0.44,0.89,0.74
2024-12-06 13:33:12.878,84.82,563.0,0.74,0.65,-0.08,0.37,0.89,0.68
2024-12-06 13:33:12.887,87.52,560.0,0.74,0.65,-0.08,0.37,1.01,0.56
2024-12-06 13:33:12.905,85.28,564.0,0.74,0.65,-0.08,0.37,1.01,0.37
2024-12-06 13:33:12.908,90.22,625.0,0.74,0.65,-0.08,0.31,1.01,0.37
2024-12-06 13:33:12.913,85.05,559.0,0.74,0.65,-0.08,0.25,0.95,0.31
2024-12-06 13:33:12.918,85.05,564.0,0.74,0.65,-0.08,0.31,0.83,0.31
2024-12-06 13:33:12.927,85.28,561.0,0.74,0.65,-0.08,0.37,0.83,0.31
2024-12-06 13:33:12.937,88.65,590.0,0.74,0.65,-0.08,0.44,1.07,0.37
2024-12-06 13:33:12.943,86.85,584.0,0.74,0.65,-0.08,0.44,1.07,0.37
2024-12-06 13:33:12.955,90.0,562.0,0.74,0.65,-0.08,0.44,1.32,0.37
2024-12-06 13:33:12.960,87.07,550.0,0.74,0.65,-0.08,0.5,1.38,0.5
2024-12-06 13:33:12.964,88.65,546.0,0.74,0.65,-0.08,0.56,1.38,0.56
2024-12-06 13:33:12.972,88.65,563.0,0.74,0.65,-0.08,0.56,1.26,0.56
2024-12-06 13:33:12.980,89.32,563.0,0.75,0.65,-0.08,0.62,1.01,0.5
2024-12-06 13:33:12.988,85.28,553.0,0.75,0.65,-0.08,0.62,1.01,0.5
2024-12-06 13:33:12.996,86.85,551.0,0.75,0.65,-0.09,0.62,0.71,0.37
2024-12-06 13:33:13.4,84.6,552.0,0.74,0.65,-0.09,0.62,0.52,0.25
2024-12-06 13:33:13.36,85.72,562.0,0.74,0.66,-0.08,0.56,0.46,0.25
2024-12-06 13:33:13.47,85.28,558.0,0.74,0.66,-0.08,0.56,0.46,0.25
2024-12-06 13:33:13.48,87.3,555.0,0.74,0.65,-0.08,0.56,0.4,0.25
2024-12-06 13:33:13.51,89.77,566.0,0.74,0.65,-0.08,0.5,0.4,0.31
2024-12-06 13:33:13.64,86.85,549.0,0.74,0.65,-0.08,0.5,0.46,0.37
2024-12-06 13:33:13.69,89.1,548.0,0.74,0.65,-0.08,0.44,0.52,0.37
2024-12-06 13:33:13.74,84.15,553.0,0.74,0.65,-0.08,0.37,0.59,0.37
2024-12-06 13:33:13.85,87.97,560.0,0.74,0.65,-0.08,0.37,0.59,0.37
2024-12-06 13:33:13.93,86.62,566.0,0.74,0.65,-0.08,0.37,0.59,0.44
2024-12-06 13:33:13.100,90.22,555.0,0.74,0.65,-0.09,0.31,0.52,0.56
2024-12-06 13:33:13.106,90.67,541.0,0.75,0.65,-0.09,0.37,0.46,0.68
2024-12-06 13:33:13.117,85.72,549.0,0.75,0.65,-0.09,0.44,0.34,0.86
2024-12-06 13:33:13.139,86.17,539.0,0.75,0.65,-0.08,0.5,0.28,0.86
2024-12-06 13:33:13.141,85.5,558.0,0.74,0.65,-0.08,0.44,0.34,0.8
2024-12-06 13:33:13.145,83.03,570.0,0.74,0.65,-0.08,0.44,0.46,0.74
2024-12-06 13:33:13.158,87.97,548.0,0.74,0.65,-0.08,0.37,0.59,0.68
2024-12-06 13:33:13.160,90.45,543.0,0.74,0.65,-0.08,0.31,0.71,0.56
2024-12-06 13:33:13.167,86.4,549.0,0.74,0.65,-0.08,0.31,0.71,0.56
2024-12-06 13:33:13.175,87.75,554.0,0.74,0.65,-0.08,0.31,0.77,0.68
2024-12-06 13:33:13.183,87.75,544.0,0.74,0.65,-0.08,0.31,0.83,0.74
2024-12-06 13:33:13.191,88.2,542.0,0.74,0.65,-0.08,0.31,0.95,0.8
2024-12-06 13:33:13.207,85.05,555.0,0.74,0.65,-0.08,0.25,1.01,0.8
2024-12-06 13:33:13.213,84.82,551.0,0.74,0.65,-0.08,0.25,0.95,0.8
2024-12-06 13:33:13.216,83.92,547.0,0.74,0.65,-0.08,0.25,0.95,0.8
2024-12-06 13:33:13.226,87.52,551.0,0.74,0.65,-0.08,0.25,0.89,0.8
2024-12-06 13:33:13.267,84.15,551.0,0.74,0.65,-0.08,0.25,0.65,1.05
2024-12-06 13:33:13.270,84.6,545.0,0.74,0.65,-0.08,0.19,0.59,1.05
2024-12-06 13:33:13.275,86.62,554.0,0.74,0.65,-0.08,0.07,0.59,1.05
2024-12-06 13:33:13.283,84.82,547.0,0.74,0.65,-0.08,-0.05,0.52,0.98
2024-12-06 13:33:13.293,84.38,552.0,0.74,0.65,-0.08,-0.05,0.46,0.86
2024-12-06 13:33:13.300,84.38,550.0,0.74,0.66,-0.09,-0.11,0.46,0.86
2024-12-06 13:33:13.307,90.22,548.0,0.74,0.66,-0.09,-0.17,0.28,0.8
2024-12-06 13:33:13.317,87.75,553.0,0.74,0.66,-0.09,-0.17,0.16,0.68
2024-12-06 13:33:13.418,86.62,572.0,0.73,0.65,-0.09,0.8,0.59,0.37
2024-12-06 13:33:13.423,89.32,563.0,0.73,0.66,-0.08,0.68,0.59,0.13
2024-12-06 13:33:13.431,86.85,552.0,0.73,0.66,-0.08,0.5,0.71,-0.05
2024-12-06 13:33:13.438,91.35,547.0,0.73,0.66,-0.08,0.44,0.89,-0.17
2024-12-06 13:33:13.443,89.32,537.0,0.73,0.66,-0.08,0.37,1.01,-0.11
2024-12-06 13:33:13.452,84.38,556.0,0.73,0.66,-0.09,0.37,1.01,-0.11
2024-12-06 13:33:13.459,88.42,564.0,0.73,0.66,-0.09,0.44,1.01,-0.11
2024-12-06 13:33:13.466,86.62,543.0,0.74,0.66,-0.09,0.56,0.95,0.01
2024-12-06 13:33:13.475,85.05,554.0,0.74,0.66,-0.09,0.56,0.95,0.13
2024-12-06 13:33:13.485,85.05,549.0,0.74,0.66,-0.09,0.62,0.83,0.25
2024-12-06 13:33:13.490,86.62,566.0,0.74,0.66,-0.09,0.68,0.77,0.31
2024-12-06 13:33:13.498,89.55,549.0,0.74,0.66,-0.09,0.68,0.77,0.31
2024-12-06 13:33:13.512,87.75,553.0,0.74,0.66,-0.09,0.56,0.89,0.25
2024-12-06 13:33:13.514,88.2,558.0,0.74,0.66,-0.09,0.5,0.95,0.25
2024-12-06 13:33:13.526,84.15,541.0,0.74,0.66,-0.09,0.44,0.83,0.25
2024-12-06 13:33:13.555,86.85,565.0,0.74,0.66,-0.08,0.31,0.83,0.01
2024-12-06 13:33:13.559,89.77,551.0,0.74,0.66,-0.08,0.37,0.89,0.01
2024-12-06 13:33:13.567,89.77,556.0,0.74,0.66,-0.08,0.5,1.01,0.13
2024-12-06 13:33:13.575,83.7,557.0,0.74,0.66,-0.08,0.68,1.07,0.25
2024-12-06 13:33:13.583,86.17,556.0,0.74,0.66,-0.09,0.68,1.07,0.25
2024-12-06 13:33:13.592,86.85,609.0,0.74,0.66,-0.09,0.8,1.01,0.37
2024-12-06 13:33:13.600,85.05,546.0,0.74,0.66,-0.09,0.92,0.89,0.44
2024-12-06 13:33:13.607,86.85,549.0,0.74,0.66,-0.09,0.92,0.83,0.44
2024-12-06 13:33:13.617,87.52,562.0,0.74,0.66,-0.09,0.8,0.83,0.37
2024-12-06 13:33:13.624,84.15,553.0,0.73,0.66,-0.09,0.62,0.83,0.37
2024-12-06 13:33:14.629,87.07,552.0,0.74,0.66,-0.08,0.62,1.26,0.07
2024-12-06 13:33:14.658,83.7,560.0,0.75,0.7,-0.06,0.68,-0.27,0.56
2024-12-06 13:33:14.684,81.22,563.0,0.73,0.8,-0.09,-3.17,1.81,6.48
2024-12-06 13:33:14.712,71.55,553.0,0.75,0.68,-0.15,-4.81,2.05,9.71
2024-12-06 13:33:14.739,72.22,548.0,0.65,0.65,-0.14,-1.64,-5.46,21.0
2024-12-06 13:33:14.767,67.5,544.0,0.84,0.54,-0.0,-2.86,3.33,5.2
2024-12-06 13:33:14.804,71.78,553.0,0.74,0.57,-0.09,0.19,3.64,5.14
2024-12-06 13:33:14.840,69.3,575.0,0.75,0.56,-0.05,0.62,-0.21,0.68
2024-12-06 13:33:14.850,67.95,562.0,0.74,0.58,-0.05,1.41,0.34,-1.76
2024-12-06 13:33:14.878,73.8,556.0,0.74,0.65,-0.06,2.88,2.72,-0.6
2024-12-06 13:33:14.906,68.17,567.0,0.74,0.68,-0.08,2.33,2.84,-0.48
2024-12-06 13:33:14.933,64.35,556.0,0.76,0.66,-0.1,0.98,1.81,-0.11
2024-12-06 13:33:14.961,65.25,566.0,0.77,0.63,-0.11,0.25,-0.45,1.35
2024-12-06 13:33:14.991,62.77,574.0,0.76,0.63,-0.08,0.13,-1.43,2.27
2024-12-06 13:33:15.16,61.88,552.0,0.77,0.65,-0.08,1.29,-0.09,2.82
2024-12-06 13:33:15.70,64.57,564.0,0.76,0.64,-0.08,2.45,0.65,3.73
2024-12-06 13:33:15.75,63.22,558.0,0.76,0.63,-0.07,2.63,0.52,3.06
2024-12-06 13:33:15.99,58.95,554.0,0.76,0.64,-0.09,2.51,0.28,4.34
2024-12-06 13:33:15.128,61.42,549.0,0.76,0.63,-0.09,2.21,-0.27,4.28
2024-12-06 13:33:15.155,59.17,543.0,0.78,0.65,-0.1,2.57,-0.57,5.81
2024-12-06 13:33:15.184,58.5,552.0,0.76,0.64,-0.1,3.24,-0.45,6.36
2024-12-06 13:33:15.214,54.45,535.0,0.76,0.63,-0.08,3.0,-0.27,5.14
2024-12-06 13:33:15.237,58.27,545.0,0.75,0.62,-0.09,3.12,0.83,5.07
2024-12-06 13:33:15.289,52.88,539.0,0.73,0.61,-0.08,3.0,1.32,3.3
2024-12-06 13:33:15.296,54.22,533.0,0.75,0.62,-0.08,2.33,1.74,2.27
2024-12-06 13:33:15.320,52.2,505.0,0.74,0.63,-0.1,2.27,1.81,1.11
2024-12-06 13:33:15.348,55.12,531.0,0.73,0.62,-0.08,1.6,1.56,-1.21
2024-12-06 13:33:15.384,53.77,534.0,0.75,0.64,-0.11,1.84,1.74,-0.66
2024-12-06 13:33:15.404,48.6,529.0,0.74,0.63,-0.1,2.21,2.36,-1.15
2024-12-06 13:33:15.508,51.07,534.0,0.75,0.63,-0.1,1.9,1.32,-2.86
2024-12-06 13:33:15.522,47.25,547.0,0.76,0.64,-0.09,1.66,2.84,-2.68
2024-12-06 13:33:15.530,45.67,535.0,0.77,0.64,-0.1,1.9,2.66,-2.01
2024-12-06 13:33:15.541,42.97,555.0,0.77,0.62,-0.1,1.66,1.5,-1.82
2024-12-06 13:33:15.570,42.97,530.0,0.76,0.63,-0.1,1.84,1.32,-2.07
2024-12-06 13:33:15.596,45.0,532.0,0.77,0.66,-0.1,1.53,2.72,0.31
2024-12-06 13:33:15.634,42.3,520.0,0.77,0.65,-0.11,2.14,3.15,2.33
2024-12-06 13:33:15.651,43.65,539.0,0.77,0.63,-0.1,2.02,1.99,1.72
2024-12-06 13:33:15.680,40.27,519.0,0.77,0.63,-0.09,1.78,1.2,2.45
2024-12-06 13:33:15.708,37.35,515.0,0.75,0.63,-0.09,2.21,2.78,2.51
2024-12-06 13:33:15.741,40.05,529.0,0.78,0.62,-0.09,3.55,2.97,3.67
2024-12-06 13:33:15.764,37.8,516.0,0.76,0.64,-0.1,4.59,2.54,3.79
2024-12-06 13:33:15.789,37.58,525.0,0.75,0.63,-0.1,4.4,2.11,2.21
2024-12-06 13:33:15.817,38.25,508.0,0.75,0.62,-0.1,4.16,2.36,2.88
2024-12-06 13:33:15.862,33.3,519.0,0.74,0.62,-0.08,3.73,3.27,1.11
2024-12-06 13:33:15.878,31.5,518.0,0.77,0.63,-0.1,3.3,2.78,0.68
2024-12-06 13:33:15.900,33.08,516.0,0.75,0.62,-0.09,2.51,2.36,0.19
2024-12-06 13:33:15.928,27.9,518.0,0.76,0.62,-0.08,0.98,1.68,-0.79
2024-12-06 13:33:15.970,31.05,505.0,0.77,0.63,-0.09,0.01,1.81,0.44
2024-12-06 13:33:15.982,29.02,549.0,0.76,0.62,-0.09,-1.09,1.5,0.56
2024-12-06 13:33:16.14,30.6,509.0,0.77,0.61,-0.08,-1.64,0.71,0.86
2024-12-06 13:33:16.43,24.75,530.0,0.78,0.61,-0.1,-1.27,0.22,2.57
2024-12-06 13:33:16.85,27.0,500.0,0.77,0.61,-0.08,-1.33,0.04,2.51
2024-12-06 13:33:16.97,26.1,505.0,0.79,0.63,-0.1,-1.21,0.1,3.55
2024-12-06 13:33:16.121,25.2,498.0,0.78,0.63,-0.1,-1.27,0.1,5.5
2024-12-06 13:33:16.151,25.2,502.0,0.77,0.62,-0.09,-0.97,0.04,5.01
2024-12-06 13:33:16.176,24.52,502.0,0.78,0.63,-0.09,-0.36,0.83,4.95
2024-12-06 13:33:16.220,20.48,549.0,0.75,0.63,-0.1,0.44,1.32,6.11
2024-12-06 13:33:16.231,23.17,493.0,0.76,0.62,-0.09,1.11,1.68,3.18
2024-12-06 13:33:16.259,18.23,501.0,0.76,0.62,-0.11,2.08,0.34,3.37
2024-12-06 13:33:16.305,15.3,492.0,0.76,0.63,-0.09,2.14,1.38,2.69
2024-12-06 13:33:16.314,11.47,497.0,0.78,0.63,-0.1,1.9,2.23,3.43
2024-12-06 13:33:16.342,17.1,504.0,0.75,0.6,-0.1,2.57,1.26,3.18
2024-12-06 13:33:16.370,15.07,506.0,0.76,0.61,-0.09,2.51,1.62,1.35
2024-12-06 13:33:16.423,14.62,499.0,0.76,0.61,-0.09,2.57,1.2,1.6
2024-12-06 13:33:16.427,12.82,499.0,0.75,0.61,-0.09,2.21,1.99,0.19
2024-12-06 13:33:16.453,13.5,497.0,0.77,0.61,-0.1,2.08,2.72,0.37
2024-12-06 13:33:16.566,4.5,502.0,0.77,0.61,-0.1,2.45,1.93,0.74
2024-12-06 13:33:16.575,7.65,494.0,0.76,0.61,-0.11,1.84,2.05,-0.11
2024-12-06 13:33:16.589,5.85,481.0,0.77,0.61,-0.09,1.23,1.32,-1.33
2024-12-06 13:33:16.618,5.85,485.0,0.75,0.6,-0.1,1.41,1.01,-1.15
2024-12-06 13:33:16.651,6.97,486.0,0.74,0.61,-0.09,1.96,1.07,-3.71
2024-12-06 13:33:16.672,5.4,494.0,0.77,0.63,-0.11,2.02,2.9,-2.98
2024-12-06 13:33:16.699,5.62,487.0,0.79,0.64,-0.1,2.51,1.93,-1.09
2024-12-06 13:33:16.727,1.8,493.0,0.77,0.62,-0.09,2.27,1.74,-2.56
2024-12-06 13:33:18.34,-4.28,492.0,0.75,0.63,-0.1,0.62,1.01,0.19
2024-12-06 13:33:18.66,0.22,482.0,0.76,0.63,-0.09,0.8,0.89,0.25
2024-12-06 13:33:19.556,-3.38,490.0,0.75,0.65,-0.1,0.5,1.13,-1.09
2024-12-06 13:33:19.587,0.9,486.0,0.76,0.66,-0.07,-1.15,-0.7,0.13
2024-12-06 13:33:19.597,-1.12,496.0,0.75,0.65,-0.07,-1.15,0.04,0.01
2024-12-06 13:33:19.603,-5.17,484.0,0.74,0.64,-0.13,-0.91,0.04,0.01
2024-12-06 13:33:19.611,-1.35,495.0,0.75,0.64,-0.14,-0.17,2.6,-0.42
2024-12-06 13:33:19.621,3.6,502.0,0.76,0.65,-0.1,0.25,0.77,-0.24
2024-12-06 13:33:19.626,0.67,493.0,0.76,0.65,-0.1,0.19,-0.39,0.37
2024-12-06 13:33:19.636,2.25,506.0,0.76,0.65,-0.1,0.44,0.34,0.86
2024-12-06 13:33:19.652,3.15,485.0,0.74,0.65,-0.09,0.74,1.2,0.98
2024-12-06 13:33:19.667,-0.45,483.0,0.74,0.66,-0.1,0.74,1.44,0.92
2024-12-06 13:33:19.669,1.12,482.0,0.74,0.66,-0.1,0.86,1.44,0.98
2024-12-06 13:33:19.674,-0.22,497.0,0.74,0.66,-0.1,1.17,1.81,1.23
2024-12-06 13:33:19.684,1.12,489.0,0.75,0.66,-0.1,1.17,1.99,1.47
2024-12-06 13:33:19.693,1.35,500.0,0.75,0.65,-0.1,1.41,1.99,1.47
2024-12-06 13:33:19.697,-0.22,500.0,0.75,0.65,-0.1,1.47,1.87,1.6
2024-12-06 13:33:19.703,0.9,499.0,0.75,0.65,-0.1,1.47,1.62,1.66
2024-12-06 13:33:19.714,-4.5,499.0,0.75,0.65,-0.1,1.47,1.44,1.78
2024-12-06 13:33:19.720,-2.47,492.0,0.75,0.65,-0.1,1.29,1.13,1.84
2024-12-06 13:33:19.726,-0.67,493.0,0.75,0.65,-0.1,1.29,1.13,1.84
2024-12-06 13:33:19.735,2.7,483.0,0.75,0.65,-0.1,1.11,0.89,1.96
2024-12-06 13:33:19.745,0.22,507.0,0.74,0.65,-0.1,0.92,0.77,2.02
2024-12-06 13:33:19.754,-3.6,506.0,0.74,0.65,-0.1,0.74,0.71,2.08
2024-12-06 13:33:19.759,1.35,474.0,0.74,0.65,-0.09,0.62,0.4,2.08
2024-12-06 13:33:19.773,-1.12,486.0,0.73,0.65,-0.09,0.5,0.59,1.78
2024-12-06 13:33:19.783,-0.45,520.0,0.73,0.65,-0.09,0.5,1.13,1.66
2024-12-06 13:33:19.813,-0.45,484.0,0.74,0.65,-0.09,0.5,1.13,1.66
2024-12-06 13:33:20.810,-0.67,502.0,0.74,0.65,-0.1,0.5,0.77,0.25
2024-12-06 13:33:20.818,-3.15,495.0,0.72,0.64,-0.1,0.31,-0.15,-0.24
2024-12-06 13:33:20.846,-4.28,495.0,0.7,0.63,-0.09,-0.48,-0.7,-3.59
2024-12-06 13:33:20.875,-1.8,501.0,0.71,0.64,-0.09,-0.54,-0.76,-4.75
2024-12-06 13:33:20.902,5.17,509.0,0.72,0.67,-0.1,-0.36,0.71,-4.94
2024-12-06 13:33:20.948,0.22,500.0,0.74,0.67,-0.1,-0.17,0.28,-4.51
2024-12-06 13:33:20.957,5.85,509.0,0.73,0.66,-0.11,0.5,-0.33,-5.36
2024-12-06 13:33:20.985,7.42,505.0,0.73,0.66,-0.08,0.07,-0.88,-4.81
2024-12-06 13:33:21.9,3.82,515.0,0.72,0.67,-0.11,0.01,0.46,-4.26
2024-12-06 13:33:21.38,5.17,503.0,0.72,0.67,-0.1,-0.05,0.77,-4.57
2024-12-06 13:33:21.66,7.42,516.0,0.74,0.68,-0.1,-0.36,0.65,-3.65
2024-12-06 13:33:21.99,6.75,520.0,0.73,0.67,-0.11,0.31,0.4,-3.35
2024-12-06 13:33:21.121,14.62,519.0,0.73,0.67,-0.09,0.07,0.34,-2.43
2024-12-06 13:33:21.174,12.15,515.0,0.72,0.68,-0.09,0.01,0.52,-1.82
2024-12-06 13:33:21.181,8.55,516.0,0.71,0.67,-0.1,0.44,0.83,-2.8
2024-12-06 13:33:21.203,9.68,506.0,0.72,0.67,-0.1,0.62,1.01,-3.1
2024-12-06 13:33:21.231,16.88,509.0,0.72,0.68,-0.1,0.92,0.89,-2.49
2024-12-06 13:33:21.263,12.6,510.0,0.71,0.68,-0.11,0.74,0.77,-2.13
2024-12-06 13:33:21.285,17.77,529.0,0.71,0.68,-0.1,0.07,0.22,-1.76
2024-12-06 13:33:21.312,19.35,514.0,0.69,0.67,-0.09,-0.54,-0.27,-3.29
2024-12-06 13:33:21.340,20.48,515.0,0.71,0.69,-0.09,-0.97,0.65,-2.92
2024-12-06 13:33:21.369,20.92,520.0,0.7,0.69,-0.1,-0.85,0.59,-2.86
2024-12-06 13:33:21.397,18.9,532.0,0.71,0.69,-0.09,-1.09,-0.09,-4.08
2024-12-06 13:33:21.423,20.92,531.0,0.73,0.67,-0.11,-1.03,0.16,-5.12
2024-12-06 13:33:21.451,23.85,517.0,0.75,0.67,-0.1,-1.64,2.36,-7.62
2024-12-06 13:33:21.480,24.07,537.0,0.71,0.7,-0.1,-1.52,0.1,-7.07
2024-12-06 13:33:21.509,22.72,527.0,0.67,0.73,-0.08,-1.52,-1.92,-4.33
2024-12-06 13:33:21.620,25.65,539.0,0.67,0.71,-0.09,-0.91,-1.37,-1.27
2024-12-06 13:33:21.623,28.12,516.0,0.7,0.68,-0.1,0.8,0.1,-2.43
2024-12-06 13:33:21.645,29.92,532.0,0.71,0.7,-0.09,-0.17,-1.06,-1.46
2024-12-06 13:33:21.673,29.92,543.0,0.68,0.71,-0.1,-0.6,0.46,-0.42
2024-12-06 13:33:21.698,30.15,532.0,0.69,0.72,-0.1,-0.66,1.26,-1.21
2024-12-06 13:33:21.729,26.55,523.0,0.69,0.71,-0.1,-0.79,0.83,-0.79
2024-12-06 13:33:21.753,32.17,533.0,0.69,0.7,-0.1,-0.05,0.71,-1.64
2024-12-06 13:33:21.781,33.3,534.0,0.71,0.73,-0.09,-0.66,-0.03,0.56
2024-12-06 13:33:21.809,34.65,503.0,0.68,0.71,-0.11,-0.54,0.77,0.92
2024-12-06 13:33:21.844,38.7,557.0,0.69,0.71,-0.09,-0.05,0.52,-0.11
2024-12-06 13:33:21.864,39.38,549.0,0.69,0.72,-0.1,0.56,0.46,0.5
2024-12-06 13:33:21.894,37.35,549.0,0.68,0.71,-0.1,1.35,1.32,-0.05
2024-12-06 13:33:21.919,39.38,551.0,0.7,0.72,-0.09,0.8,1.01,0.56
2024-12-06 13:33:21.949,41.4,534.0,0.68,0.7,-0.1,0.68,1.32,0.01
2024-12-06 13:33:21.976,42.75,539.0,0.68,0.7,-0.09,1.29,0.46,-0.66
2024-12-06 13:33:22.5,43.42,553.0,0.68,0.72,-0.09,1.23,1.01,-0.54
2024-12-06 13:33:22.34,43.88,537.0,0.68,0.72,-0.09,1.23,1.68,0.01
2024-12-06 13:33:22.57,42.97,549.0,0.69,0.71,-0.09,1.35,1.74,-1.03
2024-12-06 13:33:22.85,44.55,540.0,0.68,0.7,-0.1,1.17,1.68,-1.46
2024-12-06 13:33:22.118,46.8,533.0,0.68,0.7,-0.1,1.23,1.2,-1.7
2024-12-06 13:33:22.160,48.82,544.0,0.69,0.72,-0.09,0.92,1.26,-0.97
2024-12-06 13:33:22.168,44.77,533.0,0.68,0.71,-0.1,0.31,1.87,-0.05
2024-12-06 13:33:22.196,46.8,539.0,0.68,0.7,-0.09,0.98,0.46,-1.15
2024-12-06 13:33:22.224,52.42,539.0,0.68,0.72,-0.09,0.98,0.46,-2.01
2024-12-06 13:33:22.253,48.38,534.0,0.67,0.72,-0.1,0.62,1.32,-1.27
2024-12-06 13:33:22.296,51.52,538.0,0.78,0.62,-0.09,-0.66,2.42,-6.77
2024-12-06 13:33:22.306,53.55,536.0,0.68,0.72,-0.11,-2.8,6.38,-12.5
2024-12-06 13:33:22.334,52.65,550.0,0.6,0.74,-0.1,1.05,-5.27,-5.3
2024-12-06 13:33:22.362,55.35,557.0,0.63,0.76,-0.07,1.17,-2.59,-1.7
2024-12-06 13:33:22.389,61.42,544.0,0.6,0.79,-0.1,-0.3,4.92,-0.91
2024-12-06 13:33:22.417,56.25,555.0,0.68,0.74,-0.09,-0.72,3.58,-3.04
2024-12-06 13:33:22.449,56.02,545.0,0.68,0.72,-0.11,0.07,-0.21,-4.39
2024-12-06 13:33:22.472,58.5,558.0,0.66,0.72,-0.11,1.23,-1.0,-4.26
2024-12-06 13:33:22.521,58.05,548.0,0.67,0.74,-0.11,2.14,0.34,-1.46
2024-12-06 13:33:22.538,58.05,556.0,0.66,0.74,-0.1,2.51,2.72,-0.3
2024-12-06 13:33:22.555,63.9,544.0,0.69,0.75,-0.09,3.0,1.87,0.19
2024-12-06 13:33:22.668,62.77,554.0,0.68,0.75,-0.09,2.82,1.68,1.9
2024-12-06 13:33:22.672,68.17,560.0,0.65,0.72,-0.09,1.6,1.5,2.82
2024-12-06 13:33:22.692,66.6,556.0,0.65,0.72,-0.09,1.47,0.77,1.84
2024-12-06 13:33:22.721,69.3,553.0,0.66,0.73,-0.08,0.92,1.2,2.02
2024-12-06 13:33:22.775,70.88,555.0,0.66,0.73,-0.09,0.5,1.62,1.84
2024-12-06 13:33:22.777,69.3,537.0,0.66,0.72,-0.09,0.5,0.28,1.47
2024-12-06 13:33:22.802,71.55,553.0,0.66,0.72,-0.09,0.5,-0.09,1.05
2024-12-06 13:33:22.831,71.1,565.0,0.66,0.74,-0.1,-0.17,0.71,1.41
2024-12-06 13:33:22.863,70.2,568.0,0.66,0.72,-0.09,-0.05,0.71,0.8
2024-12-06 13:33:22.885,77.4,558.0,0.67,0.73,-0.09,-0.48,1.07,1.23
2024-12-06 13:33:22.916,72.9,562.0,0.66,0.71,-0.09,-0.05,0.4,1.05
2024-12-06 13:33:22.946,77.85,568.0,0.68,0.73,-0.09,-0.11,-0.09,1.41
2024-12-06 13:33:22.983,76.05,561.0,0.66,0.74,-0.1,-0.66,0.59,2.27
2024-12-06 13:33:23.2,81.0,558.0,0.67,0.72,-0.1,-0.24,-0.03,1.9
2024-12-06 13:33:23.24,79.42,551.0,0.68,0.75,-0.09,-0.36,-0.45,3.06
2024-12-06 13:33:23.79,77.17,570.0,0.66,0.69,-0.1,0.01,0.77,3.06
2024-12-06 13:33:23.86,80.55,557.0,0.67,0.73,-0.08,-0.97,-0.94,2.94
2024-12-06 13:33:23.106,78.75,583.0,0.66,0.73,-0.1,-1.03,0.46,2.94
2024-12-06 13:33:23.134,83.25,552.0,0.67,0.7,-0.1,0.25,0.22,2.57
2024-12-06 13:33:23.163,83.7,584.0,0.66,0.74,-0.08,-0.36,-0.64,2.88
2024-12-06 13:33:23.209,84.15,576.0,0.66,0.73,-0.1,-1.4,1.56,2.88
2024-12-06 13:33:24.599,87.07,594.0,0.67,0.73,-0.09,0.56,0.89,-0.05
2024-12-06 13:33:24.609,87.3,576.0,0.67,0.73,-0.09,0.31,0.59,0.62
2024-12-06 13:33:24.617,89.32,552.0,0.67,0.73,-0.09,0.31,0.65,0.68
2024-12-06 13:33:24.626,85.05,574.0,0.67,0.73,-0.09,0.37,0.71,0.68
2024-12-06 13:33:24.633,85.95,566.0,0.67,0.73,-0.09,0.37,0.71,0.68
2024-12-06 13:33:24.644,88.2,559.0,0.67,0.73,-0.09,0.44,0.77,0.8
2024-12-06 13:33:24.650,79.88,574.0,0.67,0.73,-0.09,0.5,0.83,0.92
2024-12-06 13:33:24.658,86.4,555.0,0.67,0.73,-0.09,0.56,0.95,1.11
2024-12-06 13:33:24.664,85.28,554.0,0.67,0.73,-0.09,0.56,1.01,1.29
2024-12-06 13:33:24.675,84.6,562.0,0.67,0.73,-0.09,0.56,1.2,1.41
2024-12-06 13:33:24.786,83.92,558.0,0.66,0.73,-0.09,1.11,0.89,0.98
2024-12-06 13:33:24.793,86.85,566.0,0.66,0.73,-0.09,1.05,0.95,0.98
2024-12-06 13:33:24.823,88.42,562.0,0.66,0.72,-0.09,0.68,1.2,0.68
2024-12-06 13:33:24.830,88.65,557.0,0.66,0.72,-0.09,0.56,1.2,0.5
2024-12-06 13:33:24.840,85.05,567.0,0.66,0.72,-0.08,0.37,1.26,0.5
2024-12-06 13:33:24.845,85.28,554.0,0.66,0.72,-0.08,0.31,1.2,0.37
2024-12-06 13:33:24.855,88.2,610.0,0.66,0.72,-0.08,0.25,1.13,0.31
2024-12-06 13:33:24.861,86.62,554.0,0.67,0.72,-0.09,0.25,1.01,0.25
2024-12-06 13:33:24.869,92.02,618.0,0.66,0.72,-0.09,0.25,1.01,0.25
2024-12-06 13:33:24.905,85.95,555.0,0.67,0.73,-0.09,0.37,0.95,0.25
2024-12-06 13:33:24.907,83.7,554.0,0.67,0.73,-0.09,0.56,0.65,0.31
2024-12-06 13:33:24.911,80.32,592.0,0.67,0.73,-0.09,0.56,0.65,0.31
2024-12-06 13:33:24.915,83.7,568.0,0.66,0.73,-0.09,0.44,0.65,0.25
2024-12-06 13:33:24.924,88.2,548.0,0.66,0.73,-0.09,0.37,0.71,0.25
2024-12-06 13:33:24.933,83.92,569.0,0.66,0.73,-0.09,0.31,0.77,0.13
2024-12-06 13:33:24.943,84.82,570.0,0.66,0.73,-0.09,0.13,0.77,0.13
2024-12-06 13:33:24.950,89.77,546.0,0.66,0.73,-0.09,0.07,0.65,0.13
2024-12-06 13:33:24.955,83.7,566.0,0.67,0.73,-0.09,0.07,0.65,0.31
2024-12-06 13:33:24.966,83.7,553.0,0.67,0.73,-0.09,0.07,0.59,0.31
2024-12-06 13:33:24.971,86.17,578.0,0.67,0.73,-0.09,0.07,0.52,0.5
2024-12-06 13:33:24.978,87.97,577.0,0.67,0.73,-0.09,0.19,0.52,0.68
2024-12-06 13:33:24.986,83.25,549.0,0.67,0.73,-0.09,0.25,0.52,0.8
2024-12-06 13:33:24.994,88.42,552.0,0.67,0.73,-0.09,0.31,0.59,0.8
2024-12-06 13:33:25.28,85.72,548.0,0.67,0.73,-0.09,0.31,0.59,0.8
2024-12-06 13:33:25.42,85.95,565.0,0.67,0.73,-0.09,0.5,1.01,0.56
2024-12-06 13:33:25.53,83.7,587.0,0.67,0.73,-0.09,0.74,0.83,0.56
2024-12-06 13:33:25.56,85.95,549.0,0.67,0.73,-0.09,0.92,0.71,0.56
2024-12-06 13:33:25.67,85.5,598.0,0.67,0.73,-0.09,1.05,0.59,0.56
2024-12-06 13:33:25.72,86.85,580.0,0.67,0.73,-0.09,1.11,0.77,0.5
2024-12-06 13:33:25.78,85.5,545.0,0.66,0.73,-0.09,1.05,1.01,0.44
2024-12-06 13:33:25.86,84.15,556.0,0.66,0.73,-0.09,1.05,1.01,0.44
2024-12-06 13:33:25.95,86.17,555.0,0.66,0.73,-0.09,1.05,1.2,0.44
2024-12-06 13:33:25.125,84.38,557.0,0.66,0.73,-0.09,1.05,1.2,0.5
2024-12-06 13:33:25.134,86.62,562.0,0.66,0.73,-0.09,1.17,1.13,0.74
2024-12-06 13:33:25.137,87.75,550.0,0.66,0.73,-0.09,1.17,1.13,0.74
2024-12-06 13:33:26.236,84.38,565.0,0.66,0.73,-0.09,0.44,0.59,1.23
2024-12-06 13:33:26.239,85.95,564.0,0.64,0.86,-0.1,-6.58,4.67,8.98
2024-12-06 13:33:26.249,75.15,554.0,0.68,0.78,-0.15,-4.63,3.58,16.55
2024-12-06 13:33:26.282,70.42,553.0,0.57,0.76,-0.15,-0.66,-2.16,30.34
2024-12-06 13:33:26.306,71.78,575.0,0.69,0.62,-0.08,0.07,-7.23,20.33
2024-12-06 13:33:26.332,68.4,560.0,0.74,0.64,-0.01,-1.15,6.51,6.48
2024-12-06 13:33:26.369,65.7,562.0,0.68,0.61,-0.04,0.68,-1.92,0.74
2024-12-06 13:33:26.390,67.72,567.0,0.7,0.65,-0.06,0.13,2.78,-3.17
2024-12-06 13:33:26.415,64.57,570.0,0.71,0.71,-0.09,0.07,-1.0,-1.27
2024-12-06 13:33:26.449,67.95,583.0,0.69,0.75,-0.09,0.44,-0.21,0.92
2024-12-06 13:33:26.493,59.62,568.0,0.69,0.72,-0.1,0.19,0.28,1.47
2024-12-06 13:33:26.498,65.03,565.0,0.7,0.7,-0.09,0.19,0.16,1.23
2024-12-06 13:33:26.525,63.22,570.0,0.7,0.7,-0.09,0.86,0.16,2.33
2024-12-06 13:33:26.553,55.12,561.0,0.69,0.68,-0.08,1.84,-0.51,1.6
2024-12-06 13:33:26.594,58.05,570.0,0.7,0.7,-0.08,1.72,-1.37,1.05
2024-12-06 13:33:26.608,54.0,572.0,0.69,0.71,-0.08,0.68,-1.92,1.35
2024-12-06 13:33:26.637,57.38,584.0,0.67,0.7,-0.09,-0.3,-1.86,-0.05
2024-12-06 13:33:26.664,60.3,566.0,0.68,0.7,-0.08,-1.76,-0.94,-0.11
2024-12-06 13:33:26.712,55.12,556.0,0.68,0.69,-0.08,-2.37,-1.37,-0.6
2024-12-06 13:33:26.723,56.7,554.0,0.68,0.68,-0.07,-2.56,-0.76,-1.82
2024-12-06 13:33:26.754,52.88,554.0,0.69,0.7,-0.08,-2.43,-1.92,-1.88
2024-12-06 13:33:26.862,50.62,566.0,0.69,0.72,-0.08,-1.7,-0.03,-2.49
2024-12-06 13:33:26.864,49.27,555.0,0.69,0.72,-0.1,-0.17,-0.51,-0.66
2024-12-06 13:33:26.884,50.17,575.0,0.69,0.72,-0.1,0.07,-0.15,0.92
2024-12-06 13:33:26.938,47.02,559.0,0.68,0.72,-0.1,0.5,0.4,1.78
2024-12-06 13:33:26.940,36.9,574.0,0.7,0.69,-0.09,0.56,-0.09,2.57
2024-12-06 13:33:26.967,45.45,556.0,0.69,0.71,-0.09,0.44,0.16,2.33
2024-12-06 13:33:27.0,46.35,556.0,0.67,0.7,-0.08,0.44,0.71,1.29
2024-12-06 13:33:27.22,43.2,574.0,0.7,0.72,-0.09,0.86,0.65,3.24
2024-12-06 13:33:27.76,40.27,579.0,0.7,0.72,-0.1,1.23,1.01,4.46
2024-12-06 13:33:27.80,43.65,554.0,0.69,0.7,-0.09,0.68,1.01,3.79
2024-12-06 13:33:27.105,43.65,570.0,0.69,0.69,-0.08,0.31,0.16,3.06
2024-12-06 13:33:27.133,37.8,535.0,0.68,0.69,-0.09,0.31,0.89,3.79
2024-12-06 13:33:27.178,37.35,574.0,0.67,0.69,-0.07,0.01,1.81,2.21
2024-12-06 13:33:27.188,40.72,570.0,0.69,0.71,-0.09,-0.11,1.44,2.33
2024-12-06 13:33:27.215,33.52,562.0,0.69,0.7,-0.08,-0.42,1.5,1.84
2024-12-06 13:33:27.243,36.67,558.0,0.71,0.72,-0.09,-0.72,1.13,2.39
2024-12-06 13:33:27.279,34.65,556.0,0.68,0.7,-0.1,-0.05,1.2,3.3
2024-12-06 13:33:27.298,28.8,545.0,0.71,0.7,-0.08,0.13,1.13,2.88
2024-12-06 13:33:27.350,32.17,556.0,0.71,0.7,-0.09,0.19,2.05,3.55
2024-12-06 13:33:27.356,26.77,573.0,0.69,0.68,-0.08,0.19,1.44,2.21
2024-12-06 13:33:27.397,29.7,553.0,0.71,0.7,-0.08,0.5,1.5,3.3
2024-12-06 13:33:27.408,29.02,553.0,0.7,0.7,-0.1,1.05,0.65,4.16
2024-12-06 13:33:27.436,27.22,548.0,0.7,0.69,-0.08,0.44,1.62,2.69
2024-12-06 13:33:27.467,26.1,578.0,0.71,0.71,-0.09,0.19,0.71,4.1
2024-12-06 13:33:27.493,26.55,562.0,0.69,0.69,-0.1,0.98,0.95,4.71
2024-12-06 13:33:27.519,22.95,563.0,0.71,0.69,-0.08,0.74,1.26,4.22
2024-12-06 13:33:27.546,25.42,557.0,0.7,0.69,-0.09,0.68,1.44,5.26
2024-12-06 13:33:27.575,21.15,570.0,0.7,0.69,-0.08,0.74,2.66,4.22
2024-12-06 13:33:27.617,14.85,522.0,0.69,0.67,-0.08,1.05,0.95,3.91
2024-12-06 13:33:27.631,17.77,525.0,0.73,0.65,-0.09,0.74,-3.87,4.59
2024-12-06 13:33:27.658,19.12,524.0,0.68,0.73,-0.08,2.14,-1.12,3.61
2024-12-06 13:33:27.684,21.15,505.0,0.68,0.73,-0.09,1.66,3.33,3.06
2024-12-06 13:33:27.712,19.57,575.0,0.7,0.69,-0.09,1.9,4.31,4.59
2024-12-06 13:33:27.741,17.77,563.0,0.73,0.67,-0.08,1.6,3.27,3.79
2024-12-06 13:33:27.768,19.57,515.0,0.74,0.68,-0.08,1.53,-0.27,4.16
2024-12-06 13:33:27.796,18.0,521.0,0.71,0.68,-0.07,1.47,0.65,3.3
2024-12-06 13:33:27.910,12.6,501.0,0.73,0.69,-0.09,1.35,2.48,4.77
2024-12-06 13:33:27.913,15.3,494.0,0.75,0.68,-0.1,1.9,0.52,6.54
2024-12-06 13:33:27.932,9.45,519.0,0.72,0.67,-0.09,2.63,1.26,7.88
2024-12-06 13:33:27.962,10.57,503.0,0.74,0.67,-0.07,2.63,2.42,8.0
2024-12-06 13:33:27.987,8.32,533.0,0.73,0.66,-0.09,2.94,2.11,9.41
2024-12-06 13:33:28.15,9.9,515.0,0.73,0.65,-0.08,2.51,2.23,7.21
2024-12-06 13:33:28.42,8.55,498.0,0.75,0.66,-0.08,1.9,2.23,8.55
2024-12-06 13:33:28.70,4.95,493.0,0.72,0.64,-0.09,2.14,0.89,8.13
2024-12-06 13:33:28.101,7.88,476.0,0.72,0.63,-0.07,1.72,1.38,5.5
2024-12-06 13:33:28.127,1.12,492.0,0.76,0.66,-0.09,1.35,1.68,6.97
2024-12-06 13:33:28.154,0.45,498.0,0.72,0.64,-0.09,1.47,1.2,6.97
2024-12-06 13:33:29.462,1.57,493.0,0.75,0.65,-0.09,0.37,0.65,0.8
2024-12-06 13:33:29.500,0.67,498.0,0.75,0.64,-0.09,0.44,1.07,0.8
2024-12-06 13:33:29.503,1.12,496.0,0.75,0.64,-0.09,0.56,1.2,0.8
2024-12-06 13:33:29.505,0.67,489.0,0.75,0.64,-0.09,0.68,1.13,0.8
