Timestamp,PosIsDeg,ForceIs,AccX,AccY,AccZ,GyroX,GyroY,GyroZ
2024-12-06 13:30:11.524,-0.22,517.0,0.83,0.53,-0.09,0.62,0.52,0.62
2024-12-06 13:30:11.576,-0.45,536.0,0.81,0.52,-0.08,0.44,0.34,0.86
2024-12-06 13:30:11.580,2.92,518.0,0.75,0.48,-0.07,-0.05,-1.25,-7.5
2024-12-06 13:30:11.607,-1.57,540.0,0.83,0.54,-0.09,0.25,-0.15,-8.05
2024-12-06 13:30:11.638,4.05,517.0,0.84,0.56,-0.1,1.47,2.48,-5.18
2024-12-06 13:30:11.662,2.47,544.0,0.86,0.55,-0.1,0.56,2.11,-2.74
2024-12-06 13:30:11.696,2.02,526.0,0.84,0.54,-0.11,-0.17,-0.09,-2.43
2024-12-06 13:30:11.718,4.28,539.0,0.83,0.55,-0.09,1.11,-0.51,-2.8
2024-12-06 13:30:11.752,4.05,528.0,0.81,0.55,-0.08,1.84,0.95,-2.74
2024-12-06 13:30:11.791,5.62,526.0,0.78,0.54,-0.09,1.78,2.29,-3.96
2024-12-06 13:30:11.801,11.25,545.0,0.83,0.55,-0.09,0.8,1.62,-2.98
2024-12-06 13:30:11.828,7.65,539.0,0.8,0.54,-0.1,0.74,0.22,-5.24
2024-12-06 13:30:11.856,8.77,535.0,0.81,0.56,-0.09,0.74,0.89,-6.03
2024-12-06 13:30:11.899,11.47,546.0,0.82,0.56,-0.09,1.05,1.5,-4.69
2024-12-06 13:30:11.914,11.7,525.0,0.81,0.56,-0.09,1.35,1.99,-5.06
2024-12-06 13:30:11.946,13.95,509.0,0.82,0.56,-0.09,1.23,0.83,-5.24
2024-12-06 13:30:11.966,16.2,546.0,0.82,0.57,-0.08,1.66,1.56,-5.18
2024-12-06 13:30:12.84,14.85,524.0,0.83,0.58,-0.09,3.3,0.95,-5.12
2024-12-06 13:30:12.87,16.2,534.0,0.79,0.57,-0.1,3.18,1.07,-5.91
2024-12-06 13:30:12.105,18.0,521.0,0.79,0.58,-0.1,2.21,1.5,-4.81
2024-12-06 13:30:12.136,21.38,523.0,0.79,0.59,-0.1,2.69,2.23,-3.53
2024-12-06 13:30:12.159,17.55,510.0,0.79,0.59,-0.11,3.24,3.88,-2.74
2024-12-06 13:30:12.187,23.62,529.0,0.78,0.58,-0.12,3.12,3.7,-4.87
2024-12-06 13:30:12.243,21.38,509.0,0.82,0.59,-0.1,2.63,2.05,-4.14
2024-12-06 13:30:12.245,22.05,522.0,0.81,0.6,-0.11,2.69,1.74,-2.86
2024-12-06 13:30:12.271,21.82,530.0,0.79,0.59,-0.1,3.12,1.68,-2.92
2024-12-06 13:30:12.299,24.52,536.0,0.79,0.58,-0.1,2.88,2.42,-4.26
2024-12-06 13:30:12.325,28.12,538.0,0.82,0.56,-0.09,2.02,3.58,-6.64
2024-12-06 13:30:12.357,27.9,520.0,0.8,0.57,-0.1,1.53,2.23,-8.48
2024-12-06 13:30:12.382,29.92,513.0,0.8,0.61,-0.1,1.29,0.1,-9.7
2024-12-06 13:30:12.417,28.8,519.0,0.74,0.64,-0.1,1.84,-1.49,-5.18
2024-12-06 13:30:12.435,27.67,537.0,0.76,0.64,-0.09,2.21,0.52,-3.29
2024-12-06 13:30:12.479,27.0,514.0,0.75,0.62,-0.1,2.21,3.94,-2.31
2024-12-06 13:30:12.494,33.97,520.0,0.75,0.6,-0.1,2.14,2.66,-4.14
2024-12-06 13:30:12.517,30.15,517.0,0.8,0.62,-0.08,1.29,1.87,-2.13
2024-12-06 13:30:12.567,33.3,520.0,0.78,0.62,-0.11,1.41,1.2,-0.79
2024-12-06 13:30:12.574,41.17,546.0,0.75,0.62,-0.1,0.62,0.59,-1.88
2024-12-06 13:30:12.616,38.02,637.0,0.75,0.61,-0.08,0.13,1.87,-3.41
2024-12-06 13:30:12.629,37.12,528.0,0.74,0.6,-0.1,1.05,0.52,-4.69
2024-12-06 13:30:12.659,40.72,530.0,0.76,0.61,-0.09,0.74,1.38,-6.28
2024-12-06 13:30:12.686,35.1,523.0,0.75,0.62,-0.11,0.44,0.83,-5.85
2024-12-06 13:30:12.717,42.75,535.0,0.84,0.52,-0.1,-1.03,3.27,-13.66
2024-12-06 13:30:12.746,45.0,527.0,0.8,0.64,-0.11,-1.88,2.42,-18.85
2024-12-06 13:30:12.803,46.12,577.0,0.7,0.7,-0.1,-0.36,-4.54,-10.8
2024-12-06 13:30:12.807,43.2,542.0,0.72,0.67,-0.08,1.11,-3.32,-6.89
2024-12-06 13:30:12.822,45.9,531.0,0.71,0.65,-0.1,2.08,2.97,-6.03
2024-12-06 13:30:12.849,49.27,540.0,0.74,0.64,-0.11,2.27,3.33,-6.16
2024-12-06 13:30:12.877,47.25,523.0,0.77,0.65,-0.12,1.11,-0.33,-6.03
2024-12-06 13:30:12.908,49.5,532.0,0.74,0.66,-0.13,1.29,-2.34,-5.36
2024-12-06 13:30:12.933,49.72,565.0,0.72,0.66,-0.1,1.35,-0.27,-6.71
2024-12-06 13:30:12.960,45.67,523.0,0.73,0.66,-0.1,1.84,1.07,-6.16
2024-12-06 13:30:12.987,46.57,547.0,0.75,0.69,-0.11,2.33,2.48,-4.45
2024-12-06 13:30:13.32,49.05,559.0,0.75,0.68,-0.1,2.14,1.2,-4.51
2024-12-06 13:30:13.129,53.77,556.0,0.73,0.68,-0.13,1.47,1.32,-2.68
2024-12-06 13:30:13.133,56.02,545.0,0.73,0.69,-0.11,2.27,2.97,0.8
2024-12-06 13:30:13.152,56.47,543.0,0.73,0.66,-0.11,2.21,2.48,1.05
2024-12-06 13:30:13.181,59.85,547.0,0.73,0.68,-0.12,2.02,1.44,0.5
2024-12-06 13:30:13.212,58.72,560.0,0.72,0.66,-0.11,2.57,0.71,0.01
2024-12-06 13:30:13.235,54.45,590.0,0.72,0.68,-0.1,2.21,1.13,0.13
2024-12-06 13:30:13.262,62.55,563.0,0.69,0.67,-0.11,2.33,2.54,-0.17
2024-12-06 13:30:13.293,59.85,550.0,0.72,0.65,-0.11,2.45,1.99,0.19
2024-12-06 13:30:13.334,58.05,555.0,0.73,0.68,-0.11,1.9,1.87,0.92
2024-12-06 13:30:13.362,69.97,561.0,0.7,0.67,-0.12,1.66,3.03,0.62
2024-12-06 13:30:13.373,63.22,550.0,0.73,0.67,-0.1,1.84,2.54,0.01
2024-12-06 13:30:13.400,64.35,554.0,0.72,0.67,-0.12,2.14,1.5,0.37
2024-12-06 13:30:13.428,64.8,563.0,0.72,0.67,-0.1,1.84,0.83,-0.36
2024-12-06 13:30:13.485,69.75,562.0,0.72,0.67,-0.1,1.66,0.59,-0.17
2024-12-06 13:30:13.488,65.92,545.0,0.7,0.67,-0.11,0.92,2.11,-0.11
2024-12-06 13:30:13.511,67.05,552.0,0.73,0.65,-0.11,0.98,1.68,-0.48
2024-12-06 13:30:13.542,71.78,555.0,0.73,0.68,-0.11,0.68,0.28,0.13
2024-12-06 13:30:13.565,72.22,551.0,0.71,0.68,-0.11,0.19,1.2,0.01
2024-12-06 13:30:13.593,73.35,569.0,0.73,0.67,-0.1,0.25,0.77,0.62
2024-12-06 13:30:13.621,66.6,574.0,0.72,0.67,-0.11,0.01,1.01,0.5
2024-12-06 13:30:13.650,72.9,575.0,0.72,0.66,-0.11,0.25,1.01,-0.42
2024-12-06 13:30:13.676,77.85,570.0,0.73,0.68,-0.1,0.31,0.34,-0.48
2024-12-06 13:30:13.710,76.72,571.0,0.7,0.68,-0.12,0.62,1.87,-0.24
2024-12-06 13:30:13.743,79.42,571.0,0.72,0.66,-0.11,0.8,1.81,0.44
2024-12-06 13:30:13.760,79.88,561.0,0.72,0.69,-0.11,0.07,1.5,0.74
2024-12-06 13:30:13.787,77.4,565.0,0.72,0.67,-0.12,0.31,1.5,0.68
2024-12-06 13:30:13.816,78.75,562.0,0.73,0.69,-0.1,0.13,1.01,1.53
2024-12-06 13:30:13.842,83.03,561.0,0.71,0.65,-0.11,0.5,1.5,1.29
2024-12-06 13:30:13.873,82.8,562.0,0.73,0.66,-0.1,1.11,0.52,0.86
2024-12-06 13:30:13.901,87.52,543.0,0.71,0.7,-0.11,0.62,1.2,1.84
2024-12-06 13:30:13.943,85.05,552.0,0.72,0.68,-0.12,0.25,2.23,2.63
2024-12-06 13:30:15.232,88.42,575.0,0.73,0.66,-0.11,1.17,0.83,0.8
2024-12-06 13:30:15.241,89.1,560.0,0.72,0.66,-0.11,1.35,0.95,0.8
2024-12-06 13:30:15.266,88.42,576.0,0.72,0.66,-0.1,1.53,1.07,0.74
2024-12-06 13:30:15.297,89.32,550.0,0.72,0.67,-0.1,2.02,1.87,-0.05
2024-12-06 13:30:15.299,87.75,553.0,0.72,0.67,-0.09,2.02,1.99,-0.17
2024-12-06 13:30:15.305,84.82,559.0,0.72,0.67,-0.09,1.96,2.05,-0.17
2024-12-06 13:30:15.315,88.42,564.0,0.72,0.67,-0.09,1.96,1.99,-0.11
2024-12-06 13:30:15.319,89.1,567.0,0.72,0.68,-0.09,1.9,1.99,-0.11
2024-12-06 13:30:15.331,84.82,572.0,0.72,0.68,-0.09,1.72,1.99,0.01
2024-12-06 13:30:15.343,88.65,561.0,0.72,0.68,-0.09,1.29,1.81,0.25
2024-12-06 13:30:15.348,87.52,578.0,0.72,0.69,-0.09,1.05,1.74,0.31
2024-12-06 13:30:15.357,85.05,567.0,0.72,0.69,-0.09,1.05,1.74,0.31
2024-12-06 13:30:15.378,90.9,573.0,0.72,0.68,-0.09,0.92,1.5,0.37
2024-12-06 13:30:15.381,83.03,549.0,0.72,0.67,-0.1,0.8,1.01,0.44
2024-12-06 13:30:15.419,84.82,552.0,0.73,0.67,-0.1,0.62,0.04,0.62
2024-12-06 13:30:15.422,88.88,600.0,0.73,0.67,-0.1,0.56,-0.03,0.74
2024-12-06 13:30:15.426,86.85,569.0,0.72,0.67,-0.1,0.5,-0.15,0.8
2024-12-06 13:30:15.431,84.82,566.0,0.72,0.67,-0.09,0.5,-0.15,0.8
2024-12-06 13:30:15.439,90.0,555.0,0.72,0.67,-0.09,0.37,-0.09,0.86
2024-12-06 13:30:15.447,86.62,560.0,0.72,0.67,-0.09,0.25,0.22,0.92
2024-12-06 13:30:15.454,87.75,552.0,0.72,0.67,-0.1,0.19,0.28,0.92
2024-12-06 13:30:15.467,88.42,551.0,0.72,0.67,-0.1,0.13,0.34,0.92
2024-12-06 13:30:15.475,90.0,599.0,0.72,0.67,-0.1,0.07,0.28,0.92
2024-12-06 13:30:15.479,83.7,553.0,0.72,0.67,-0.1,0.07,0.28,0.92
2024-12-06 13:30:15.488,89.55,558.0,0.72,0.67,-0.1,0.07,0.28,0.92
2024-12-06 13:30:15.519,86.62,559.0,0.72,0.67,-0.1,0.01,0.28,0.86
2024-12-06 13:30:15.521,90.67,555.0,0.72,0.67,-0.1,0.07,0.34,0.62
2024-12-06 13:30:15.524,85.05,588.0,0.72,0.67,-0.1,0.13,0.46,0.56
2024-12-06 13:30:15.536,86.62,556.0,0.72,0.67,-0.11,0.19,0.52,0.62
2024-12-06 13:30:15.541,85.95,566.0,0.72,0.67,-0.1,0.31,0.59,0.74
2024-12-06 13:30:15.548,88.42,569.0,0.72,0.67,-0.1,0.5,0.59,0.8
2024-12-06 13:30:15.564,90.0,562.0,0.72,0.67,-0.1,0.56,0.65,0.86
2024-12-06 13:30:15.569,90.22,567.0,0.72,0.67,-0.1,0.68,0.77,0.92
2024-12-06 13:30:15.575,85.5,571.0,0.72,0.67,-0.1,0.68,0.77,0.92
2024-12-06 13:30:15.584,87.52,567.0,0.72,0.67,-0.1,0.68,0.89,0.92
2024-12-06 13:30:15.587,83.7,555.0,0.72,0.67,-0.1,0.62,0.95,0.98
2024-12-06 13:30:15.595,87.3,565.0,0.72,0.67,-0.1,0.56,1.01,1.05
2024-12-06 13:30:15.608,89.55,569.0,0.72,0.67,-0.1,0.5,1.13,1.05
2024-12-06 13:30:15.633,87.75,552.0,0.72,0.67,-0.1,0.37,1.32,0.92
2024-12-06 13:30:15.636,84.6,598.0,0.72,0.67,-0.1,0.44,1.26,0.86
2024-12-06 13:30:15.641,84.15,571.0,0.72,0.67,-0.1,0.56,1.13,0.92
2024-12-06 13:30:15.649,90.22,570.0,0.73,0.67,-0.1,0.62,1.07,0.92
2024-12-06 13:30:15.661,90.22,560.0,0.73,0.67,-0.1,0.62,1.07,0.92
2024-12-06 13:30:15.664,83.7,565.0,0.72,0.67,-0.1,0.74,1.07,0.92
2024-12-06 13:30:15.672,83.7,591.0,0.73,0.67,-0.09,0.8,1.13,0.92
2024-12-06 13:30:15.680,87.97,577.0,0.73,0.67,-0.09,0.8,1.13,0.86
2024-12-06 13:30:15.688,88.42,565.0,0.73,0.67,-0.09,0.86,1.13,0.8
2024-12-06 13:30:15.696,87.52,560.0,0.72,0.67,-0.09,0.86,1.01,0.86
2024-12-06 13:30:15.704,89.77,561.0,0.72,0.67,-0.09,0.86,1.01,0.86
2024-12-06 13:30:15.714,85.05,569.0,0.72,0.67,-0.1,0.92,0.95,0.86
2024-12-06 13:30:15.720,83.92,559.0,0.72,0.67,-0.1,0.86,0.95,0.74
2024-12-06 13:30:15.728,87.75,545.0,0.72,0.67,-0.1,0.74,0.95,0.68
2024-12-06 13:30:15.765,84.82,558.0,0.72,0.67,-0.1,0.62,1.01,0.62
2024-12-06 13:30:15.768,85.28,558.0,0.72,0.67,-0.1,0.44,0.71,0.56
2024-12-06 13:30:15.774,84.82,556.0,0.72,0.67,-0.1,0.44,0.52,0.62
2024-12-06 13:30:15.784,89.1,559.0,0.72,0.67,-0.1,0.37,0.46,0.62
2024-12-06 13:30:15.792,86.85,572.0,0.72,0.67,-0.1,0.37,0.46,0.62
2024-12-06 13:30:15.798,86.85,560.0,0.72,0.66,-0.1,0.25,0.59,0.5
2024-12-06 13:30:15.806,83.7,551.0,0.72,0.66,-0.1,0.13,0.65,0.56
2024-12-06 13:30:15.813,84.82,558.0,0.72,0.67,-0.1,0.01,0.65,0.56
2024-12-06 13:30:15.821,88.88,558.0,0.72,0.67,-0.1,-0.05,0.59,0.62
2024-12-06 13:30:15.834,86.4,551.0,0.72,0.67,-0.1,0.07,0.46,0.68
2024-12-06 13:30:15.865,90.0,569.0,0.72,0.67,-0.1,0.19,0.4,0.68
2024-12-06 13:30:15.869,86.62,554.0,0.72,0.67,-0.1,0.07,0.59,0.5
2024-12-06 13:30:15.880,87.97,568.0,0.72,0.67,-0.1,0.07,0.59,0.5
2024-12-06 13:30:15.882,84.38,549.0,0.72,0.67,-0.1,-0.05,0.77,0.44
2024-12-06 13:30:15.893,87.07,568.0,0.72,0.67,-0.1,-0.24,0.83,0.5
2024-12-06 13:30:15.900,85.72,560.0,0.72,0.67,-0.1,-0.36,0.77,0.62
2024-12-06 13:30:15.906,87.3,556.0,0.72,0.67,-0.1,-0.3,0.59,0.68
2024-12-06 13:30:15.916,85.05,563.0,0.72,0.67,-0.1,-0.17,0.4,0.74
2024-12-06 13:30:15.922,85.28,562.0,0.72,0.67,-0.1,-0.17,0.4,0.74
2024-12-06 13:30:15.929,84.6,568.0,0.72,0.67,-0.1,-0.11,0.28,0.74
2024-12-06 13:30:15.937,90.22,554.0,0.72,0.67,-0.1,-0.17,0.34,0.68
2024-12-06 13:30:15.946,85.28,558.0,0.72,0.67,-0.1,-0.24,0.46,0.56
2024-12-06 13:30:15.953,84.6,613.0,0.72,0.67,-0.1,-0.24,0.59,0.5
2024-12-06 13:30:15.962,87.07,556.0,0.72,0.67,-0.1,-0.17,0.52,0.56
2024-12-06 13:30:15.996,90.0,562.0,0.72,0.67,-0.1,-0.17,0.52,0.56
2024-12-06 13:30:16.0,87.3,551.0,0.72,0.68,-0.1,-0.05,0.52,0.8
2024-12-06 13:30:16.7,85.5,559.0,0.72,0.68,-0.1,-0.05,16.15,0.74
2024-12-06 13:30:16.16,88.88,556.0,0.72,0.68,-0.1,-0.17,0.71,0.74
2024-12-06 13:30:16.28,86.17,560.0,0.72,0.68,-0.1,-0.24,0.89,0.74
2024-12-06 13:30:16.34,87.07,563.0,0.72,0.67,-0.1,-0.3,0.95,0.74
2024-12-06 13:30:16.39,90.45,560.0,0.72,0.68,-0.1,-0.24,0.89,0.68
2024-12-06 13:30:16.49,90.22,552.0,0.72,0.68,-0.1,-0.11,0.83,0.68
2024-12-06 13:30:16.81,85.5,554.0,0.72,0.68,-0.1,-0.11,0.77,0.74
2024-12-06 13:30:16.85,87.07,543.0,0.72,0.68,-0.1,0.25,0.95,0.62
2024-12-06 13:30:16.87,85.72,548.0,0.72,0.68,-0.1,0.37,0.95,0.56
2024-12-06 13:30:16.92,86.17,556.0,0.72,0.67,-0.1,0.37,0.89,0.62
2024-12-06 13:30:16.105,85.95,549.0,0.72,0.67,-0.1,0.44,0.89,0.62
2024-12-06 13:30:16.111,89.55,562.0,0.72,0.67,-0.1,0.37,0.83,0.68
2024-12-06 13:30:16.116,86.17,557.0,0.72,0.67,-0.1,0.37,0.77,0.8
2024-12-06 13:30:16.124,86.85,569.0,0.72,0.68,-0.1,0.37,0.71,0.86
2024-12-06 13:30:16.131,88.2,566.0,0.72,0.68,-0.1,0.44,0.77,0.8
2024-12-06 13:30:16.142,90.67,560.0,0.72,0.68,-0.1,0.44,0.77,0.74
2024-12-06 13:30:16.148,87.52,570.0,0.72,0.68,-0.1,0.44,0.83,0.74
2024-12-06 13:30:16.157,88.88,570.0,0.72,0.68,-0.1,0.5,0.95,0.68
2024-12-06 13:30:16.166,86.4,558.0,0.72,0.67,-0.1,0.56,1.07,0.62
2024-12-06 13:30:16.172,82.8,556.0,0.72,0.67,-0.1,0.56,1.13,0.62
2024-12-06 13:30:17.178,88.88,555.0,0.71,0.68,-0.09,0.25,0.71,0.56
2024-12-06 13:30:17.205,84.6,554.0,0.71,0.68,-0.09,0.31,0.89,0.31
2024-12-06 13:30:17.233,85.5,563.0,0.72,0.74,-0.08,-1.03,-2.47,1.35
2024-12-06 13:30:17.327,79.88,566.0,0.64,0.64,-0.12,-5.61,-6.01,28.82
2024-12-06 13:30:17.348,74.03,569.0,0.8,0.53,-0.06,-3.59,3.03,13.13
2024-12-06 13:30:17.371,73.57,579.0,0.79,0.57,-0.07,1.47,6.57,4.52
2024-12-06 13:30:17.400,67.72,536.0,0.76,0.6,-0.09,2.94,2.9,-1.58
2024-12-06 13:30:17.429,69.53,572.0,0.76,0.65,-0.1,2.27,-0.21,-3.23
2024-12-06 13:30:17.454,67.72,581.0,0.73,0.69,-0.11,2.08,0.65,-1.46
2024-12-06 13:30:17.483,66.6,580.0,0.73,0.7,-0.1,2.27,3.21,1.11
2024-12-06 13:30:17.514,65.92,573.0,0.74,0.65,-0.11,1.9,2.84,2.27
2024-12-06 13:30:17.548,67.05,575.0,0.77,0.63,-0.09,1.53,0.34,2.39
2024-12-06 13:30:17.564,65.92,571.0,0.76,0.65,-0.09,1.78,0.34,2.88
2024-12-06 13:30:17.592,64.35,566.0,0.75,0.65,-0.09,2.63,1.2,3.12
2024-12-06 13:30:17.629,62.77,574.0,0.75,0.64,-0.09,2.94,1.62,3.55
2024-12-06 13:30:17.650,61.65,567.0,0.75,0.64,-0.1,2.21,0.83,3.91
2024-12-06 13:30:17.675,58.95,579.0,0.74,0.63,-0.09,2.14,-0.09,3.0
2024-12-06 13:30:17.702,64.12,580.0,0.74,0.65,-0.09,2.33,0.65,2.82
2024-12-06 13:30:17.733,60.52,611.0,0.73,0.64,-0.1,2.57,1.32,2.88
2024-12-06 13:30:17.795,61.88,608.0,0.74,0.64,-0.1,2.21,1.01,2.02
2024-12-06 13:30:17.799,58.95,571.0,0.74,0.65,-0.1,1.84,0.28,1.66
2024-12-06 13:30:17.813,46.8,569.0,0.74,0.65,-0.1,1.96,0.52,1.05
2024-12-06 13:30:17.840,55.12,585.0,0.75,0.65,-0.1,2.69,1.26,1.53
2024-12-06 13:30:17.868,52.65,567.0,0.74,0.64,-0.11,2.94,1.26,1.05
2024-12-06 13:30:17.896,51.52,576.0,0.75,0.64,-0.1,2.63,1.07,0.13
2024-12-06 13:30:17.924,54.45,593.0,0.76,0.65,-0.11,2.75,0.95,1.17
2024-12-06 13:30:17.951,50.85,598.0,0.73,0.65,-0.11,2.88,0.77,1.41
2024-12-06 13:30:18.4,45.9,581.0,0.74,0.64,-0.11,2.39,1.26,0.62
2024-12-06 13:30:18.7,51.3,574.0,0.74,0.64,-0.11,1.96,0.71,1.29
2024-12-06 13:30:18.35,45.22,567.0,0.75,0.64,-0.1,1.53,1.01,0.74
2024-12-06 13:30:18.61,49.05,578.0,0.76,0.65,-0.1,1.47,1.13,2.02
2024-12-06 13:30:18.92,45.45,561.0,0.74,0.64,-0.12,1.35,1.2,3.06
2024-12-06 13:30:18.119,46.12,559.0,0.75,0.63,-0.11,0.92,0.89,1.78
2024-12-06 13:30:18.152,42.97,570.0,0.75,0.64,-0.11,1.05,1.44,1.41
2024-12-06 13:30:18.177,41.85,580.0,0.75,0.65,-0.12,1.53,1.93,2.14
2024-12-06 13:30:18.200,42.52,567.0,0.76,0.66,-0.11,0.92,1.81,2.88
2024-12-06 13:30:18.247,42.75,583.0,0.75,0.64,-0.1,0.25,0.89,2.39
2024-12-06 13:30:18.257,39.38,570.0,0.75,0.63,-0.1,0.62,1.07,2.14
2024-12-06 13:30:18.374,40.27,571.0,0.74,0.64,-0.1,0.86,1.07,1.05
2024-12-06 13:30:18.393,37.12,584.0,0.74,0.64,-0.1,0.31,1.2,0.31
2024-12-06 13:30:18.424,36.22,569.0,0.75,0.64,-0.11,0.13,1.38,0.8
2024-12-06 13:30:18.448,29.25,570.0,0.74,0.63,-0.12,-0.17,0.89,1.47
2024-12-06 13:30:18.475,29.47,558.0,0.75,0.63,-0.09,-0.17,1.26,0.07
2024-12-06 13:30:18.504,30.82,570.0,0.77,0.65,-0.11,0.5,2.29,0.98
2024-12-06 13:30:18.660,31.5,570.0,0.75,0.64,-0.11,1.11,2.05,2.21
2024-12-06 13:30:18.667,31.72,555.0,0.77,0.64,-0.12,1.84,1.56,1.29
2024-12-06 13:30:18.669,28.8,547.0,0.75,0.65,-0.12,2.75,1.56,3.24
2024-12-06 13:30:18.695,25.2,532.0,0.76,0.64,-0.11,2.27,1.93,2.39
2024-12-06 13:30:18.724,23.17,526.0,0.76,0.64,-0.11,2.08,1.26,3.61
2024-12-06 13:30:18.753,18.23,530.0,0.75,0.63,-0.1,2.33,1.81,3.67
2024-12-06 13:30:18.778,22.5,516.0,0.76,0.63,-0.1,2.51,2.23,3.18
2024-12-06 13:30:18.805,16.2,523.0,0.73,0.62,-0.1,2.45,2.11,1.53
2024-12-06 13:30:18.833,18.0,510.0,0.75,0.62,-0.1,1.53,1.81,0.25
2024-12-06 13:30:18.861,18.9,532.0,0.76,0.64,-0.12,0.98,2.17,1.9
2024-12-06 13:30:18.907,19.57,540.0,0.78,0.64,-0.1,0.44,2.66,4.46
2024-12-06 13:30:18.915,19.12,530.0,0.82,0.67,-0.12,0.74,1.5,8.8
2024-12-06 13:30:18.944,11.25,533.0,0.79,0.65,-0.1,0.25,1.68,10.08
2024-12-06 13:30:18.978,10.35,520.0,0.78,0.63,-0.1,0.62,0.22,9.83
2024-12-06 13:30:19.1,14.85,528.0,0.75,0.6,-0.09,1.11,0.46,8.92
2024-12-06 13:30:19.26,13.95,513.0,0.75,0.59,-0.09,0.8,1.87,7.64
2024-12-06 13:30:19.54,11.7,519.0,0.77,0.6,-0.11,0.44,2.23,7.33
2024-12-06 13:30:19.83,12.15,508.0,0.8,0.62,-0.11,0.37,1.74,9.41
2024-12-06 13:30:19.135,10.57,511.0,0.8,0.62,-0.12,0.74,0.59,10.75
2024-12-06 13:30:19.138,6.52,517.0,0.79,0.61,-0.1,0.98,-0.09,10.2
2024-12-06 13:30:19.165,4.05,528.0,0.79,0.61,-0.1,1.66,0.22,10.51
2024-12-06 13:30:19.193,6.3,504.0,0.79,0.6,-0.09,1.78,0.65,10.81
2024-12-06 13:30:19.220,7.42,504.0,0.78,0.58,-0.1,1.9,1.01,9.83
2024-12-06 13:30:19.248,5.62,535.0,0.79,0.58,-0.11,1.6,0.34,9.53
2024-12-06 13:30:19.276,0.9,513.0,0.8,0.58,-0.11,2.02,0.46,9.65
2024-12-06 13:30:19.303,-1.12,521.0,0.8,0.58,-0.12,2.51,1.81,9.71
2024-12-06 13:30:20.613,3.82,517.0,0.81,0.57,-0.11,0.31,0.4,0.8
2024-12-06 13:30:20.619,0.45,512.0,0.81,0.57,-0.12,0.31,0.22,0.92
2024-12-06 13:30:20.627,0.22,528.0,0.81,0.57,-0.12,0.44,0.1,0.98
2024-12-06 13:30:20.638,3.38,514.0,0.81,0.57,-0.12,0.5,0.04,0.98
2024-12-06 13:30:20.642,0.0,517.0,0.81,0.57,-0.12,0.62,-0.03,0.98
2024-12-06 13:30:20.652,-2.02,516.0,0.81,0.56,-0.12,0.62,-0.03,0.98
2024-12-06 13:30:20.661,3.15,508.0,0.8,0.56,-0.12,0.68,-0.03,0.92
2024-12-06 13:30:20.665,-0.67,509.0,0.8,0.56,-0.12,0.68,0.04,0.8
2024-12-06 13:30:20.676,-0.22,512.0,0.8,0.56,-0.11,0.62,0.04,0.8
2024-12-06 13:30:20.680,-6.97,516.0,0.8,0.56,-0.11,0.5,0.16,0.74
2024-12-06 13:30:20.691,-0.22,524.0,0.8,0.56,-0.11,0.5,0.34,0.62
2024-12-06 13:30:20.725,-3.15,519.0,0.8,0.56,-0.11,0.37,0.34,0.62
2024-12-06 13:30:20.729,-0.22,512.0,0.81,0.56,-0.12,0.31,0.77,0.68
2024-12-06 13:30:20.734,-1.57,533.0,0.81,0.56,-0.13,0.44,0.77,0.68
2024-12-06 13:30:20.746,0.67,518.0,0.81,0.56,-0.13,0.56,0.77,0.62
2024-12-06 13:30:20.749,-3.38,530.0,0.81,0.55,-0.13,0.74,0.71,0.56
2024-12-06 13:30:20.759,0.67,531.0,0.81,0.55,-0.12,0.86,0.65,0.44
2024-12-06 13:30:20.766,-1.57,530.0,0.81,0.55,-0.12,0.86,0.52,0.31
2024-12-06 13:30:20.772,1.8,515.0,0.81,0.54,-0.12,0.86,0.52,0.31
2024-12-06 13:30:20.781,1.8,535.0,0.8,0.54,-0.12,0.74,0.52,0.13
2024-12-06 13:30:20.792,0.0,526.0,0.8,0.54,-0.12,0.74,0.52,-0.05
2024-12-06 13:30:20.796,0.0,522.0,0.8,0.54,-0.12,0.68,0.59,-0.17
2024-12-06 13:30:20.807,1.12,526.0,0.8,0.54,-0.12,0.56,0.83,-0.3
2024-12-06 13:30:20.810,-1.12,517.0,0.79,0.54,-0.12,0.56,0.83,-0.42
2024-12-06 13:30:20.820,0.0,528.0,0.79,0.54,-0.12,0.5,0.95,-0.42
2024-12-06 13:30:20.830,3.6,533.0,0.79,0.55,-0.12,0.44,1.07,-0.48
2024-12-06 13:30:20.836,-1.12,567.0,0.79,0.56,-0.12,0.44,1.44,-0.54
2024-12-06 13:30:20.841,1.12,537.0,0.79,0.56,-0.12,0.44,1.81,-0.42
2024-12-06 13:30:20.849,0.22,536.0,0.8,0.57,-0.12,0.44,1.74,-0.11
2024-12-06 13:30:20.858,1.35,535.0,0.8,0.58,-0.12,0.44,1.74,-0.11
2024-12-06 13:30:20.869,-3.38,529.0,0.8,0.58,-0.12,0.44,1.93,0.19
2024-12-06 13:30:20.874,0.67,527.0,0.8,0.59,-0.12,0.37,2.23,0.44
2024-12-06 13:30:20.886,-0.67,518.0,0.8,0.59,-0.12,0.31,2.17,0.68
2024-12-06 13:30:20.893,3.15,526.0,0.81,0.59,-0.11,0.25,2.11,0.86
2024-12-06 13:30:20.897,-6.75,540.0,0.81,0.59,-0.11,0.07,1.99,1.05
2024-12-06 13:30:20.909,-4.5,528.0,0.81,0.59,-0.11,0.07,1.99,1.05
2024-12-06 13:30:20.929,-3.38,537.0,0.81,0.59,-0.11,-0.11,1.74,1.23
2024-12-06 13:30:20.932,-0.22,535.0,0.81,0.59,-0.11,-0.17,1.32,1.66
2024-12-06 13:30:20.936,-1.57,525.0,0.81,0.59,-0.11,-0.17,1.01,1.78
2024-12-06 13:30:20.942,-1.8,533.0,0.8,0.59,-0.11,-0.17,1.01,1.78
2024-12-06 13:30:20.951,0.9,537.0,0.8,0.58,-0.11,-0.05,0.89,1.72
2024-12-06 13:30:20.958,2.47,507.0,0.8,0.58,-0.11,0.07,0.83,1.6
2024-12-06 13:30:20.966,0.0,517.0,0.8,0.58,-0.1,0.13,0.71,1.47
2024-12-06 13:30:20.974,0.45,518.0,0.8,0.58,-0.1,0.25,0.71,1.29
2024-12-06 13:30:21.3,-1.35,510.0,0.81,0.57,-0.1,0.5,0.4,0.98
2024-12-06 13:30:21.7,-3.6,529.0,0.81,0.57,-0.1,0.56,0.16,0.86
2024-12-06 13:30:21.12,0.0,532.0,0.81,0.57,-0.11,0.5,-0.03,0.8
2024-12-06 13:30:21.19,1.12,532.0,0.81,0.57,-0.11,0.5,-0.15,0.8
2024-12-06 13:30:21.28,3.38,517.0,0.81,0.57,-0.11,0.5,-0.15,0.8
2024-12-06 13:30:21.35,-0.67,521.0,0.81,0.57,-0.11,0.44,-0.21,0.68
2024-12-06 13:30:21.45,2.25,526.0,0.81,0.57,-0.11,0.31,-0.27,0.74
2024-12-06 13:30:21.54,-0.9,528.0,0.81,0.57,-0.11,0.31,-0.33,0.74
2024-12-06 13:30:21.67,0.22,521.0,0.81,0.57,-0.12,0.25,-0.21,0.8
2024-12-06 13:30:21.70,2.47,554.0,0.81,0.57,-0.12,0.31,-0.27,0.92
2024-12-06 13:30:21.76,1.12,524.0,0.81,0.57,-0.12,0.31,-0.27,0.92
2024-12-06 13:30:21.82,3.38,502.0,0.81,0.57,-0.12,0.37,-0.33,1.11
2024-12-06 13:30:21.91,2.7,512.0,0.81,0.57,-0.12,0.5,-0.27,1.23
2024-12-06 13:30:21.98,-0.45,519.0,0.81,0.56,-0.12,0.56,-0.27,1.23
2024-12-06 13:30:21.106,0.67,516.0,0.81,0.56,-0.12,0.62,-0.39,1.11
2024-12-06 13:30:21.114,-2.02,513.0,0.8,0.56,-0.12,0.62,-0.39,0.8
2024-12-06 13:30:21.120,1.12,515.0,0.8,0.56,-0.12,0.62,-0.39,0.8
2024-12-06 13:30:21.128,-0.45,530.0,0.8,0.56,-0.12,0.62,-0.45,0.5
2024-12-06 13:30:21.136,2.92,514.0,0.81,0.56,-0.12,0.62,-0.51,0.31
2024-12-06 13:30:21.174,-1.12,515.0,0.8,0.56,-0.12,0.92,-0.15,-0.05
2024-12-06 13:30:21.176,1.8,519.0,0.8,0.56,-0.12,1.11,0.04,-0.05
2024-12-06 13:30:21.183,5.85,518.0,0.8,0.56,-0.12,1.35,0.1,0.07
2024-12-06 13:30:21.189,1.12,516.0,0.8,0.56,-0.12,1.41,0.28,0.07
2024-12-06 13:30:21.202,0.0,507.0,0.8,0.56,-0.12,1.41,0.28,0.07
2024-12-06 13:30:21.205,0.67,510.0,0.79,0.56,-0.12,1.41,0.46,0.01
2024-12-06 13:30:21.221,0.45,524.0,0.79,0.56,-0.12,1.29,0.77,-0.24
2024-12-06 13:30:21.223,-0.67,530.0,0.79,0.56,-0.12,1.05,1.07,-0.36
2024-12-06 13:30:21.227,0.45,540.0,0.79,0.56,-0.12,0.98,1.13,-0.3
2024-12-06 13:30:21.238,-0.45,525.0,0.8,0.56,-0.12,0.98,1.2,-0.11
2024-12-06 13:30:21.255,0.0,520.0,0.8,0.57,-0.12,0.92,1.2,-0.11
2024-12-06 13:30:21.258,-0.9,532.0,0.81,0.57,-0.12,1.05,1.01,0.25
2024-12-06 13:30:21.263,1.35,550.0,0.81,0.57,-0.12,1.17,0.95,0.56
2024-12-06 13:30:21.267,-0.67,516.0,0.81,0.57,-0.12,1.23,0.89,0.74
2024-12-06 13:30:22.326,3.38,523.0,0.8,0.57,-0.12,0.44,0.52,1.05
2024-12-06 13:30:22.329,-1.35,501.0,0.67,0.51,-0.1,-0.11,-2.71,-10.67
2024-12-06 13:30:22.357,4.72,515.0,0.75,0.56,-0.09,-2.13,-3.44,-14.15
2024-12-06 13:30:22.385,3.6,518.0,0.77,0.58,-0.17,1.23,1.5,-13.11
2024-12-06 13:30:22.412,11.25,529.0,0.85,0.63,-0.13,1.84,3.94,-8.23
2024-12-06 13:30:22.440,9.22,519.0,0.83,0.62,-0.16,2.02,1.93,-5.85
2024-12-06 13:30:22.468,10.12,521.0,0.81,0.62,-0.13,0.98,-0.57,-5.97
2024-12-06 13:30:22.573,9.9,510.0,0.77,0.61,-0.12,0.25,-0.94,-4.69
2024-12-06 13:30:22.584,7.42,518.0,0.75,0.59,-0.13,2.27,4.0,-4.87
2024-12-06 13:30:22.592,14.17,517.0,0.76,0.59,-0.13,2.27,3.64,-6.34
2024-12-06 13:30:22.615,16.42,514.0,0.78,0.61,-0.13,1.23,2.17,-7.99
2024-12-06 13:30:22.639,14.4,557.0,0.78,0.62,-0.13,0.68,0.95,-6.95
2024-12-06 13:30:22.662,15.07,506.0,0.77,0.62,-0.12,0.31,0.59,-5.73
2024-12-06 13:30:22.691,19.57,512.0,0.76,0.62,-0.12,-0.11,1.87,-4.63
2024-12-06 13:30:22.718,19.12,527.0,0.77,0.62,-0.12,-0.36,2.36,-3.47
2024-12-06 13:30:22.757,20.25,523.0,0.76,0.62,-0.12,-0.54,1.5,-4.2
2024-12-06 13:30:22.773,19.57,509.0,0.77,0.63,-0.11,-0.91,0.83,-5.18
2024-12-06 13:30:22.803,22.05,508.0,0.74,0.62,-0.12,-0.97,0.22,-6.1
2024-12-06 13:30:22.833,21.15,523.0,0.76,0.64,-0.11,-0.97,0.59,-6.52
2024-12-06 13:30:22.858,24.07,507.0,0.75,0.65,-0.12,-0.6,1.13,-4.14
2024-12-06 13:30:22.883,27.22,529.0,0.76,0.65,-0.12,-0.6,1.87,-3.23
2024-12-06 13:30:22.911,22.27,517.0,0.77,0.66,-0.13,-0.72,0.77,-1.4
2024-12-06 13:30:22.940,23.4,520.0,0.75,0.65,-0.12,-0.66,-0.45,-2.31
2024-12-06 13:30:22.979,25.65,527.0,0.76,0.65,-0.11,0.25,-0.33,-2.56
2024-12-06 13:30:22.996,30.15,524.0,0.74,0.65,-0.12,0.98,0.22,-1.27
2024-12-06 13:30:23.21,31.27,528.0,0.73,0.64,-0.12,1.05,1.13,-1.4
2024-12-06 13:30:23.48,29.25,532.0,0.74,0.64,-0.12,0.8,0.22,-1.33
2024-12-06 13:30:23.81,28.35,521.0,0.75,0.65,-0.12,0.31,-0.27,-1.76
2024-12-06 13:30:23.107,30.38,532.0,0.74,0.65,-0.12,0.5,-0.21,-2.19
2024-12-06 13:30:23.132,34.42,521.0,0.75,0.66,-0.11,0.19,-0.39,-1.88
2024-12-06 13:30:23.160,36.22,533.0,0.72,0.65,-0.13,-0.24,-0.39,-1.64
2024-12-06 13:30:23.202,37.12,520.0,0.72,0.64,-0.12,-0.05,-0.76,-3.65
2024-12-06 13:30:23.223,33.97,505.0,0.73,0.65,-0.13,-0.11,-1.06,-3.29
2024-12-06 13:30:23.242,35.33,533.0,0.72,0.65,-0.13,-0.11,0.22,-3.9
2024-12-06 13:30:23.270,40.5,521.0,0.73,0.65,-0.13,-0.05,0.28,-3.65
2024-12-06 13:30:23.301,40.72,528.0,0.73,0.65,-0.13,0.01,0.34,-3.23
2024-12-06 13:30:23.327,42.75,517.0,0.73,0.65,-0.12,0.31,0.71,-4.08
2024-12-06 13:30:23.353,40.5,535.0,0.73,0.66,-0.14,0.19,0.71,-3.23
2024-12-06 13:30:23.383,41.62,541.0,0.72,0.66,-0.13,0.13,0.16,-2.92
2024-12-06 13:30:23.423,40.95,527.0,0.73,0.67,-0.12,-0.36,0.89,-2.98
2024-12-06 13:30:23.436,41.85,539.0,0.73,0.66,-0.13,0.07,0.65,-2.8
2024-12-06 13:30:23.464,46.57,539.0,0.72,0.66,-0.13,0.37,0.34,-3.35
2024-12-06 13:30:23.493,48.82,531.0,0.73,0.68,-0.13,0.13,1.5,-1.21
2024-12-06 13:30:23.519,49.72,595.0,0.72,0.67,-0.13,0.31,0.77,-0.91
2024-12-06 13:30:23.623,50.4,535.0,0.71,0.67,-0.12,-0.3,1.01,-1.76
2024-12-06 13:30:23.657,47.47,531.0,0.71,0.67,-0.11,0.13,1.01,-2.62
2024-12-06 13:30:23.672,54.22,534.0,0.71,0.68,-0.12,-0.66,1.38,-0.72
2024-12-06 13:30:23.684,52.88,533.0,0.73,0.68,-0.12,-1.15,0.34,-1.27
2024-12-06 13:30:23.712,57.38,550.0,0.71,0.67,-0.12,-1.33,-0.03,-1.33
2024-12-06 13:30:23.744,56.92,545.0,0.71,0.68,-0.12,-1.4,0.28,-1.58
2024-12-06 13:30:23.767,55.8,555.0,0.71,0.68,-0.11,-1.4,0.4,-0.79
2024-12-06 13:30:23.794,57.15,544.0,0.71,0.68,-0.12,-1.52,1.01,-0.91
2024-12-06 13:30:23.822,56.25,545.0,0.71,0.67,-0.12,-1.09,0.16,-1.33
2024-12-06 13:30:23.855,61.2,547.0,0.72,0.68,-0.11,-1.03,-0.82,-1.27
2024-12-06 13:30:23.881,62.55,549.0,0.7,0.69,-0.12,-1.21,0.34,-1.33
2024-12-06 13:30:23.905,62.32,547.0,0.71,0.69,-0.12,-1.03,0.28,-1.27
2024-12-06 13:30:23.937,55.57,592.0,0.71,0.69,-0.13,-1.4,-0.21,0.01
2024-12-06 13:30:23.964,60.75,536.0,0.71,0.69,-0.13,-1.4,-0.94,0.92
2024-12-06 13:30:23.988,60.97,568.0,0.71,0.68,-0.1,-1.09,-1.06,0.01
2024-12-06 13:30:24.16,62.77,567.0,0.7,0.69,-0.11,-1.09,0.28,-0.42
2024-12-06 13:30:24.43,66.38,573.0,0.71,0.68,-0.11,-0.54,0.4,-1.21
2024-12-06 13:30:24.72,67.28,568.0,0.7,0.69,-0.12,-1.58,0.34,-0.72
2024-12-06 13:30:24.102,67.72,549.0,0.7,0.68,-0.12,-1.88,-0.64,-1.15
2024-12-06 13:30:24.128,69.97,585.0,0.7,0.71,-0.1,-2.43,-1.18,-1.03
2024-12-06 13:30:24.163,74.25,554.0,0.69,0.7,-0.11,-2.37,0.04,-1.15
2024-12-06 13:30:24.182,69.97,574.0,0.7,0.69,-0.12,-1.88,0.1,-1.21
2024-12-06 13:30:24.209,74.03,577.0,0.71,0.69,-0.12,-2.07,-0.09,-0.11
2024-12-06 13:30:24.241,73.35,544.0,0.69,0.69,-0.13,-2.01,-0.27,-0.24
2024-12-06 13:30:24.271,75.38,570.0,0.71,0.7,-0.11,-1.82,-0.57,0.07
2024-12-06 13:30:24.292,76.05,575.0,0.7,0.7,-0.11,-2.19,-0.21,1.17
2024-12-06 13:30:24.334,81.45,558.0,0.71,0.69,-0.11,-2.13,-0.88,0.68
2024-12-06 13:30:24.349,79.42,573.0,0.71,0.7,-0.11,-2.25,-1.06,0.92
2024-12-06 13:30:24.376,82.8,591.0,0.7,0.71,-0.11,-2.31,-1.18,2.39
2024-12-06 13:30:24.403,74.92,577.0,0.69,0.69,-0.11,-2.98,-0.82,2.14
2024-12-06 13:30:24.447,80.32,573.0,0.69,0.69,-0.11,-4.02,-1.12,2.02
2024-12-06 13:30:24.472,80.32,580.0,0.7,0.68,-0.11,-4.2,-1.49,1.47
2024-12-06 13:30:24.486,79.88,559.0,0.71,0.68,-0.1,-3.17,-1.8,1.05
2024-12-06 13:30:24.514,83.92,626.0,0.71,0.71,-0.11,-2.43,-0.45,3.18
2024-12-06 13:30:24.556,81.9,637.0,0.7,0.7,-0.12,-1.82,0.16,3.61
2024-12-06 13:30:24.569,87.3,586.0,0.72,0.7,-0.11,-1.82,-1.61,4.22
2024-12-06 13:30:25.878,91.57,578.0,0.71,0.68,-0.1,0.62,0.89,0.62
2024-12-06 13:30:25.889,79.65,569.0,0.71,0.69,-0.1,0.5,0.89,0.62
2024-12-06 13:30:25.922,85.5,575.0,0.71,0.69,-0.1,0.31,0.71,0.56
2024-12-06 13:30:25.926,88.42,559.0,0.71,0.69,-0.1,0.31,0.52,0.68
2024-12-06 13:30:25.929,86.4,573.0,0.71,0.69,-0.1,0.25,0.4,0.74
2024-12-06 13:30:25.939,89.32,568.0,0.71,0.69,-0.1,0.19,0.28,0.74
2024-12-06 13:30:25.944,90.0,555.0,0.71,0.69,-0.1,0.19,0.28,0.74
2024-12-06 13:30:25.955,87.3,562.0,0.71,0.69,-0.1,0.13,0.22,0.74
2024-12-06 13:30:25.961,90.67,566.0,0.71,0.69,-0.1,0.07,0.28,0.74
2024-12-06 13:30:25.968,89.55,569.0,0.71,0.69,-0.1,0.13,0.34,0.68
2024-12-06 13:30:25.976,88.2,570.0,0.71,0.69,-0.1,0.19,0.34,0.74
2024-12-06 13:30:25.994,90.9,565.0,0.71,0.69,-0.1,0.31,0.34,0.8
2024-12-06 13:30:25.999,89.32,604.0,0.71,0.69,-0.1,0.31,0.34,0.8
2024-12-06 13:30:26.9,84.6,571.0,0.71,0.69,-0.1,0.44,0.34,0.8
2024-12-06 13:30:26.13,89.1,599.0,0.71,0.69,-0.1,0.56,0.34,0.86
2024-12-06 13:30:26.22,86.17,558.0,0.7,0.69,-0.1,0.68,0.46,0.68
2024-12-06 13:30:26.24,87.07,577.0,0.7,0.69,-0.1,0.68,0.59,0.56
2024-12-06 13:30:26.29,86.62,579.0,0.7,0.69,-0.1,0.68,0.59,0.56
2024-12-06 13:30:26.38,90.45,574.0,0.7,0.69,-0.1,0.62,0.65,0.37
2024-12-06 13:30:26.46,83.03,567.0,0.71,0.69,-0.1,0.62,0.71,0.13
2024-12-06 13:30:26.64,90.45,577.0,0.71,0.69,-0.1,0.62,0.71,0.07
2024-12-06 13:30:26.71,84.15,604.0,0.71,0.69,-0.1,0.68,0.65,0.13
2024-12-06 13:30:26.76,87.97,563.0,0.71,0.69,-0.1,0.8,0.59,0.31
2024-12-06 13:30:26.79,90.45,537.0,0.71,0.69,-0.11,0.8,0.59,0.31
2024-12-06 13:30:26.87,87.3,578.0,0.71,0.69,-0.11,0.92,0.52,0.44
2024-12-06 13:30:26.96,86.85,559.0,0.71,0.69,-0.11,0.98,0.52,0.56
2024-12-06 13:30:26.99,89.55,564.0,0.7,0.69,-0.11,1.05,0.65,0.62
2024-12-06 13:30:26.107,89.1,567.0,0.7,0.69,-0.11,1.05,0.71,0.74
2024-12-06 13:30:26.141,90.9,576.0,0.7,0.69,-0.1,0.98,0.71,0.8
2024-12-06 13:30:26.147,87.3,555.0,0.71,0.69,-0.1,0.92,0.46,0.98
2024-12-06 13:30:26.157,89.77,568.0,0.71,0.69,-0.1,0.86,0.22,1.05
2024-12-06 13:30:26.159,82.12,577.0,0.71,0.69,-0.11,0.68,0.16,0.98
2024-12-06 13:30:26.161,84.38,568.0,0.7,0.69,-0.1,0.68,0.16,0.98
2024-12-06 13:30:26.175,85.72,571.0,0.7,0.69,-0.1,0.5,0.22,0.92
2024-12-06 13:30:26.178,89.77,565.0,0.7,0.69,-0.1,0.37,0.34,0.92
2024-12-06 13:30:26.183,88.2,572.0,0.7,0.69,-0.1,0.31,0.46,0.98
2024-12-06 13:30:26.191,87.75,568.0,0.71,0.69,-0.1,0.37,0.59,1.11
2024-12-06 13:30:26.198,86.17,561.0,0.71,0.69,-0.1,0.37,0.59,1.11
2024-12-06 13:30:26.207,90.22,576.0,0.71,0.69,-0.1,0.44,0.65,1.29
2024-12-06 13:30:26.217,88.42,570.0,0.71,0.69,-0.1,0.62,0.59,1.47
2024-12-06 13:30:26.222,87.3,553.0,0.71,0.69,-0.1,0.8,0.52,1.53
2024-12-06 13:30:26.231,88.42,565.0,0.71,0.69,-0.1,0.92,0.52,1.41
2024-12-06 13:30:26.244,88.2,572.0,0.71,0.69,-0.1,0.98,0.52,1.23
2024-12-06 13:30:26.249,86.85,562.0,0.71,0.68,-0.1,0.98,0.52,1.23
2024-12-06 13:30:26.258,87.97,577.0,0.7,0.68,-0.11,0.98,0.59,0.98
2024-12-06 13:30:26.264,90.22,571.0,0.7,0.68,-0.11,0.92,0.59,0.8
2024-12-06 13:30:26.270,85.72,554.0,0.7,0.69,-0.11,0.92,0.65,0.62
2024-12-06 13:30:26.282,87.97,570.0,0.7,0.68,-0.11,0.92,0.65,0.5
2024-12-06 13:30:26.289,87.97,576.0,0.7,0.68,-0.11,0.98,0.59,0.44
2024-12-06 13:30:26.303,87.52,558.0,0.7,0.68,-0.11,0.98,0.52,0.37
2024-12-06 13:30:26.305,87.75,573.0,0.7,0.68,-0.11,0.98,0.52,0.37
2024-12-06 13:30:26.313,85.5,573.0,0.7,0.68,-0.1,0.92,0.59,0.31
2024-12-06 13:30:26.320,89.55,564.0,0.7,0.68,-0.1,0.86,0.65,0.31
2024-12-06 13:30:26.325,88.42,567.0,0.7,0.68,-0.1,0.74,0.77,0.19
2024-12-06 13:30:26.333,88.2,556.0,0.7,0.68,-0.1,0.68,0.77,0.19
2024-12-06 13:30:26.365,87.07,579.0,0.7,0.68,-0.1,0.68,0.77,0.19
2024-12-06 13:30:26.372,89.77,563.0,0.7,0.69,-0.1,0.68,0.65,0.01
2024-12-06 13:30:26.377,89.32,553.0,0.7,0.69,-0.1,0.68,0.59,-0.11
2024-12-06 13:30:26.379,87.07,561.0,0.7,0.69,-0.1,0.62,0.59,-0.24
2024-12-06 13:30:26.392,84.6,574.0,0.7,0.69,-0.1,0.62,0.59,-0.24
2024-12-06 13:30:26.397,84.38,562.0,0.7,0.69,-0.1,0.56,0.46,-0.3
2024-12-06 13:30:26.403,90.9,562.0,0.7,0.69,-0.1,0.56,0.46,-0.42
2024-12-06 13:30:26.414,89.55,577.0,0.71,0.69,-0.1,0.62,0.46,-0.36
2024-12-06 13:30:26.422,90.0,552.0,0.71,0.69,-0.1,0.62,0.52,-0.24
2024-12-06 13:30:26.426,84.6,575.0,0.71,0.69,-0.1,0.62,0.52,-0.05
2024-12-06 13:30:26.434,84.82,578.0,0.71,0.7,-0.1,0.62,0.52,-0.05
2024-12-06 13:30:26.442,89.55,576.0,0.71,0.7,-0.11,0.68,0.52,0.25
2024-12-06 13:30:26.449,86.85,573.0,0.71,0.7,-0.11,0.8,0.46,0.5
2024-12-06 13:30:26.457,87.52,559.0,0.7,0.7,-0.11,0.98,0.4,0.68
2024-12-06 13:30:26.465,87.52,560.0,0.7,0.7,-0.11,0.98,0.34,0.8
2024-12-06 13:30:26.479,89.55,570.0,0.7,0.7,-0.11,0.92,0.4,0.68
2024-12-06 13:30:26.487,90.22,586.0,0.7,0.7,-0.1,0.92,0.4,0.68
2024-12-06 13:30:26.489,87.75,558.0,0.7,0.7,-0.1,0.8,0.4,0.62
2024-12-06 13:30:26.498,88.65,560.0,0.7,0.7,-0.11,0.74,0.28,0.56
2024-12-06 13:30:26.505,88.88,553.0,0.71,0.69,-0.11,0.8,0.1,0.5
2024-12-06 13:30:26.514,88.2,575.0,0.71,0.69,-0.11,0.86,-0.03,0.56
2024-12-06 13:30:26.525,87.52,558.0,0.71,0.69,-0.11,1.05,-0.15,0.62
2024-12-06 13:30:26.530,81.67,607.0,0.71,0.69,-0.11,1.05,-0.15,0.62
2024-12-06 13:30:26.537,86.4,559.0,0.7,0.7,-0.11,1.11,-0.09,0.68
2024-12-06 13:30:26.544,90.0,559.0,0.7,0.7,-0.11,1.23,0.04,0.74
2024-12-06 13:30:26.552,88.2,554.0,0.7,0.7,-0.11,1.29,0.22,0.86
2024-12-06 13:30:26.559,89.32,576.0,0.7,0.7,-0.11,1.47,0.34,0.98
2024-12-06 13:30:27.568,87.75,564.0,0.69,0.69,-0.11,0.92,0.77,0.37
2024-12-06 13:30:27.594,84.82,565.0,0.7,0.72,-0.08,0.68,0.4,0.37
2024-12-06 13:30:27.622,83.47,569.0,0.7,0.85,-0.08,-3.35,-2.1,6.29
2024-12-06 13:30:27.649,74.7,568.0,0.69,0.76,-0.17,-5.0,-1.31,12.46
2024-12-06 13:30:27.677,78.97,550.0,0.7,0.67,-0.13,-5.0,2.48,12.22
2024-12-06 13:30:27.818,73.57,555.0,0.72,0.62,-0.12,-4.45,-4.24,11.85
2024-12-06 13:30:27.823,71.1,549.0,0.75,0.68,-0.11,5.32,4.0,-0.17
2024-12-06 13:30:27.842,68.4,549.0,0.72,0.68,-0.13,4.59,1.74,-0.85
2024-12-06 13:30:27.870,71.1,552.0,0.7,0.67,-0.11,4.46,1.44,-0.91
2024-12-06 13:30:27.901,67.28,544.0,0.69,0.67,-0.11,4.4,2.29,-0.54
2024-12-06 13:30:27.953,64.12,542.0,0.7,0.66,-0.09,3.98,4.67,-1.09
2024-12-06 13:30:27.958,67.05,548.0,0.72,0.67,-0.1,3.18,3.21,-1.33
2024-12-06 13:30:27.982,64.57,536.0,0.71,0.66,-0.11,1.9,2.11,-1.4
2024-12-06 13:30:28.8,61.2,529.0,0.71,0.67,-0.09,0.62,1.13,-2.74
2024-12-06 13:30:28.36,61.2,537.0,0.69,0.68,-0.1,0.62,1.5,-2.56
2024-12-06 13:30:28.64,62.32,542.0,0.7,0.67,-0.09,0.44,1.93,-4.69
2024-12-06 13:30:28.91,58.05,554.0,0.73,0.7,-0.11,0.44,2.11,-3.53
2024-12-06 13:30:28.119,60.07,539.0,0.7,0.69,-0.13,0.44,1.56,-1.46
2024-12-06 13:30:28.177,57.6,554.0,0.71,0.7,-0.11,-0.79,1.07,-2.13
2024-12-06 13:30:28.182,58.05,535.0,0.72,0.7,-0.11,-0.91,0.71,-0.54
2024-12-06 13:30:28.202,56.02,548.0,0.71,0.69,-0.11,0.07,0.65,-0.66
2024-12-06 13:30:28.230,54.22,549.0,0.71,0.68,-0.1,0.56,1.56,-0.72
2024-12-06 13:30:28.258,55.12,529.0,0.71,0.69,-0.12,1.47,1.2,0.68
2024-12-06 13:30:28.285,50.85,535.0,0.7,0.69,-0.11,1.53,1.32,0.25
2024-12-06 13:30:28.312,55.12,532.0,0.71,0.71,-0.1,1.41,1.62,1.05
2024-12-06 13:30:28.340,50.85,535.0,0.69,0.69,-0.1,1.35,1.44,0.98
2024-12-06 13:30:28.379,43.2,534.0,0.7,0.69,-0.1,1.35,1.07,-0.6
2024-12-06 13:30:28.397,48.6,528.0,0.7,0.7,-0.11,1.6,1.07,-1.21
2024-12-06 13:30:28.422,50.4,542.0,0.69,0.69,-0.1,1.29,1.13,-1.94
2024-12-06 13:30:28.449,39.15,538.0,0.69,0.69,-0.11,1.6,0.89,-2.74
2024-12-06 13:30:28.480,46.35,528.0,0.68,0.69,-0.1,1.29,1.2,-2.86
2024-12-06 13:30:28.507,45.9,542.0,0.68,0.69,-0.1,0.74,1.5,-4.33
2024-12-06 13:30:28.533,43.88,542.0,0.7,0.74,-0.1,0.68,2.36,-2.68
2024-12-06 13:30:28.561,46.35,537.0,0.7,0.72,-0.12,0.25,2.05,-1.15
2024-12-06 13:30:28.588,43.88,519.0,0.69,0.7,-0.11,-0.11,1.2,-2.25
2024-12-06 13:30:28.622,38.92,531.0,0.7,0.7,-0.11,0.98,0.77,-1.46
2024-12-06 13:30:28.644,42.08,528.0,0.68,0.69,-0.1,1.35,1.56,-2.13
2024-12-06 13:30:28.673,35.33,518.0,0.68,0.7,-0.1,0.86,2.11,-2.43
2024-12-06 13:30:28.702,38.25,525.0,0.68,0.7,-0.11,0.44,2.84,-2.19
2024-12-06 13:30:28.727,39.15,529.0,0.69,0.7,-0.09,-0.24,1.93,-3.1
2024-12-06 13:30:28.754,37.8,526.0,0.71,0.72,-0.11,-0.48,1.01,-1.64
2024-12-06 13:30:28.860,31.95,535.0,0.69,0.71,-0.1,-0.3,0.71,-0.97
2024-12-06 13:30:28.867,31.72,527.0,0.68,0.7,-0.1,-0.24,1.62,-0.72
2024-12-06 13:30:28.870,32.17,530.0,0.69,0.7,-0.09,-0.79,1.99,-0.48
2024-12-06 13:30:28.891,26.32,505.0,0.72,0.74,-0.1,-1.52,1.44,2.63
2024-12-06 13:30:28.919,28.8,529.0,0.68,0.71,-0.09,-2.19,-0.33,3.49
2024-12-06 13:30:28.972,30.15,504.0,0.7,0.72,-0.08,-2.31,1.13,4.16
2024-12-06 13:30:28.976,29.02,517.0,0.71,0.73,-0.1,-1.7,3.21,6.05
2024-12-06 13:30:29.2,24.3,500.0,0.7,0.7,-0.1,-1.4,1.38,5.2
2024-12-06 13:30:29.32,27.22,500.0,0.7,0.69,-0.09,-1.7,-0.09,4.65
2024-12-06 13:30:29.77,26.1,497.0,0.72,0.71,-0.1,-1.52,0.59,5.93
2024-12-06 13:30:29.85,18.45,536.0,0.72,0.75,-0.11,-0.36,2.54,10.2
2024-12-06 13:30:29.112,22.5,519.0,0.71,0.72,-0.12,-0.05,3.27,11.54
2024-12-06 13:30:29.141,19.8,507.0,0.71,0.7,-0.1,0.19,0.1,12.22
2024-12-06 13:30:29.168,16.88,504.0,0.68,0.68,-0.07,0.62,-0.88,10.2
2024-12-06 13:30:29.196,21.15,504.0,0.7,0.69,-0.08,1.53,0.4,9.65
2024-12-06 13:30:29.224,19.8,510.0,0.71,0.69,-0.09,2.45,3.21,9.53
2024-12-06 13:30:29.251,14.62,511.0,0.74,0.7,-0.1,2.02,2.6,11.06
2024-12-06 13:30:29.279,20.02,508.0,0.69,0.67,-0.1,1.84,-0.21,11.6
2024-12-06 13:30:29.318,18.23,504.0,0.72,0.67,-0.07,1.05,-0.45,9.71
2024-12-06 13:30:29.334,11.92,512.0,0.75,0.68,-0.09,1.35,1.56,12.15
2024-12-06 13:30:29.362,12.82,506.0,0.72,0.66,-0.08,1.78,1.32,11.6
2024-12-06 13:30:29.390,11.92,502.0,0.75,0.64,-0.07,1.23,-0.33,9.9
2024-12-06 13:30:29.416,8.32,516.0,0.74,0.63,-0.09,0.98,-1.8,10.45
2024-12-06 13:30:29.444,7.65,513.0,0.72,0.63,-0.07,0.37,-1.61,7.82
2024-12-06 13:30:29.472,13.05,510.0,0.75,0.64,-0.1,0.37,-0.39,8.19
2024-12-06 13:30:29.500,6.07,525.0,0.74,0.64,-0.11,0.8,-0.33,9.71
2024-12-06 13:30:29.532,7.88,524.0,0.76,0.63,-0.11,0.25,-0.51,8.06
2024-12-06 13:30:29.554,8.1,510.0,0.75,0.63,-0.11,0.56,-0.94,8.74
2024-12-06 13:30:29.591,4.5,527.0,0.76,0.64,-0.09,0.25,-1.67,7.09
2024-12-06 13:30:29.609,1.35,522.0,0.76,0.64,-0.12,0.92,-1.18,6.78
2024-12-06 13:30:29.639,1.35,516.0,0.77,0.63,-0.12,1.84,-1.0,9.53
2024-12-06 13:30:29.665,0.9,519.0,0.75,0.62,-0.12,2.63,-1.06,9.41
2024-12-06 13:30:30.972,0.45,521.0,0.8,0.62,-0.1,-0.36,-1.67,2.57
2024-12-06 13:30:30.980,1.12,520.0,0.79,0.61,-0.1,-0.17,-2.16,2.88
2024-12-06 13:30:30.988,4.5,515.0,0.78,0.61,-0.09,0.07,-2.16,2.63
2024-12-06 13:30:30.996,3.15,530.0,0.77,0.61,-0.09,0.5,-2.04,2.21
2024-12-06 13:30:31.4,-0.9,529.0,0.77,0.61,-0.09,1.11,-1.37,1.47
2024-12-06 13:30:31.17,1.57,521.0,0.76,0.61,-0.09,1.11,-1.37,-14.15
2024-12-06 13:30:31.22,1.57,520.0,0.76,0.61,-0.09,1.66,-0.03,0.8
2024-12-06 13:30:31.28,0.45,518.0,0.76,0.61,-0.08,1.96,0.95,0.31
2024-12-06 13:30:31.35,0.45,539.0,0.76,0.61,-0.09,2.14,1.62,0.01
2024-12-06 13:30:31.42,2.47,533.0,0.76,0.61,-0.09,2.08,2.29,0.01
2024-12-06 13:30:31.50,-2.47,534.0,0.76,0.6,-0.09,1.72,2.11,0.19
2024-12-06 13:30:31.58,3.15,530.0,0.76,0.6,-0.1,1.72,2.11,0.19
2024-12-06 13:30:31.66,3.82,534.0,0.77,0.6,-0.1,1.23,1.38,0.56
2024-12-06 13:30:31.74,1.8,533.0,0.77,0.6,-0.11,0.74,0.59,0.98
2024-12-06 13:30:31.90,2.25,531.0,0.76,0.6,-0.11,0.31,-0.03,1.29
2024-12-06 13:30:31.92,-4.05,528.0,0.76,0.6,-0.11,-0.05,-0.45,1.47
2024-12-06 13:30:31.98,0.0,541.0,0.76,0.61,-0.1,-0.3,-0.76,1.6
2024-12-06 13:30:31.105,-3.6,527.0,0.76,0.61,-0.1,-0.3,-0.76,1.6
2024-12-06 13:30:31.114,2.25,535.0,0.76,0.61,-0.1,-0.36,-0.64,1.47
2024-12-06 13:30:31.153,-1.12,534.0,0.76,0.63,-0.1,0.31,1.07,1.53
2024-12-06 13:30:31.158,-2.7,524.0,0.77,0.63,-0.1,0.8,1.81,1.35
2024-12-06 13:30:31.169,-2.92,520.0,0.77,0.63,-0.1,1.35,2.29,1.23
2024-12-06 13:30:31.174,3.15,524.0,0.77,0.63,-0.1,1.84,1.93,0.92
2024-12-06 13:30:31.181,0.9,536.0,0.77,0.62,-0.11,1.84,1.93,0.92
2024-12-06 13:30:31.189,0.45,509.0,0.78,0.61,-0.11,2.14,2.48,0.44
2024-12-06 13:30:31.220,-0.67,523.0,0.78,0.59,-0.09,1.78,-0.09,-1.46
2024-12-06 13:30:31.223,1.12,508.0,0.77,0.58,-0.1,1.78,-0.09,-1.46
2024-12-06 13:30:31.233,2.47,523.0,0.76,0.59,-0.09,1.41,-0.76,-2.8
2024-12-06 13:30:31.236,2.92,523.0,0.76,0.59,-0.09,1.29,-1.92,-3.96
2024-12-06 13:30:31.242,2.7,517.0,0.75,0.59,-0.09,0.98,-1.98,-5.06
2024-12-06 13:30:31.249,0.0,510.0,0.75,0.59,-0.09,1.05,-1.92,-5.91
2024-12-06 13:30:31.257,0.45,513.0,0.76,0.59,-0.09,1.05,-1.8,-6.46
2024-12-06 13:30:31.266,2.02,512.0,0.75,0.59,-0.09,1.17,-1.8,-6.46
2024-12-06 13:30:31.273,2.92,509.0,0.75,0.59,-0.09,1.47,-1.49,-6.83
2024-12-06 13:30:31.305,-1.57,514.0,0.74,0.6,-0.09,1.96,-0.76,-8.17
2024-12-06 13:30:31.310,5.17,502.0,0.75,0.61,-0.1,1.84,-0.57,-8.72
2024-12-06 13:30:31.318,4.5,530.0,0.76,0.62,-0.1,1.78,-0.94,-9.09
2024-12-06 13:30:31.327,6.3,530.0,0.77,0.62,-0.1,1.66,-1.37,-9.33
2024-12-06 13:30:31.357,9.22,530.0,0.76,0.63,-0.11,1.66,-3.32,-10.06
2024-12-06 13:30:31.362,8.1,516.0,0.76,0.63,-0.11,1.6,-3.99,-10.8
2024-12-06 13:30:31.364,7.88,525.0,0.76,0.64,-0.11,1.53,-4.48,-11.34
2024-12-06 13:30:31.373,6.07,520.0,0.76,0.64,-0.11,1.41,-5.34,-11.89
2024-12-06 13:30:31.387,8.32,534.0,0.76,0.64,-0.11,1.41,-5.76,-12.5
2024-12-06 13:30:31.390,11.47,527.0,0.75,0.64,-0.11,1.29,-5.76,-12.5
2024-12-06 13:30:31.395,9.22,517.0,0.74,0.64,-0.12,1.11,-5.46,-13.3
2024-12-06 13:30:31.403,7.42,509.0,0.75,0.64,-0.11,1.05,-5.03,-13.72
2024-12-06 13:30:31.411,12.15,511.0,0.75,0.64,-0.11,0.98,-4.79,-13.72
2024-12-06 13:30:31.420,10.35,510.0,0.75,0.64,-0.11,1.29,-4.54,-13.42
2024-12-06 13:30:31.427,15.52,515.0,0.74,0.64,-0.11,1.29,-4.54,-13.3
2024-12-06 13:30:31.438,11.02,507.0,0.73,0.63,-0.12,1.53,-4.05,-13.3
2024-12-06 13:30:31.443,13.72,519.0,0.73,0.62,-0.13,1.78,-2.65,-13.24
2024-12-06 13:30:31.451,16.65,510.0,0.73,0.63,-0.13,2.14,-1.61,-12.81
2024-12-06 13:30:31.464,12.82,512.0,0.73,0.63,-0.13,2.27,-0.7,-12.2
2024-12-06 13:30:31.473,15.97,524.0,0.73,0.63,-0.13,2.08,-0.15,-11.65
2024-12-06 13:30:31.476,14.4,527.0,0.72,0.63,-0.13,1.84,0.71,-11.16
2024-12-06 13:30:31.482,14.85,527.0,0.72,0.63,-0.13,1.84,0.71,-11.16
2024-12-06 13:30:31.490,13.72,517.0,0.72,0.63,-0.13,1.41,1.56,-10.67
2024-12-06 13:30:31.501,17.77,537.0,0.72,0.64,-0.12,0.74,1.68,-10.25
2024-12-06 13:30:31.506,18.45,533.0,0.72,0.64,-0.13,0.07,1.44,-9.94
2024-12-06 13:30:31.514,14.4,523.0,0.72,0.64,-0.13,-0.54,1.2,-9.7
2024-12-06 13:30:31.522,17.32,528.0,0.72,0.65,-0.13,-0.54,0.65,-9.15
2024-12-06 13:30:31.566,15.52,523.0,0.72,0.69,-0.12,-2.19,-1.43,-6.71
2024-12-06 13:30:31.569,20.7,525.0,0.72,0.69,-0.13,-2.19,-1.43,-6.71
2024-12-06 13:30:31.575,17.55,513.0,0.71,0.7,-0.14,-1.76,-0.09,-6.58
2024-12-06 13:30:31.587,17.55,510.0,0.71,0.71,-0.13,-1.15,0.83,-6.52
2024-12-06 13:30:31.591,21.6,530.0,0.71,0.71,-0.12,-0.54,1.74,-6.58
2024-12-06 13:30:31.599,21.15,506.0,0.7,0.71,-0.12,-0.11,2.48,-7.01
2024-12-06 13:30:31.610,21.6,538.0,0.69,0.71,-0.12,-0.11,2.48,-7.01
2024-12-06 13:30:31.614,23.62,516.0,0.69,0.7,-0.12,0.25,3.58,-7.8
2024-12-06 13:30:31.623,22.72,564.0,0.69,0.69,-0.13,0.68,4.74,-8.6
2024-12-06 13:30:31.631,20.25,521.0,0.7,0.69,-0.13,1.05,6.14,-9.03
2024-12-06 13:30:31.639,23.4,520.0,0.71,0.68,-0.12,1.23,5.83,-9.15
2024-12-06 13:30:31.647,24.07,536.0,0.71,0.68,-0.12,1.29,5.29,-9.09
2024-12-06 13:30:31.655,22.27,501.0,0.71,0.68,-0.12,1.35,5.29,-8.9
2024-12-06 13:30:31.663,26.32,509.0,0.72,0.67,-0.12,1.35,5.29,-8.9
2024-12-06 13:30:31.671,26.55,506.0,0.7,0.67,-0.11,0.98,3.76,-8.96
2024-12-06 13:30:31.682,26.55,525.0,0.7,0.67,-0.11,0.62,3.82,-9.33
2024-12-06 13:30:31.690,23.62,507.0,0.7,0.67,-0.11,0.13,3.09,-9.33
2024-12-06 13:30:31.694,28.57,513.0,0.7,0.67,-0.11,-0.42,2.23,-9.45
2024-12-06 13:30:31.703,24.52,502.0,0.69,0.67,-0.11,-1.09,2.6,-9.45
2024-12-06 13:30:31.711,29.02,509.0,0.69,0.67,-0.11,-1.09,2.6,-9.45
2024-12-06 13:30:31.721,23.4,503.0,0.69,0.68,-0.11,-1.46,2.72,-9.21
2024-12-06 13:30:31.730,24.07,527.0,0.69,0.69,-0.12,-1.7,3.15,-9.03
2024-12-06 13:30:31.737,25.65,509.0,0.69,0.69,-0.12,-1.7,3.64,-9.03
2024-12-06 13:30:31.747,25.42,509.0,0.69,0.69,-0.11,-1.94,3.09,-9.21
2024-12-06 13:30:31.754,26.77,531.0,0.69,0.69,-0.11,-1.94,3.39,-9.33
2024-12-06 13:30:31.757,26.32,511.0,0.7,0.7,-0.11,-1.94,3.39,-9.33
2024-12-06 13:30:31.767,27.45,511.0,0.71,0.7,-0.11,-1.94,3.82,-9.15
2024-12-06 13:30:31.805,25.2,536.0,0.73,0.71,-0.12,-1.58,2.36,-8.54
2024-12-06 13:30:31.812,25.88,525.0,0.72,0.71,-0.11,-1.7,1.74,-8.48
2024-12-06 13:30:31.819,30.38,508.0,0.72,0.7,-0.1,-1.94,0.34,-8.66
2024-12-06 13:30:31.828,27.45,512.0,0.72,0.7,-0.1,-2.13,-0.03,-8.72
2024-12-06 13:30:31.842,28.12,526.0,0.72,0.7,-0.1,-2.19,-0.39,-8.41
2024-12-06 13:30:31.844,31.05,515.0,0.72,0.7,-0.1,-2.13,-1.0,-7.99
2024-12-06 13:30:31.859,30.38,536.0,0.72,0.71,-0.11,-2.13,-1.0,-7.99
2024-12-06 13:30:31.868,29.7,536.0,0.72,0.72,-0.12,-1.82,-1.12,-7.38
2024-12-06 13:30:31.872,34.2,512.0,0.71,0.72,-0.11,-1.58,-0.94,-6.46
2024-12-06 13:30:31.878,29.47,544.0,0.7,0.72,-0.1,-1.27,-0.82,-5.55
2024-12-06 13:30:31.882,31.05,524.0,0.7,0.72,-0.12,-0.85,-0.27,-4.69
2024-12-06 13:30:31.891,29.92,507.0,0.69,0.73,-0.12,-0.48,0.89,-4.08
2024-12-06 13:30:31.901,27.67,529.0,0.69,0.72,-0.11,-0.48,0.89,-4.08
2024-12-06 13:30:31.921,31.72,516.0,0.69,0.72,-0.1,-0.3,1.32,-3.41
2024-12-06 13:30:32.21,34.42,526.0,0.7,0.71,-0.1,2.02,2.23,2.57
2024-12-06 13:30:32.27,32.4,518.0,0.7,0.71,-0.1,2.33,2.42,2.82
2024-12-06 13:30:32.41,32.62,526.0,0.7,0.71,-0.1,2.57,2.23,3.06
2024-12-06 13:30:32.44,32.62,531.0,0.7,0.71,-0.1,2.69,1.81,3.37
2024-12-06 13:30:32.52,34.2,524.0,0.7,0.71,-0.1,2.94,2.17,3.61
2024-12-06 13:30:32.61,32.17,506.0,0.7,0.71,-0.09,2.94,2.17,3.61
2024-12-06 13:30:32.66,34.65,514.0,0.69,0.71,-0.09,2.69,1.81,3.67
2024-12-06 13:30:32.74,29.92,499.0,0.69,0.71,-0.09,2.82,2.48,3.61
2024-12-06 13:30:32.82,33.75,508.0,0.69,0.71,-0.09,2.57,2.05,3.55
2024-12-06 13:30:32.91,32.4,514.0,0.69,0.71,-0.09,2.51,2.72,3.61
2024-12-06 13:30:32.98,34.65,533.0,0.69,0.71,-0.09,2.57,1.81,3.67
2024-12-06 13:30:32.106,30.82,530.0,0.69,0.71,-0.09,2.57,1.81,3.67
2024-12-06 13:30:32.114,37.8,564.0,0.7,0.71,-0.11,2.69,2.72,3.79
2024-12-06 13:30:32.125,36.67,525.0,0.7,0.72,-0.1,2.51,3.03,4.34
2024-12-06 13:30:32.130,33.97,524.0,0.7,0.72,-0.1,2.57,2.29,4.95
2024-12-06 13:30:32.141,34.42,522.0,0.69,0.71,-0.11,2.39,3.15,5.38
2024-12-06 13:30:32.146,31.95,531.0,0.69,0.71,-0.11,2.39,2.78,5.44
2024-12-06 13:30:32.155,31.05,512.0,0.68,0.71,-0.1,2.39,1.81,4.95
2024-12-06 13:30:32.162,34.65,522.0,0.67,0.7,-0.1,2.33,1.81,4.95
2024-12-06 13:30:32.177,37.35,529.0,0.68,0.69,-0.1,2.21,1.93,4.1
2024-12-06 13:30:32.179,36.0,550.0,0.69,0.69,-0.09,2.02,1.68,3.55
2024-12-06 13:30:32.184,36.9,524.0,0.69,0.69,-0.09,1.84,0.77,3.24
2024-12-06 13:30:32.192,38.25,515.0,0.69,0.69,-0.09,1.78,0.46,2.88
2024-12-06 13:30:32.206,37.12,531.0,0.69,0.69,-0.09,1.78,0.46,2.88
2024-12-06 13:30:32.210,30.82,506.0,0.68,0.68,-0.1,1.84,0.46,2.51
2024-12-06 13:30:32.243,32.17,505.0,0.68,0.69,-0.1,1.96,1.01,1.17
2024-12-06 13:30:32.245,35.33,518.0,0.68,0.69,-0.1,2.02,1.32,0.86
2024-12-06 13:30:32.253,31.05,530.0,0.68,0.69,-0.1,2.02,1.5,0.8
2024-12-06 13:30:32.262,32.62,530.0,0.68,0.69,-0.1,1.96,1.74,0.8
2024-12-06 13:30:32.270,36.67,516.0,0.68,0.69,-0.1,1.78,1.74,0.92
2024-12-06 13:30:32.277,28.57,529.0,0.69,0.7,-0.1,1.6,1.56,1.05
2024-12-06 13:30:32.293,32.62,510.0,0.69,0.69,-0.1,1.6,1.56,1.05
2024-12-06 13:30:32.298,33.3,553.0,0.69,0.7,-0.1,1.29,1.26,1.11
2024-12-06 13:30:32.308,31.27,528.0,0.7,0.7,-0.1,0.98,1.07,1.05
2024-12-06 13:30:32.311,37.12,526.0,0.7,0.7,-0.1,0.8,0.89,0.98
2024-12-06 13:30:32.315,27.45,520.0,0.7,0.7,-0.1,0.74,0.71,0.86
2024-12-06 13:30:32.323,34.65,521.0,0.7,0.7,-0.1,0.74,-14.92,0.74
2024-12-06 13:30:32.331,33.97,513.0,0.7,0.7,-0.1,0.8,0.52,0.74
2024-12-06 13:30:32.349,35.33,525.0,0.7,0.7,-0.1,0.92,0.46,0.68
2024-12-06 13:30:33.386,34.2,519.0,0.69,0.72,-0.1,0.25,0.52,-0.48
2024-12-06 13:30:33.391,33.97,512.0,0.67,0.71,-0.1,0.07,-0.64,-0.66
2024-12-06 13:30:33.401,33.75,524.0,0.63,0.69,-0.1,-0.42,-1.92,-4.02
2024-12-06 13:30:33.429,38.92,518.0,0.67,0.72,-0.12,0.44,-1.37,-3.9
2024-12-06 13:30:33.462,38.47,537.0,0.67,0.72,-0.12,1.23,0.65,-4.51
2024-12-06 13:30:33.488,37.58,524.0,0.68,0.73,-0.11,1.41,1.38,-3.71
2024-12-06 13:30:33.513,38.25,531.0,0.68,0.73,-0.13,1.47,1.81,-2.86
2024-12-06 13:30:33.549,41.4,529.0,0.68,0.71,-0.14,0.5,1.56,-3.1
2024-12-06 13:30:33.569,39.83,519.0,0.68,0.71,-0.14,-1.03,0.77,-1.4
2024-12-06 13:30:33.612,43.42,528.0,0.68,0.71,-0.12,-1.09,0.52,-0.36
2024-12-06 13:30:33.631,44.77,518.0,0.69,0.72,-0.11,-0.17,1.38,0.37
2024-12-06 13:30:33.658,43.42,523.0,0.68,0.72,-0.11,0.8,2.05,0.07
2024-12-06 13:30:33.677,48.38,541.0,0.7,0.72,-0.11,1.53,1.5,-0.79
2024-12-06 13:30:33.711,48.38,513.0,0.69,0.72,-0.12,1.23,0.52,1.29
2024-12-06 13:30:33.732,48.82,537.0,0.67,0.72,-0.11,0.01,0.59,2.33
2024-12-06 13:30:33.761,46.12,538.0,0.68,0.72,-0.1,-0.97,0.89,3.18
2024-12-06 13:30:33.794,51.52,534.0,0.67,0.71,-0.1,-0.97,0.95,2.51
2024-12-06 13:30:33.832,53.55,528.0,0.67,0.71,-0.1,-1.4,0.4,1.29
2024-12-06 13:30:33.845,50.17,520.0,0.67,0.72,-0.11,-1.88,0.04,1.29
2024-12-06 13:30:33.874,49.05,535.0,0.66,0.71,-0.11,-2.49,-0.51,1.05
2024-12-06 13:30:33.898,56.25,541.0,0.67,0.72,-0.1,-2.98,-0.51,0.92
2024-12-06 13:30:33.934,54.9,526.0,0.66,0.71,-0.11,-2.68,0.22,0.92
2024-12-06 13:30:33.954,53.77,543.0,0.68,0.72,-0.11,-2.62,0.59,1.72
2024-12-06 13:30:33.983,57.82,548.0,0.68,0.72,-0.11,-2.56,0.83,2.27
2024-12-06 13:30:34.112,52.65,531.0,0.68,0.72,-0.11,-2.8,1.13,2.27
2024-12-06 13:30:34.114,55.57,537.0,0.67,0.71,-0.11,-0.66,0.59,1.23
2024-12-06 13:30:34.120,61.65,554.0,0.67,0.72,-0.11,-0.11,0.77,1.29
2024-12-06 13:30:34.146,61.2,547.0,0.68,0.75,-0.1,-1.09,1.5,3.0
2024-12-06 13:30:34.183,69.07,556.0,0.67,0.72,-0.12,-0.85,0.95,3.06
2024-12-06 13:30:34.202,61.2,538.0,0.68,0.7,-0.09,-0.72,0.65,2.14
2024-12-06 13:30:34.229,65.7,551.0,0.68,0.71,-0.1,-0.48,0.83,2.27
2024-12-06 13:30:34.277,63.9,552.0,0.67,0.71,-0.09,-0.66,1.68,0.92
2024-12-06 13:30:34.286,69.3,552.0,0.67,0.71,-0.1,-1.76,2.54,1.11
2024-12-06 13:30:34.313,69.07,542.0,0.66,0.7,-0.1,-1.88,1.87,1.35
2024-12-06 13:30:34.341,67.72,563.0,0.68,0.72,-0.08,-3.35,1.07,0.68
2024-12-06 13:30:34.373,69.3,547.0,0.68,0.72,-0.1,-3.35,1.81,0.86
2024-12-06 13:30:34.399,69.3,556.0,0.69,0.73,-0.08,-3.23,1.13,0.74
2024-12-06 13:30:34.423,69.53,547.0,0.69,0.74,-0.1,-3.29,1.2,2.33
2024-12-06 13:30:34.451,76.28,537.0,0.69,0.7,-0.09,-2.31,0.46,1.72
2024-12-06 13:30:34.503,72.0,543.0,0.7,0.73,-0.08,-1.76,-1.18,2.88
2024-12-06 13:30:34.513,73.35,555.0,0.69,0.72,-0.09,-1.52,0.65,3.61
2024-12-06 13:30:34.534,76.05,565.0,0.69,0.72,-0.09,-1.76,0.83,4.28
2024-12-06 13:30:34.562,76.05,602.0,0.7,0.72,-0.08,-2.31,-0.57,5.38
2024-12-06 13:30:34.593,76.72,563.0,0.69,0.72,-0.09,-2.98,-0.39,5.62
2024-12-06 13:30:34.617,81.67,567.0,0.68,0.7,-0.09,-2.98,-0.39,5.44
2024-12-06 13:30:34.645,76.5,554.0,0.68,0.69,-0.08,-3.23,-0.39,4.22
2024-12-06 13:30:34.674,81.67,560.0,0.69,0.69,-0.07,-2.19,-1.06,3.24
2024-12-06 13:30:34.720,81.0,546.0,0.69,0.7,-0.06,0.07,-0.7,2.33
2024-12-06 13:30:34.733,80.78,560.0,0.69,0.73,-0.07,-0.3,0.04,2.21
2024-12-06 13:30:34.754,78.97,535.0,0.69,0.71,-0.09,-0.72,-0.45,2.45
2024-12-06 13:30:34.788,81.0,563.0,0.69,0.73,-0.07,-2.25,-2.1,3.3
2024-12-06 13:30:36.261,89.32,548.0,0.7,0.69,-0.08,0.98,0.28,0.37
2024-12-06 13:30:36.270,85.28,546.0,0.7,0.69,-0.08,0.8,0.22,0.19
2024-12-06 13:30:36.277,87.07,547.0,0.69,0.69,-0.09,0.8,0.22,0.19
2024-12-06 13:30:36.285,87.52,538.0,0.69,0.69,-0.09,0.62,0.1,0.01
2024-12-06 13:30:36.318,88.42,551.0,0.7,0.69,-0.08,0.44,0.1,-0.24
2024-12-06 13:30:36.322,91.35,554.0,0.7,0.7,-0.08,0.31,0.1,-0.3
2024-12-06 13:30:36.326,88.2,557.0,0.7,0.7,-0.08,0.25,0.1,-0.3
2024-12-06 13:30:36.330,87.75,532.0,0.7,0.7,-0.08,0.25,0.16,-0.11
2024-12-06 13:30:36.341,90.9,543.0,0.7,0.7,-0.08,0.25,0.28,0.01
2024-12-06 13:30:36.346,84.6,532.0,0.7,0.7,-0.08,0.19,0.4,0.13
2024-12-06 13:30:36.355,90.9,555.0,0.69,0.7,-0.08,0.19,0.4,0.19
2024-12-06 13:30:36.363,90.22,544.0,0.69,0.7,-0.08,0.19,0.4,0.19
2024-12-06 13:30:36.370,87.97,553.0,0.69,0.7,-0.09,0.13,0.4,0.25
2024-12-06 13:30:36.380,90.22,550.0,0.69,0.7,-0.09,0.01,0.22,0.31
2024-12-06 13:30:36.385,88.88,544.0,0.69,0.7,-0.09,-0.05,0.04,0.31
2024-12-06 13:30:36.394,87.75,547.0,0.69,0.7,-0.09,-0.11,-0.09,0.25
2024-12-06 13:30:36.401,86.17,547.0,0.7,0.7,-0.09,-0.3,-0.15,0.25
2024-12-06 13:30:36.409,90.45,551.0,0.69,0.7,-0.09,-0.3,-0.15,0.19
2024-12-06 13:30:36.417,87.97,558.0,0.69,0.7,-0.09,-0.36,-0.15,0.19
2024-12-06 13:30:36.433,88.65,554.0,0.69,0.71,-0.09,-0.42,-0.15,0.19
2024-12-06 13:30:36.436,89.77,555.0,0.69,0.71,-0.09,-0.42,-0.15,0.19
2024-12-06 13:30:36.444,88.42,558.0,0.69,0.71,-0.09,-0.36,-0.15,0.25
2024-12-06 13:30:36.449,85.95,554.0,0.69,0.71,-0.09,-0.24,-0.15,0.31
2024-12-06 13:30:36.460,87.97,534.0,0.69,0.71,-0.09,-0.24,-0.15,0.44
2024-12-06 13:30:36.466,88.2,574.0,0.69,0.71,-0.09,-0.24,-0.03,0.44
2024-12-06 13:30:36.474,87.52,539.0,0.7,0.7,-0.09,-0.11,0.1,0.5
2024-12-06 13:30:36.481,87.75,535.0,0.7,0.7,-0.09,-0.05,0.16,0.62
2024-12-06 13:30:36.489,88.2,537.0,0.7,0.7,-0.09,0.01,0.22,0.62
2024-12-06 13:30:36.504,87.3,538.0,0.7,0.7,-0.09,0.01,0.22,0.62
2024-12-06 13:30:36.508,89.1,543.0,0.7,0.7,-0.09,0.19,0.16,0.56
2024-12-06 13:30:36.512,88.42,539.0,0.7,0.7,-0.09,0.19,0.16,0.56
2024-12-06 13:30:36.543,90.0,544.0,0.7,0.71,-0.09,0.56,0.16,0.25
2024-12-06 13:30:36.551,88.65,545.0,0.7,0.71,-0.09,0.56,0.16,0.25
2024-12-06 13:30:36.559,87.97,557.0,0.69,0.71,-0.09,0.68,0.16,0.25
2024-12-06 13:30:36.569,87.97,554.0,0.69,0.71,-0.09,0.68,0.22,0.37
2024-12-06 13:30:36.575,87.75,552.0,0.69,0.71,-0.09,0.74,0.34,0.5
2024-12-06 13:30:36.582,91.35,549.0,0.69,0.71,-0.09,0.8,0.4,0.56
2024-12-06 13:30:36.590,84.6,559.0,0.69,0.7,-0.09,0.98,0.46,0.74
2024-12-06 13:30:36.603,87.07,528.0,0.69,0.7,-0.09,0.98,0.46,0.74
2024-12-06 13:30:36.611,90.22,537.0,0.69,0.7,-0.1,1.05,0.52,0.8
2024-12-06 13:30:36.614,86.17,537.0,0.69,0.7,-0.1,1.05,0.52,0.8
2024-12-06 13:30:36.621,85.05,533.0,0.69,0.7,-0.09,1.05,0.52,0.8
2024-12-06 13:30:36.631,87.75,543.0,0.69,0.7,-0.09,0.98,0.65,0.74
2024-12-06 13:30:36.640,86.62,540.0,0.69,0.7,-0.09,0.86,0.77,0.68
2024-12-06 13:30:36.645,86.4,542.0,0.69,0.7,-0.09,0.86,0.77,0.68
2024-12-06 13:30:36.661,85.05,558.0,0.69,0.7,-0.09,0.86,0.83,0.68
2024-12-06 13:30:36.664,88.2,533.0,0.69,0.7,-0.09,0.86,0.89,0.62
2024-12-06 13:30:36.669,89.55,535.0,0.69,0.7,-0.09,0.8,0.95,0.5
2024-12-06 13:30:36.681,87.97,552.0,0.69,0.7,-0.09,0.74,0.95,0.37
2024-12-06 13:30:36.690,87.97,531.0,0.69,0.7,-0.09,0.8,1.07,0.31
2024-12-06 13:30:36.693,87.07,547.0,0.69,0.7,-0.09,0.8,1.07,0.31
2024-12-06 13:30:36.700,87.07,572.0,0.69,0.7,-0.09,0.8,1.2,0.25
2024-12-06 13:30:36.709,87.07,541.0,0.69,0.7,-0.09,0.92,1.26,0.31
2024-12-06 13:30:36.720,86.85,559.0,0.7,0.7,-0.09,0.98,1.26,0.37
2024-12-06 13:30:36.723,87.07,550.0,0.7,0.7,-0.09,1.11,1.2,0.37
2024-12-06 13:30:36.731,89.1,543.0,0.7,0.7,-0.09,1.11,1.07,0.44
2024-12-06 13:30:36.740,88.42,526.0,0.7,0.7,-0.09,1.11,1.07,0.44
2024-12-06 13:30:36.768,89.55,540.0,0.69,0.71,-0.08,1.05,1.01,0.25
2024-12-06 13:30:36.772,86.17,542.0,0.69,0.71,-0.08,0.98,1.13,0.19
2024-12-06 13:30:36.777,88.2,552.0,0.69,0.71,-0.08,0.98,1.13,0.19
2024-12-06 13:30:36.785,91.12,553.0,0.69,0.71,-0.08,0.86,1.32,0.13
2024-12-06 13:30:36.797,87.3,549.0,0.69,0.71,-0.09,0.86,1.32,0.19
2024-12-06 13:30:36.801,88.42,551.0,0.69,0.71,-0.09,0.8,1.26,0.25
2024-12-06 13:30:36.816,81.0,548.0,0.69,0.71,-0.09,0.74,1.13,0.44
2024-12-06 13:30:36.818,89.32,543.0,0.7,0.71,-0.09,0.74,0.95,0.68
2024-12-06 13:30:36.823,91.12,536.0,0.7,0.7,-0.09,0.74,0.95,0.68
2024-12-06 13:30:36.831,92.02,542.0,0.69,0.7,-0.09,0.74,0.83,0.74
2024-12-06 13:30:36.839,87.75,546.0,0.69,0.7,-0.09,0.62,0.95,0.74
2024-12-06 13:30:36.853,90.9,557.0,0.69,0.71,-0.09,0.5,1.01,0.86
2024-12-06 13:30:36.858,89.55,549.0,0.69,0.71,-0.09,0.5,0.95,0.92
2024-12-06 13:30:36.877,85.05,601.0,0.69,0.71,-0.09,0.5,0.95,0.92
2024-12-06 13:30:36.880,87.75,549.0,0.69,0.71,-0.09,0.62,0.77,1.23
2024-12-06 13:30:36.885,87.3,552.0,0.69,0.71,-0.09,0.74,0.59,1.35
2024-12-06 13:30:36.892,86.17,552.0,0.69,0.71,-0.09,0.86,0.46,1.29
2024-12-06 13:30:36.901,84.82,545.0,0.69,0.7,-0.09,0.86,0.46,1.17
2024-12-06 13:30:36.908,88.2,542.0,0.69,0.7,-0.09,0.92,0.46,1.17
2024-12-06 13:30:36.917,85.72,537.0,0.69,0.7,-0.09,0.92,0.52,0.92
2024-12-06 13:30:36.928,90.45,554.0,0.69,0.7,-0.09,0.98,0.65,0.74
2024-12-06 13:30:36.940,90.9,539.0,0.69,0.71,-0.09,1.05,0.65,0.56
2024-12-06 13:30:36.944,90.22,533.0,0.69,0.71,-0.09,1.17,0.71,0.56
2024-12-06 13:30:36.949,88.42,545.0,0.69,0.71,-0.09,1.17,0.71,0.56
2024-12-06 13:30:36.960,86.85,544.0,0.69,0.71,-0.09,1.17,0.83,0.62
2024-12-06 13:30:36.965,87.75,546.0,0.69,0.71,-0.09,1.23,1.01,0.68
2024-12-06 13:30:36.998,90.67,591.0,0.69,0.7,-0.09,1.29,1.38,0.74
2024-12-06 13:30:37.2,87.52,536.0,0.69,0.7,-0.09,1.35,1.38,0.8
2024-12-06 13:30:37.11,87.07,536.0,0.69,0.7,-0.09,1.35,1.38,0.86
2024-12-06 13:30:37.21,87.75,530.0,0.69,0.7,-0.09,1.47,1.32,0.92
2024-12-06 13:30:37.25,87.3,542.0,0.7,0.7,-0.09,1.53,1.2,0.98
2024-12-06 13:30:37.32,87.07,541.0,0.7,0.7,-0.09,1.53,1.2,0.98
2024-12-06 13:30:37.44,87.52,550.0,0.69,0.7,-0.09,1.6,1.01,1.05
2024-12-06 13:30:37.51,86.4,548.0,0.69,0.71,-0.09,1.66,0.95,1.11
2024-12-06 13:30:37.56,84.6,553.0,0.69,0.71,-0.09,1.6,1.07,1.11
2024-12-06 13:30:37.64,89.1,536.0,0.69,0.71,-0.09,1.6,1.2,1.17
2024-12-06 13:30:37.71,90.9,585.0,0.69,0.71,-0.09,1.6,1.26,1.17
2024-12-06 13:30:37.81,85.05,541.0,0.69,0.71,-0.09,1.6,1.26,1.17
2024-12-06 13:30:37.91,78.07,541.0,0.69,0.71,-0.09,1.6,1.26,1.23
2024-12-06 13:30:37.102,87.07,549.0,0.69,0.71,-0.09,1.6,1.2,1.29
2024-12-06 13:30:37.104,90.67,547.0,0.69,0.7,-0.09,1.6,1.13,1.23
2024-12-06 13:30:37.110,90.45,550.0,0.69,0.7,-0.09,1.6,1.07,1.05
2024-12-06 13:30:37.117,85.5,537.0,0.69,0.7,-0.09,1.6,0.95,0.92
2024-12-06 13:30:37.127,89.77,542.0,0.69,0.7,-0.09,1.53,0.95,0.92
2024-12-06 13:30:37.133,88.2,547.0,0.69,0.7,-0.09,1.41,0.95,0.8
2024-12-06 13:30:37.141,87.75,541.0,0.7,0.7,-0.09,1.29,0.89,0.8
2024-12-06 13:30:37.149,88.88,535.0,0.7,0.7,-0.09,1.23,0.77,0.8
2024-12-06 13:30:37.157,86.62,536.0,0.7,0.7,-0.09,1.23,0.65,0.92
2024-12-06 13:30:37.261,86.4,551.0,0.69,0.7,-0.09,0.8,0.4,1.05
2024-12-06 13:30:37.263,90.22,540.0,0.7,0.7,-0.09,0.74,0.28,0.86
2024-12-06 13:30:37.276,86.85,557.0,0.7,0.7,-0.09,0.8,0.22,0.74
2024-12-06 13:30:37.280,85.5,551.0,0.7,0.7,-0.09,0.8,0.22,0.74
2024-12-06 13:30:37.287,88.65,540.0,0.7,0.7,-0.09,0.8,0.22,0.68
2024-12-06 13:30:37.299,88.42,549.0,0.7,0.7,-0.09,0.92,0.28,0.68
2024-12-06 13:30:37.302,88.2,545.0,0.69,0.7,-0.09,0.86,0.28,0.8
2024-12-06 13:30:37.310,86.17,542.0,0.69,0.7,-0.09,0.74,0.28,0.86
2024-12-06 13:30:37.319,86.62,538.0,0.69,0.7,-0.09,0.68,0.28,1.05
2024-12-06 13:30:37.330,85.95,542.0,0.69,0.7,-0.09,0.68,0.28,1.05
2024-12-06 13:30:37.337,84.82,541.0,0.69,0.69,-0.09,0.56,0.28,1.11
2024-12-06 13:30:37.340,85.95,545.0,0.69,0.7,-0.09,0.44,0.34,1.17
2024-12-06 13:30:37.347,88.88,537.0,0.69,0.7,-0.09,0.31,0.46,1.23
2024-12-06 13:30:37.356,87.75,553.0,0.69,0.7,-0.09,0.25,0.46,1.29
2024-12-06 13:30:37.367,90.0,537.0,0.69,0.7,-0.1,0.19,0.4,1.17
2024-12-06 13:30:37.376,90.45,541.0,0.69,0.7,-0.1,0.19,0.4,1.17
2024-12-06 13:30:37.382,82.57,567.0,0.69,0.7,-0.1,0.19,0.34,1.05
2024-12-06 13:30:37.389,89.55,542.0,0.69,0.7,-0.1,0.13,0.28,0.8
2024-12-06 13:30:37.394,85.5,546.0,0.69,0.7,-0.1,0.13,0.28,0.68
2024-12-06 13:30:37.402,85.28,534.0,0.69,0.7,-0.1,0.13,0.22,0.56
2024-12-06 13:30:37.411,84.82,535.0,0.69,0.7,-0.1,0.13,0.22,0.44
2024-12-06 13:30:37.446,89.1,546.0,0.69,0.69,-0.09,0.13,0.4,0.25
2024-12-06 13:30:37.449,87.07,553.0,0.69,0.7,-0.09,0.13,0.52,0.13
2024-12-06 13:30:37.457,84.6,563.0,0.69,0.7,-0.09,0.07,0.52,0.13
2024-12-06 13:30:37.464,89.32,551.0,0.69,0.7,-0.09,0.01,0.71,0.13
2024-12-06 13:30:37.474,85.72,539.0,0.69,0.7,-0.09,-0.05,0.77,0.13
2024-12-06 13:30:37.486,84.82,552.0,0.69,0.7,-0.09,-0.11,0.77,0.13
2024-12-06 13:30:37.488,87.07,549.0,0.69,0.7,-0.09,-0.05,0.77,0.13
2024-12-06 13:30:37.495,90.22,534.0,0.69,0.7,-0.09,-0.05,0.77,0.07
2024-12-06 13:30:37.503,85.05,548.0,0.69,0.7,-0.1,-0.05,0.77,0.07
2024-12-06 13:30:37.511,90.67,561.0,0.69,0.7,-0.1,-0.05,0.83,0.07
2024-12-06 13:30:37.523,86.4,549.0,0.69,0.7,-0.1,-0.05,0.83,0.13
2024-12-06 13:30:37.526,87.3,561.0,0.69,0.71,-0.09,-0.05,0.77,0.19
2024-12-06 13:30:37.534,87.75,537.0,0.69,0.71,-0.09,-0.05,0.71,0.25
2024-12-06 13:30:37.542,86.85,541.0,0.7,0.71,-0.09,-0.05,0.71,0.25
2024-12-06 13:30:37.553,86.4,539.0,0.7,0.71,-0.09,-0.11,0.59,0.25
2024-12-06 13:30:37.558,90.9,553.0,0.7,0.71,-0.09,-0.05,0.52,0.31
2024-12-06 13:30:37.566,91.57,543.0,0.7,0.71,-0.1,0.07,0.46,0.37
2024-12-06 13:30:37.583,85.05,544.0,0.7,0.71,-0.1,0.13,0.4,0.44
2024-12-06 13:30:37.585,90.67,548.0,0.7,0.71,-0.1,0.19,0.4,0.56
2024-12-06 13:30:37.589,84.6,551.0,0.7,0.71,-0.1,0.19,0.4,0.56
2024-12-06 13:30:37.597,87.75,555.0,0.7,0.71,-0.09,0.31,0.4,0.74
2024-12-06 13:30:37.608,87.75,551.0,0.69,0.71,-0.09,0.37,0.4,0.86
2024-12-06 13:30:37.615,86.85,544.0,0.69,0.71,-0.09,0.44,0.34,0.92
2024-12-06 13:30:37.627,87.97,547.0,0.69,0.7,-0.09,0.44,0.28,0.98
2024-12-06 13:30:37.630,87.07,535.0,0.69,0.7,-0.09,0.44,0.28,0.98
2024-12-06 13:30:37.637,87.97,540.0,0.69,0.7,-0.09,0.44,0.28,0.98
2024-12-06 13:30:37.679,89.77,538.0,0.69,0.7,-0.09,0.31,0.34,0.92
2024-12-06 13:30:37.681,90.45,537.0,0.69,0.7,-0.09,0.31,0.46,0.8
2024-12-06 13:30:37.689,81.67,551.0,0.69,0.7,-0.09,0.37,0.46,0.8
2024-12-06 13:30:37.692,90.9,550.0,0.69,0.7,-0.09,0.31,0.4,0.8
2024-12-06 13:30:37.697,88.2,532.0,0.69,0.7,-0.09,0.31,0.28,0.74
2024-12-06 13:30:37.705,83.03,540.0,0.69,0.7,-0.09,0.31,0.22,0.62
2024-12-06 13:30:37.713,86.17,551.0,0.69,0.7,-0.09,0.25,0.28,0.5
2024-12-06 13:30:37.722,85.28,541.0,0.69,0.7,-0.09,0.25,0.28,0.5
2024-12-06 13:30:37.729,86.4,546.0,0.69,0.7,-0.09,0.13,0.4,0.44
2024-12-06 13:30:37.739,84.15,534.0,0.69,0.7,-0.09,0.07,0.52,0.37
2024-12-06 13:30:37.749,88.88,539.0,0.69,0.7,-0.09,0.07,0.59,0.37
2024-12-06 13:30:37.755,85.72,531.0,0.69,0.71,-0.09,0.01,0.65,0.44
2024-12-06 13:30:37.763,85.5,547.0,0.69,0.71,-0.09,0.01,0.59,0.44
2024-12-06 13:30:37.768,84.82,552.0,0.69,0.7,-0.09,0.01,0.59,0.44
2024-12-06 13:30:37.779,85.72,546.0,0.69,0.7,-0.09,0.01,0.52,0.44
2024-12-06 13:30:37.784,87.3,541.0,0.69,0.7,-0.09,-0.17,0.59,0.31
2024-12-06 13:30:37.803,84.6,544.0,0.69,0.7,-0.09,-0.36,0.65,0.25
2024-12-06 13:30:37.807,90.22,533.0,0.69,0.7,-0.09,-0.48,0.71,0.25
2024-12-06 13:30:37.813,88.65,550.0,0.69,0.7,-0.09,-0.6,0.77,0.25
2024-12-06 13:30:37.815,89.32,545.0,0.69,0.7,-0.1,-0.6,0.77,0.25
2024-12-06 13:30:37.825,88.42,554.0,0.69,0.71,-0.1,-0.54,0.71,0.37
2024-12-06 13:30:37.831,91.12,532.0,0.7,0.71,-0.1,-0.42,0.71,0.56
2024-12-06 13:30:37.846,85.72,539.0,0.7,0.71,-0.1,-0.24,0.77,0.68
2024-12-06 13:30:37.854,88.2,547.0,0.7,0.71,-0.1,0.07,0.71,0.8
2024-12-06 13:30:37.857,90.22,547.0,0.7,0.71,-0.1,0.25,0.77,0.8
2024-12-06 13:30:37.862,87.52,557.0,0.69,0.7,-0.1,0.25,0.77,0.8
2024-12-06 13:30:37.869,87.97,544.0,0.69,0.7,-0.1,0.31,0.77,0.68
2024-12-06 13:30:37.878,87.75,549.0,0.69,0.7,-0.1,0.37,0.77,0.5
2024-12-06 13:30:37.910,84.82,545.0,0.69,0.71,-0.1,0.37,0.77,0.19
2024-12-06 13:30:37.915,89.32,540.0,0.69,0.71,-0.1,0.37,0.71,0.25
2024-12-06 13:30:37.923,88.88,538.0,0.69,0.71,-0.1,0.37,0.77,0.37
2024-12-06 13:30:37.943,91.12,549.0,0.69,0.71,-0.1,0.44,0.83,0.56
2024-12-06 13:30:37.948,88.65,541.0,0.69,0.71,-0.1,0.5,0.83,0.68
2024-12-06 13:30:37.953,85.05,540.0,0.69,0.71,-0.1,0.62,0.89,0.8
2024-12-06 13:30:37.962,92.02,570.0,0.68,0.71,-0.1,0.62,0.95,0.86
2024-12-06 13:30:37.971,89.32,553.0,0.68,0.71,-0.1,0.68,1.01,0.86
2024-12-06 13:30:37.980,87.75,531.0,0.69,0.71,-0.1,0.68,1.01,0.8
2024-12-06 13:30:37.984,85.05,541.0,0.69,0.71,-0.1,0.68,1.01,0.8
2024-12-06 13:30:37.997,90.45,537.0,0.69,0.71,-0.1,0.68,1.01,0.86
2024-12-06 13:30:38.4,88.2,538.0,0.69,0.71,-0.09,0.74,1.07,0.8
2024-12-06 13:30:38.7,85.28,536.0,0.69,0.71,-0.09,0.74,1.01,0.86
2024-12-06 13:30:38.15,85.5,530.0,0.69,0.71,-0.09,0.74,0.95,0.86
2024-12-06 13:30:38.24,89.32,532.0,0.69,0.71,-0.09,0.74,0.95,0.86
2024-12-06 13:30:38.40,92.47,570.0,0.69,0.71,-0.09,0.68,0.95,0.8
2024-12-06 13:30:38.43,91.57,543.0,0.69,0.71,-0.09,0.62,0.95,0.8
2024-12-06 13:30:38.55,89.32,547.0,0.68,0.71,-0.09,0.62,0.95,0.74
2024-12-06 13:30:38.58,87.97,548.0,0.68,0.71,-0.09,0.5,1.07,0.74
2024-12-06 13:30:38.62,90.9,551.0,0.68,0.71,-0.09,0.5,1.2,0.68
2024-12-06 13:30:38.72,90.22,545.0,0.69,0.71,-0.09,0.5,1.2,0.68
2024-12-06 13:30:38.78,90.22,551.0,0.69,0.71,-0.09,0.5,1.2,0.68
2024-12-06 13:30:38.105,88.42,550.0,0.69,0.71,-0.09,0.56,1.26,0.62
2024-12-06 13:30:38.129,86.4,540.0,0.69,0.7,-0.1,0.68,0.77,0.37
2024-12-06 13:30:38.132,87.97,542.0,0.69,0.7,-0.06,0.5,0.77,0.31
2024-12-06 13:30:38.151,90.22,540.0,0.69,0.7,-0.09,0.37,0.83,0.19
2024-12-06 13:30:38.155,85.05,565.0,0.69,0.7,-0.09,0.25,0.95,0.19
2024-12-06 13:30:38.161,88.42,552.0,0.69,0.7,-0.09,0.19,1.01,0.31
2024-12-06 13:30:38.169,85.05,548.0,0.69,0.7,-0.09,0.31,1.01,0.44
2024-12-06 13:30:38.176,87.97,537.0,0.69,0.7,-0.09,0.44,0.89,0.68
2024-12-06 13:30:38.183,90.0,545.0,0.69,0.7,-0.09,0.44,0.89,0.68
2024-12-06 13:30:38.191,84.82,537.0,0.69,0.7,-0.09,0.56,0.89,0.68
2024-12-06 13:30:38.199,90.0,546.0,0.69,0.71,-0.09,0.62,0.95,0.62
2024-12-06 13:30:38.208,91.12,542.0,0.69,0.71,-0.09,0.5,1.07,0.56
2024-12-06 13:30:38.308,87.75,542.0,0.69,0.71,-0.09,0.31,0.89,1.05
2024-12-06 13:30:38.311,88.42,542.0,0.69,0.71,-0.09,0.44,0.83,1.17
2024-12-06 13:30:39.427,85.05,566.0,0.68,0.7,-0.1,0.8,0.46,0.98
2024-12-06 13:30:39.431,87.52,602.0,0.72,0.75,-0.13,-5.85,-6.13,14.47
2024-12-06 13:30:39.456,76.28,561.0,0.68,0.64,-0.13,-6.1,-8.63,14.35
2024-12-06 13:30:39.485,71.1,583.0,0.68,0.58,-0.06,-4.57,-5.27,9.41
2024-12-06 13:30:39.511,69.97,539.0,0.73,0.58,-0.04,0.37,2.84,7.33
2024-12-06 13:30:39.553,70.88,537.0,0.74,0.64,-0.06,5.07,7.36,4.22
2024-12-06 13:30:39.573,66.15,537.0,0.75,0.68,-0.11,6.54,4.61,3.0
2024-12-06 13:30:39.595,66.82,544.0,0.71,0.67,-0.12,5.01,0.65,0.62
2024-12-06 13:30:39.632,65.47,543.0,0.7,0.67,-0.1,4.71,1.38,-0.05
2024-12-06 13:30:39.650,62.32,537.0,0.69,0.65,-0.09,6.54,4.37,1.11
2024-12-06 13:30:39.680,66.6,537.0,0.71,0.65,-0.1,6.48,5.41,1.47
2024-12-06 13:30:39.709,60.52,533.0,0.73,0.69,-0.12,5.07,3.76,3.24
2024-12-06 13:30:39.733,58.72,540.0,0.73,0.68,-0.11,3.79,2.05,3.18
2024-12-06 13:30:39.759,60.97,558.0,0.73,0.67,-0.09,3.85,2.6,3.12
2024-12-06 13:30:39.791,60.3,528.0,0.72,0.67,-0.09,5.14,2.54,3.98
2024-12-06 13:30:39.815,59.17,535.0,0.74,0.68,-0.1,6.54,4.8,3.24
2024-12-06 13:30:39.843,60.07,541.0,0.73,0.69,-0.12,6.97,3.82,3.85
2024-12-06 13:30:39.873,52.2,536.0,0.71,0.68,-0.12,6.23,3.39,3.61
2024-12-06 13:30:39.900,54.45,536.0,0.71,0.67,-0.11,6.11,2.29,3.43
2024-12-06 13:30:39.928,56.92,523.0,0.72,0.67,-0.12,7.15,2.36,3.73
2024-12-06 13:30:39.955,54.45,533.0,0.71,0.66,-0.13,8.74,2.78,3.91
2024-12-06 13:30:39.989,51.52,576.0,0.73,0.68,-0.11,9.22,4.19,3.24
2024-12-06 13:30:40.8,49.95,520.0,0.74,0.67,-0.13,9.59,3.7,4.59
2024-12-06 13:30:40.41,51.3,520.0,0.71,0.67,-0.13,9.04,3.39,3.43
2024-12-06 13:30:40.63,49.05,525.0,0.72,0.67,-0.12,7.7,2.9,3.18
2024-12-06 13:30:40.94,49.72,518.0,0.71,0.67,-0.13,6.78,2.29,3.06
2024-12-06 13:30:40.118,45.9,522.0,0.72,0.66,-0.11,5.99,2.78,3.43
2024-12-06 13:30:40.160,47.47,513.0,0.71,0.66,-0.12,5.01,3.58,3.73
2024-12-06 13:30:40.181,46.8,518.0,0.71,0.64,-0.12,3.98,2.9,3.06
2024-12-06 13:30:40.202,43.88,512.0,0.72,0.65,-0.12,3.24,2.11,0.25
2024-12-06 13:30:40.232,42.97,512.0,0.74,0.67,-0.13,3.12,2.11,1.17
2024-12-06 13:30:40.257,40.95,511.0,0.72,0.66,-0.12,2.57,2.84,0.98
2024-12-06 13:30:40.287,42.52,509.0,0.73,0.65,-0.13,1.53,2.42,1.35
2024-12-06 13:30:40.404,36.22,521.0,0.73,0.64,-0.13,1.17,2.17,1.9
2024-12-06 13:30:40.412,40.72,509.0,0.74,0.66,-0.13,1.6,1.93,2.14
2024-12-06 13:30:40.422,29.47,513.0,0.75,0.66,-0.13,1.35,1.93,2.14
2024-12-06 13:30:40.457,34.88,512.0,0.75,0.65,-0.13,1.72,1.74,3.67
2024-12-06 13:30:40.478,33.08,511.0,0.74,0.65,-0.13,2.75,1.68,3.0
2024-12-06 13:30:40.506,32.4,514.0,0.76,0.66,-0.14,3.85,1.87,4.71
2024-12-06 13:30:40.532,29.7,506.0,0.72,0.64,-0.14,4.4,2.11,5.32
2024-12-06 13:30:40.559,30.38,496.0,0.75,0.65,-0.13,4.22,1.93,4.22
2024-12-06 13:30:40.615,27.22,505.0,0.74,0.65,-0.13,4.71,1.87,6.6
2024-12-06 13:30:40.618,26.77,500.0,0.74,0.64,-0.12,4.34,2.29,5.26
2024-12-06 13:30:40.644,27.0,493.0,0.76,0.65,-0.13,3.73,2.23,6.11
2024-12-06 13:30:40.670,23.17,566.0,0.73,0.64,-0.14,3.98,1.81,6.42
2024-12-06 13:30:40.700,26.1,508.0,0.75,0.63,-0.12,3.55,1.93,5.87
2024-12-06 13:30:40.726,21.15,484.0,0.75,0.63,-0.13,3.98,2.48,6.6
2024-12-06 13:30:40.756,24.52,506.0,0.76,0.63,-0.14,4.16,2.42,7.15
2024-12-06 13:30:40.780,26.32,485.0,0.75,0.62,-0.13,3.98,1.74,5.93
2024-12-06 13:30:40.809,18.23,496.0,0.76,0.62,-0.13,3.43,1.74,5.14
2024-12-06 13:30:40.853,20.48,506.0,0.77,0.62,-0.13,3.79,1.87,5.75
2024-12-06 13:30:40.882,18.67,490.0,0.78,0.62,-0.13,3.91,2.66,6.23
2024-12-06 13:30:40.891,21.82,483.0,0.78,0.62,-0.14,4.1,2.36,7.88
2024-12-06 13:30:40.920,20.48,485.0,0.79,0.62,-0.13,4.46,2.17,8.13
2024-12-06 13:30:40.947,14.17,484.0,0.78,0.61,-0.15,4.46,2.42,9.59
2024-12-06 13:30:40.974,17.1,501.0,0.77,0.6,-0.15,4.77,1.44,9.9
2024-12-06 13:30:41.2,15.3,481.0,0.79,0.61,-0.14,3.49,0.83,10.02
2024-12-06 13:30:41.32,15.97,482.0,0.78,0.58,-0.16,5.07,1.44,12.34
2024-12-06 13:30:41.60,14.4,496.0,0.78,0.59,-0.14,3.85,1.93,12.34
2024-12-06 13:30:41.85,7.88,482.0,0.81,0.59,-0.15,3.06,2.23,13.01
2024-12-06 13:30:41.113,8.32,488.0,0.78,0.58,-0.15,3.37,1.38,13.37
2024-12-06 13:30:41.140,7.65,485.0,0.79,0.57,-0.13,3.43,1.44,12.28
2024-12-06 13:30:41.167,10.12,496.0,0.8,0.57,-0.13,3.06,1.38,12.58
2024-12-06 13:30:41.204,7.88,482.0,0.79,0.56,-0.13,2.57,1.62,11.73
2024-12-06 13:30:41.223,5.85,488.0,0.8,0.55,-0.12,1.11,1.44,11.85
2024-12-06 13:30:41.251,2.7,483.0,0.76,0.53,-0.13,0.56,16.03,8.25
2024-12-06 13:30:41.289,3.82,494.0,0.78,0.53,-0.12,-0.54,-0.39,5.5
2024-12-06 13:30:41.306,2.47,487.0,0.8,0.54,-0.14,-1.7,-0.21,5.56
2024-12-06 13:30:41.333,3.38,488.0,0.78,0.54,-0.15,-0.79,0.4,5.14
2024-12-06 13:30:41.456,-1.35,488.0,0.81,0.54,-0.13,-1.15,0.4,3.85
2024-12-06 13:30:42.703,-0.45,478.0,0.8,0.56,-0.13,0.07,0.4,0.56
