Timestamp,PosIsDeg,ForceIs,AccX,AccY,AccZ,GyroX,GyroY,GyroZ
2024-12-06 13:31:36.384,2.25,478.0,0.85,0.47,-0.21,-0.24,0.4,-2.13
2024-12-06 13:31:36.403,-0.22,485.0,0.84,0.46,-0.21,0.25,-2.1,-2.49
2024-12-06 13:31:36.446,1.12,520.0,0.78,0.43,-0.19,-0.6,-1.25,-7.87
2024-12-06 13:31:36.462,1.8,552.0,0.86,0.48,-0.2,0.68,0.95,-9.27
2024-12-06 13:31:36.484,5.85,529.0,0.85,0.5,-0.23,2.51,4.49,-6.46
2024-12-06 13:31:36.514,7.65,494.0,0.9,0.51,-0.25,2.63,4.19,-2.56
2024-12-06 13:31:36.569,9.9,505.0,0.9,0.49,-0.22,2.02,0.83,-0.48
2024-12-06 13:31:36.571,4.72,519.0,0.85,0.48,-0.22,1.66,-1.06,1.72
2024-12-06 13:31:36.593,6.75,512.0,0.79,0.48,-0.22,2.21,1.13,1.78
2024-12-06 13:31:36.637,9.22,509.0,0.8,0.48,-0.21,2.69,3.94,0.13
2024-12-06 13:31:36.648,8.77,512.0,0.84,0.48,-0.21,2.27,4.13,0.56
2024-12-06 13:31:36.688,12.15,516.0,0.86,0.48,-0.21,1.47,1.2,0.07
2024-12-06 13:31:36.704,10.57,500.0,0.83,0.48,-0.19,0.31,-0.33,-1.64
2024-12-06 13:31:36.732,13.72,520.0,0.81,0.48,-0.21,0.56,1.68,-1.4
2024-12-06 13:31:36.761,14.17,512.0,0.83,0.48,-0.23,0.98,3.27,-0.48
2024-12-06 13:31:36.792,17.1,516.0,0.85,0.49,-0.22,0.92,2.42,0.01
2024-12-06 13:31:36.817,20.48,539.0,0.87,0.5,-0.21,0.62,0.34,0.92
2024-12-06 13:31:36.939,18.9,511.0,0.84,0.49,-0.2,0.68,0.04,1.29
2024-12-06 13:31:36.946,16.88,516.0,0.9,0.43,-0.22,2.27,6.2,-6.58
2024-12-06 13:31:36.951,25.42,524.0,0.85,0.51,-0.22,1.47,1.93,-7.93
2024-12-06 13:31:36.981,21.38,508.0,0.78,0.51,-0.2,2.27,-2.34,-4.69
2024-12-06 13:31:37.13,24.07,508.0,0.75,0.5,-0.18,3.55,0.95,-3.17
2024-12-06 13:31:37.34,26.55,520.0,0.77,0.5,-0.2,3.49,6.38,-3.53
2024-12-06 13:31:37.62,27.67,534.0,0.82,0.48,-0.21,2.63,4.8,-4.81
2024-12-06 13:31:37.89,26.55,515.0,0.86,0.48,-0.23,2.02,0.4,-5.48
2024-12-06 13:31:37.133,29.47,503.0,0.82,0.49,-0.21,2.21,-1.61,-6.03
2024-12-06 13:31:37.145,29.02,517.0,0.81,0.52,-0.2,2.51,0.65,-6.83
2024-12-06 13:31:37.172,29.47,516.0,0.83,0.51,-0.21,2.75,4.0,-3.17
2024-12-06 13:31:37.200,28.12,518.0,0.84,0.49,-0.21,2.21,2.9,-3.84
2024-12-06 13:31:37.237,29.7,521.0,0.84,0.5,-0.21,1.72,-0.09,-4.94
2024-12-06 13:31:37.255,35.1,516.0,0.83,0.53,-0.2,2.14,0.52,-3.29
2024-12-06 13:31:37.287,32.62,506.0,0.83,0.54,-0.2,1.35,2.6,-0.6
2024-12-06 13:31:37.310,34.88,535.0,0.82,0.51,-0.22,1.29,2.48,-0.91
2024-12-06 13:31:37.355,38.25,530.0,0.83,0.5,-0.19,1.72,-0.15,-1.7
2024-12-06 13:31:37.367,38.47,524.0,0.81,0.51,-0.2,1.53,-0.09,-1.76
2024-12-06 13:31:37.396,37.12,518.0,0.8,0.53,-0.21,1.47,2.29,-1.76
2024-12-06 13:31:37.423,39.38,530.0,0.81,0.52,-0.2,1.35,2.05,-1.82
2024-12-06 13:31:37.450,42.75,527.0,0.83,0.52,-0.22,0.98,2.11,-1.76
2024-12-06 13:31:37.475,42.52,532.0,0.81,0.51,-0.21,0.74,1.2,-1.64
2024-12-06 13:31:37.512,44.1,531.0,0.81,0.52,-0.2,0.56,0.59,-2.19
2024-12-06 13:31:37.531,42.75,536.0,0.81,0.52,-0.21,0.62,0.59,-1.27
2024-12-06 13:31:37.561,41.4,534.0,0.78,0.5,-0.2,0.25,0.77,-3.1
2024-12-06 13:31:37.588,45.0,547.0,0.81,0.52,-0.2,0.19,0.28,-4.94
2024-12-06 13:31:37.619,48.6,533.0,0.82,0.54,-0.21,-0.05,0.1,-3.59
2024-12-06 13:31:37.642,45.9,545.0,0.82,0.54,-0.2,-1.27,0.34,-2.68
2024-12-06 13:31:37.692,47.7,536.0,0.81,0.52,-0.23,-1.03,0.22,-2.13
2024-12-06 13:31:37.697,46.57,541.0,0.8,0.51,-0.21,-0.11,-1.25,-2.43
2024-12-06 13:31:37.725,47.02,532.0,0.8,0.54,-0.2,-0.42,-0.45,-3.84
2024-12-06 13:31:37.752,48.82,540.0,0.8,0.54,-0.2,-0.42,0.89,-2.92
2024-12-06 13:31:37.780,55.12,541.0,0.8,0.53,-0.21,-0.66,1.01,-3.1
2024-12-06 13:31:37.808,55.8,517.0,0.8,0.54,-0.21,-1.09,0.28,-2.92
2024-12-06 13:31:37.835,51.97,544.0,0.8,0.54,-0.21,-0.79,-0.27,-2.74
2024-12-06 13:31:37.865,54.45,559.0,0.8,0.56,-0.2,-1.21,-0.64,-2.25
2024-12-06 13:31:37.975,56.7,560.0,0.79,0.55,-0.2,-1.09,-0.09,-2.31
2024-12-06 13:31:38.1,60.75,542.0,0.79,0.55,-0.21,-0.6,0.89,-1.52
2024-12-06 13:31:38.31,56.92,553.0,0.81,0.56,-0.21,-0.54,0.1,-1.52
2024-12-06 13:31:38.56,64.57,535.0,0.8,0.56,-0.22,-1.09,-0.09,-0.3
2024-12-06 13:31:38.83,60.52,542.0,0.8,0.56,-0.2,-1.03,0.04,0.92
2024-12-06 13:31:38.119,58.95,551.0,0.78,0.55,-0.21,-0.91,1.07,0.74
2024-12-06 13:31:38.181,64.57,557.0,0.8,0.56,-0.21,-0.72,0.59,0.25
2024-12-06 13:31:38.193,67.05,556.0,0.79,0.57,-0.21,-1.03,0.95,0.44
2024-12-06 13:31:38.226,70.65,547.0,0.79,0.56,-0.21,-1.03,1.07,0.31
2024-12-06 13:31:38.256,68.85,547.0,0.8,0.58,-0.2,-1.21,-0.15,1.29
2024-12-06 13:31:38.282,72.45,580.0,0.78,0.56,-0.21,-1.7,0.65,1.66
2024-12-06 13:31:38.305,72.45,561.0,0.8,0.55,-0.2,-1.46,-0.7,1.29
2024-12-06 13:31:38.336,73.57,576.0,0.79,0.56,-0.2,-1.82,-0.45,1.9
2024-12-06 13:31:38.375,65.92,564.0,0.78,0.54,-0.21,-1.46,-0.57,1.47
2024-12-06 13:31:38.388,71.32,560.0,0.79,0.56,-0.2,-1.46,-1.18,0.92
2024-12-06 13:31:38.414,71.78,559.0,0.78,0.57,-0.2,-1.7,0.46,0.68
2024-12-06 13:31:38.449,77.85,575.0,0.8,0.57,-0.2,-1.64,0.04,1.53
2024-12-06 13:31:38.469,81.0,556.0,0.79,0.55,-0.22,-1.46,0.52,1.35
2024-12-06 13:31:38.497,80.32,548.0,0.8,0.55,-0.2,-1.09,-0.21,1.35
2024-12-06 13:31:38.536,76.72,621.0,0.8,0.57,-0.2,-0.85,-0.33,2.14
2024-12-06 13:31:38.597,82.57,571.0,0.81,0.55,-0.21,-0.17,-0.33,2.82
2024-12-06 13:31:38.612,83.7,576.0,0.78,0.53,-0.2,-0.54,-0.21,1.9
2024-12-06 13:31:38.634,81.22,569.0,0.79,0.56,-0.19,-0.91,1.26,2.45
2024-12-06 13:31:38.662,85.72,566.0,0.78,0.57,-0.19,-1.82,1.56,3.0
2024-12-06 13:31:38.691,88.42,575.0,0.79,0.55,-0.22,-2.98,2.05,2.57
2024-12-06 13:31:40.190,89.55,562.0,0.79,0.56,-0.2,0.07,0.52,1.11
2024-12-06 13:31:40.193,87.3,561.0,0.79,0.56,-0.2,0.19,0.65,1.11
2024-12-06 13:31:40.212,87.07,557.0,0.79,0.56,-0.2,0.25,0.65,1.05
2024-12-06 13:31:40.220,90.22,566.0,0.79,0.56,-0.2,0.31,0.65,0.92
2024-12-06 13:31:40.230,86.62,566.0,0.79,0.56,-0.2,0.31,0.4,0.8
2024-12-06 13:31:40.239,83.7,573.0,0.79,0.56,-0.2,0.31,0.4,0.8
2024-12-06 13:31:40.241,88.42,574.0,0.79,0.56,-0.2,0.37,0.22,0.68
2024-12-06 13:31:40.247,86.62,557.0,0.79,0.56,-0.2,0.37,0.1,0.56
2024-12-06 13:31:40.258,91.8,556.0,0.79,0.56,-0.2,0.44,0.04,0.44
2024-12-06 13:31:40.262,88.2,561.0,0.79,0.56,-0.2,0.62,-0.03,0.31
2024-12-06 13:31:40.269,91.12,575.0,0.78,0.56,-0.2,0.62,-0.03,0.31
2024-12-06 13:31:40.282,90.45,567.0,0.78,0.56,-0.2,0.74,0.1,0.31
2024-12-06 13:31:40.293,88.65,568.0,0.79,0.56,-0.19,0.68,0.46,0.31
2024-12-06 13:31:40.310,90.67,572.0,0.79,0.56,-0.19,0.56,0.71,0.31
2024-12-06 13:31:40.316,85.95,578.0,0.79,0.55,-0.19,0.56,0.71,0.31
2024-12-06 13:31:40.327,88.42,575.0,0.79,0.55,-0.19,0.56,0.65,0.25
2024-12-06 13:31:40.342,87.97,559.0,0.79,0.55,-0.19,0.44,0.65,0.13
2024-12-06 13:31:40.345,88.2,583.0,0.79,0.56,-0.19,0.37,0.77,0.01
2024-12-06 13:31:40.350,83.25,566.0,0.79,0.56,-0.19,0.31,0.89,-0.11
2024-12-06 13:31:40.360,89.32,582.0,0.79,0.56,-0.19,0.31,0.95,-0.24
2024-12-06 13:31:40.369,86.4,559.0,0.79,0.56,-0.2,0.31,0.95,-0.24
2024-12-06 13:31:40.372,86.17,564.0,0.79,0.56,-0.2,0.31,1.01,-0.24
2024-12-06 13:31:40.403,85.95,564.0,0.79,0.56,-0.2,0.44,1.07,-0.11
2024-12-06 13:31:40.407,84.15,558.0,0.79,0.56,-0.2,0.5,1.13,-0.05
2024-12-06 13:31:40.409,89.55,574.0,0.79,0.56,-0.2,0.56,1.2,-0.05
2024-12-06 13:31:40.417,90.22,557.0,0.79,0.56,-0.2,0.56,1.13,-0.05
2024-12-06 13:31:40.427,84.6,573.0,0.79,0.56,-0.2,0.5,1.07,0.07
2024-12-06 13:31:40.439,84.6,566.0,0.79,0.56,-0.2,0.5,0.89,0.19
2024-12-06 13:31:40.441,84.15,571.0,0.8,0.56,-0.2,0.44,0.65,0.31
2024-12-06 13:31:40.447,85.5,576.0,0.8,0.56,-0.2,0.44,0.65,0.31
2024-12-06 13:31:40.470,89.55,580.0,0.79,0.56,-0.2,0.44,0.59,0.37
2024-12-06 13:31:40.477,87.52,563.0,0.79,0.56,-0.19,0.31,0.65,0.25
2024-12-06 13:31:40.484,85.05,564.0,0.79,0.56,-0.19,0.25,0.71,0.25
2024-12-06 13:31:40.491,89.55,552.0,0.79,0.56,-0.19,0.25,0.71,0.25
2024-12-06 13:31:40.503,87.75,549.0,0.79,0.56,-0.19,0.19,0.77,0.31
2024-12-06 13:31:40.506,90.0,560.0,0.79,0.56,-0.19,0.25,0.83,0.44
2024-12-06 13:31:40.514,88.2,568.0,0.79,0.56,-0.2,0.25,0.89,0.5
2024-12-06 13:31:40.524,88.65,573.0,0.79,0.56,-0.2,0.19,0.95,0.62
2024-12-06 13:31:40.530,84.38,565.0,0.79,0.56,-0.2,0.19,0.89,0.68
2024-12-06 13:31:40.533,83.92,570.0,0.79,0.56,-0.2,0.19,0.89,0.68
2024-12-06 13:31:40.542,88.65,575.0,0.79,0.56,-0.2,0.19,0.89,0.68
2024-12-06 13:31:40.549,89.32,566.0,0.79,0.56,-0.2,0.07,0.83,0.62
2024-12-06 13:31:40.561,88.2,569.0,0.79,0.56,-0.2,0.01,0.71,0.62
2024-12-06 13:31:40.564,84.38,564.0,0.79,0.56,-0.2,0.01,0.59,0.56
2024-12-06 13:31:40.574,86.4,570.0,0.79,0.56,-0.2,0.07,0.52,0.5
2024-12-06 13:31:40.580,87.07,565.0,0.79,0.56,-0.2,0.07,0.52,0.5
2024-12-06 13:31:40.588,84.82,561.0,0.79,0.57,-0.2,0.25,0.52,0.5
2024-12-06 13:31:40.598,84.82,539.0,0.79,0.57,-0.2,0.31,0.4,0.56
2024-12-06 13:31:41.606,86.85,554.0,0.78,0.57,-0.2,0.25,1.32,-0.24
2024-12-06 13:31:41.631,81.22,566.0,0.78,0.64,-0.2,-0.54,-1.31,0.5
2024-12-06 13:31:41.659,81.67,565.0,0.78,0.72,-0.17,-3.84,1.07,6.6
2024-12-06 13:31:41.689,78.07,594.0,0.77,0.67,-0.25,-5.42,-0.27,13.62
2024-12-06 13:31:41.714,72.67,558.0,0.73,0.57,-0.3,-0.66,1.56,20.64
2024-12-06 13:31:41.760,69.97,564.0,0.88,0.36,-0.17,-0.85,-1.12,8.55
2024-12-06 13:31:41.778,69.75,549.0,0.83,0.47,-0.19,-0.48,0.59,7.52
2024-12-06 13:31:41.802,68.85,546.0,0.8,0.46,-0.17,0.25,-1.18,0.68
2024-12-06 13:31:41.830,70.42,561.0,0.79,0.48,-0.14,3.91,3.39,-4.63
2024-12-06 13:31:41.855,69.07,557.0,0.81,0.55,-0.17,6.36,3.76,-5.91
2024-12-06 13:31:41.887,65.25,548.0,0.81,0.59,-0.22,6.42,5.22,-4.2
2024-12-06 13:31:41.909,63.45,552.0,0.82,0.58,-0.24,3.49,3.27,-0.36
2024-12-06 13:31:41.938,58.95,545.0,0.81,0.53,-0.23,1.17,0.65,3.37
2024-12-06 13:31:41.984,67.28,563.0,0.82,0.54,-0.19,1.47,-0.51,4.71
2024-12-06 13:31:41.991,65.25,557.0,0.82,0.56,-0.19,3.67,1.01,5.99
2024-12-06 13:31:42.18,59.17,551.0,0.8,0.55,-0.18,4.89,2.97,4.77
2024-12-06 13:31:42.47,59.4,548.0,0.8,0.52,-0.18,3.98,1.93,3.24
2024-12-06 13:31:42.73,63.9,542.0,0.79,0.53,-0.19,2.75,1.01,2.75
2024-12-06 13:31:42.172,61.42,548.0,0.8,0.55,-0.21,1.35,1.56,3.67
2024-12-06 13:31:42.184,57.82,566.0,0.81,0.54,-0.2,1.29,-0.09,2.75
2024-12-06 13:31:42.218,56.92,556.0,0.81,0.53,-0.19,1.66,0.34,2.33
2024-12-06 13:31:42.238,51.97,539.0,0.79,0.52,-0.2,2.33,1.2,2.08
2024-12-06 13:31:42.266,54.0,541.0,0.8,0.53,-0.2,2.14,1.62,1.05
2024-12-06 13:31:42.294,48.82,549.0,0.8,0.53,-0.2,1.6,1.38,1.17
2024-12-06 13:31:42.321,54.9,556.0,0.79,0.53,-0.21,0.8,0.95,0.31
2024-12-06 13:31:42.349,52.2,548.0,0.8,0.54,-0.2,0.5,1.2,0.74
2024-12-06 13:31:42.377,46.12,552.0,0.8,0.51,-0.2,0.37,1.38,1.11
2024-12-06 13:31:42.405,49.05,566.0,0.81,0.53,-0.2,0.31,0.95,0.56
2024-12-06 13:31:42.440,47.92,548.0,0.81,0.54,-0.19,0.19,0.65,0.92
2024-12-06 13:31:42.462,43.42,555.0,0.8,0.54,-0.21,0.62,0.89,-0.42
2024-12-06 13:31:42.489,43.2,555.0,0.82,0.54,-0.2,0.74,0.89,0.13
2024-12-06 13:31:42.515,40.27,536.0,0.79,0.53,-0.21,0.74,0.95,0.56
2024-12-06 13:31:42.542,40.95,539.0,0.81,0.53,-0.2,0.56,1.2,-0.24
2024-12-06 13:31:42.571,41.85,542.0,0.81,0.55,-0.21,0.62,1.81,1.66
2024-12-06 13:31:42.601,39.15,552.0,0.79,0.53,-0.21,0.8,1.99,0.98
2024-12-06 13:31:42.627,41.62,544.0,0.81,0.53,-0.19,0.5,1.5,0.25
2024-12-06 13:31:42.653,39.38,539.0,0.79,0.53,-0.2,0.92,1.81,0.19
2024-12-06 13:31:42.705,36.22,539.0,0.8,0.54,-0.19,1.41,2.36,-0.72
2024-12-06 13:31:42.710,39.15,549.0,0.82,0.55,-0.21,1.53,2.66,0.19
2024-12-06 13:31:42.743,33.52,517.0,0.8,0.54,-0.22,1.6,2.11,0.25
2024-12-06 13:31:42.764,36.0,538.0,0.82,0.54,-0.2,1.9,2.23,0.74
2024-12-06 13:31:42.797,37.35,550.0,0.82,0.55,-0.21,2.51,3.03,2.21
2024-12-06 13:31:42.819,31.95,531.0,0.8,0.52,-0.2,3.0,2.48,1.72
2024-12-06 13:31:42.848,31.05,527.0,0.81,0.52,-0.19,2.39,2.17,1.05
2024-12-06 13:31:42.893,28.57,535.0,0.81,0.53,-0.2,2.51,2.17,1.96
2024-12-06 13:31:42.912,29.47,536.0,0.82,0.54,-0.19,2.39,2.72,2.33
2024-12-06 13:31:42.931,28.57,552.0,0.83,0.54,-0.2,2.02,2.29,2.94
2024-12-06 13:31:42.958,27.0,544.0,0.81,0.53,-0.2,1.9,1.5,3.61
2024-12-06 13:31:42.988,27.45,537.0,0.81,0.53,-0.19,2.14,1.38,2.88
2024-12-06 13:31:43.17,28.35,529.0,0.81,0.53,-0.2,2.27,1.62,4.04
2024-12-06 13:31:43.45,26.77,541.0,0.81,0.52,-0.19,2.39,2.42,3.3
2024-12-06 13:31:43.72,23.85,528.0,0.83,0.53,-0.2,2.14,2.05,4.65
2024-12-06 13:31:43.115,24.75,533.0,0.8,0.52,-0.2,2.45,1.07,5.14
2024-12-06 13:31:43.122,24.75,535.0,0.82,0.51,-0.19,1.96,1.44,3.61
2024-12-06 13:31:43.216,20.48,540.0,0.82,0.51,-0.18,1.11,2.05,3.18
2024-12-06 13:31:43.232,12.82,521.0,0.83,0.52,-0.19,0.8,1.93,4.04
2024-12-06 13:31:43.260,16.65,534.0,0.83,0.52,-0.19,0.13,1.62,3.91
2024-12-06 13:31:43.291,12.82,564.0,0.83,0.51,-0.21,0.74,0.71,4.89
2024-12-06 13:31:43.339,14.85,528.0,0.82,0.51,-0.19,1.11,0.16,5.75
2024-12-06 13:31:43.348,11.02,508.0,0.83,0.51,-0.19,0.92,0.16,4.71
2024-12-06 13:31:43.375,9.68,528.0,0.82,0.51,-0.19,0.62,-0.27,5.38
2024-12-06 13:31:43.398,14.62,524.0,0.79,0.49,-0.17,-1.03,-0.94,3.85
2024-12-06 13:31:43.426,12.38,520.0,0.83,0.5,-0.19,-1.94,-0.27,3.06
2024-12-06 13:31:43.454,5.62,503.0,0.82,0.5,-0.2,-1.33,-0.33,3.91
2024-12-06 13:31:43.482,6.75,528.0,0.82,0.5,-0.2,-0.97,1.13,2.82
2024-12-06 13:31:43.508,8.55,511.0,0.85,0.51,-0.2,-0.11,2.54,4.77
2024-12-06 13:31:43.536,2.92,508.0,0.85,0.51,-0.2,-0.17,1.01,5.81
2024-12-06 13:31:43.569,3.82,479.0,0.82,0.49,-0.19,-0.72,-1.12,3.49
2024-12-06 13:31:43.591,-1.35,488.0,0.84,0.49,-0.19,-0.72,-1.43,3.37
2024-12-06 13:31:43.619,4.95,489.0,0.82,0.5,-0.22,-0.66,-0.15,5.68
2024-12-06 13:31:43.647,-1.12,495.0,0.8,0.49,-0.2,0.56,1.13,3.37
2024-12-06 13:31:43.684,0.67,493.0,0.82,0.49,-0.21,0.62,1.81,3.06
2024-12-06 13:31:45.65,1.12,482.0,0.83,0.51,-0.2,0.5,0.77,0.98
2024-12-06 13:31:47.529,-0.67,495.0,0.82,0.51,-0.2,0.25,0.77,0.68
2024-12-06 13:31:47.556,-0.45,492.0,0.82,0.51,-0.19,0.5,-0.57,-0.11
2024-12-06 13:31:47.587,-2.02,493.0,0.79,0.5,-0.19,0.37,-1.18,-3.84
2024-12-06 13:31:47.633,0.45,497.0,0.82,0.52,-0.19,-0.54,-0.21,-3.35
2024-12-06 13:31:47.657,5.62,498.0,0.81,0.52,-0.22,0.86,0.83,-2.74
2024-12-06 13:31:47.675,-1.12,512.0,0.84,0.52,-0.2,0.92,1.68,-2.01
2024-12-06 13:31:47.693,2.7,504.0,0.8,0.51,-0.2,1.29,-0.33,-2.19
2024-12-06 13:31:47.721,2.47,513.0,0.81,0.52,-0.19,0.68,0.22,-3.84
2024-12-06 13:31:47.748,10.35,504.0,0.8,0.52,-0.2,1.6,1.68,-3.53
2024-12-06 13:31:47.779,6.07,506.0,0.83,0.52,-0.2,1.6,3.45,-4.51
2024-12-06 13:31:47.805,9.9,525.0,0.85,0.52,-0.2,0.07,2.29,-4.57
2024-12-06 13:31:47.832,4.28,544.0,0.81,0.5,-0.2,-0.66,1.38,-8.9
2024-12-06 13:31:47.887,12.15,505.0,0.8,0.52,-0.16,-1.46,-1.06,-8.29
2024-12-06 13:31:47.891,8.1,498.0,0.76,0.57,-0.19,-0.36,-0.21,-4.2
2024-12-06 13:31:47.920,13.05,503.0,0.78,0.55,-0.2,0.13,2.72,-4.45
2024-12-06 13:31:47.943,10.57,521.0,0.84,0.56,-0.22,0.01,2.36,-2.8
2024-12-06 13:31:47.969,16.42,526.0,0.84,0.56,-0.22,0.37,0.28,-2.62
2024-12-06 13:31:47.997,16.2,509.0,0.82,0.56,-0.2,0.62,-1.18,-1.52
2024-12-06 13:31:48.27,17.55,540.0,0.79,0.56,-0.2,1.47,0.59,1.29
2024-12-06 13:31:48.53,20.02,508.0,0.79,0.54,-0.19,2.33,2.6,0.44
2024-12-06 13:31:48.97,18.67,534.0,0.8,0.55,-0.2,2.27,2.05,-0.48
2024-12-06 13:31:48.108,19.12,513.0,0.79,0.54,-0.2,2.51,1.07,-1.03
2024-12-06 13:31:48.137,21.6,516.0,0.79,0.55,-0.19,2.57,0.46,-2.19
2024-12-06 13:31:48.164,19.12,516.0,0.79,0.56,-0.19,2.45,1.38,-1.82
2024-12-06 13:31:48.192,27.0,510.0,0.8,0.56,-0.2,1.9,2.66,-0.97
2024-12-06 13:31:48.221,21.82,512.0,0.81,0.55,-0.2,1.47,1.68,-0.85
2024-12-06 13:31:48.246,21.38,525.0,0.8,0.54,-0.2,1.17,0.46,-1.4
2024-12-06 13:31:48.276,27.45,533.0,0.78,0.54,-0.19,1.41,-0.03,-2.19
2024-12-06 13:31:48.312,25.88,531.0,0.77,0.54,-0.19,1.35,1.56,-2.98
2024-12-06 13:31:48.330,27.45,530.0,0.8,0.56,-0.2,0.8,2.05,-1.88
2024-12-06 13:31:48.357,29.47,538.0,0.79,0.55,-0.19,-0.17,0.71,-2.37
2024-12-06 13:31:48.466,30.15,532.0,0.8,0.55,-0.19,-1.21,-0.03,-2.98
2024-12-06 13:31:48.469,28.57,556.0,0.79,0.56,-0.21,-1.52,0.22,-3.1
2024-12-06 13:31:48.496,35.1,530.0,0.79,0.56,-0.21,-0.97,-0.7,-3.59
2024-12-06 13:31:48.568,36.0,534.0,0.8,0.58,-0.21,-1.82,-0.57,-1.76
2024-12-06 13:31:48.574,34.2,561.0,0.78,0.56,-0.19,-1.46,-1.12,-1.46
2024-12-06 13:31:48.594,36.67,523.0,0.79,0.56,-0.19,-1.7,-0.94,-1.46
2024-12-06 13:31:48.604,34.65,543.0,0.79,0.57,-0.19,-1.52,-0.33,-0.3
2024-12-06 13:31:48.635,34.42,519.0,0.77,0.57,-0.2,-1.03,-0.7,-1.82
2024-12-06 13:31:48.662,40.72,534.0,0.79,0.58,-0.21,-0.11,-0.64,-1.58
2024-12-06 13:31:48.691,38.47,533.0,0.78,0.58,-0.21,0.37,0.1,-0.66
2024-12-06 13:31:48.716,39.38,544.0,0.76,0.57,-0.2,-0.17,0.83,-1.27
2024-12-06 13:31:48.779,41.62,525.0,0.78,0.58,-0.19,0.37,0.59,-2.07
2024-12-06 13:31:48.785,42.75,556.0,0.78,0.58,-0.21,0.68,1.07,-1.15
2024-12-06 13:31:48.797,46.12,548.0,0.78,0.58,-0.2,1.05,0.83,-2.19
2024-12-06 13:31:48.825,45.45,552.0,0.78,0.58,-0.21,1.23,0.22,-1.64
2024-12-06 13:31:48.852,47.92,548.0,0.77,0.58,-0.2,1.23,-0.15,-1.58
2024-12-06 13:31:48.880,46.12,531.0,0.79,0.59,-0.19,0.74,0.22,-1.15
2024-12-06 13:31:48.908,52.88,537.0,0.78,0.58,-0.21,0.19,0.4,0.25
2024-12-06 13:31:48.936,48.6,530.0,0.76,0.56,-0.22,0.62,-0.27,-0.79
2024-12-06 13:31:48.995,53.55,555.0,0.79,0.58,-0.18,0.62,-0.76,-0.24
2024-12-06 13:31:48.997,49.05,547.0,0.77,0.59,-0.2,0.25,0.16,0.07
2024-12-06 13:31:49.23,49.72,544.0,0.77,0.59,-0.19,-0.85,0.59,0.07
2024-12-06 13:31:49.46,56.47,536.0,0.77,0.58,-0.21,-0.97,0.52,0.01
2024-12-06 13:31:49.74,55.12,540.0,0.76,0.56,-0.2,-0.6,-0.27,-1.09
2024-12-06 13:31:49.101,55.57,537.0,0.77,0.59,-0.18,-0.85,-0.64,-1.15
2024-12-06 13:31:49.129,57.82,535.0,0.76,0.6,-0.2,-1.64,1.5,-0.48
2024-12-06 13:31:49.157,60.3,542.0,0.78,0.59,-0.21,-1.03,0.95,-0.66
2024-12-06 13:31:49.185,56.92,541.0,0.78,0.58,-0.21,-0.72,0.22,0.07
2024-12-06 13:31:49.223,60.97,537.0,0.76,0.56,-0.19,-0.11,-0.7,-1.15
2024-12-06 13:31:49.241,58.95,542.0,0.77,0.6,-0.19,0.13,0.65,-1.09
2024-12-06 13:31:49.267,62.32,560.0,0.76,0.59,-0.2,-0.05,1.93,-0.05
2024-12-06 13:31:49.296,64.57,544.0,0.77,0.59,-0.2,-1.15,0.59,-0.85
2024-12-06 13:31:49.323,60.3,544.0,0.77,0.6,-0.2,-1.88,-0.15,-0.36
2024-12-06 13:31:49.350,65.25,542.0,0.75,0.59,-0.21,-1.27,0.52,-0.54
2024-12-06 13:31:49.377,65.7,546.0,0.77,0.58,-0.19,-1.46,-0.15,-0.66
2024-12-06 13:31:49.408,63.0,613.0,0.76,0.59,-0.2,-1.82,0.46,-1.21
2024-12-06 13:31:49.509,66.6,547.0,0.77,0.6,-0.21,-1.46,-0.21,-1.15
2024-12-06 13:31:49.521,68.17,546.0,0.76,0.6,-0.2,-1.33,0.52,0.86
2024-12-06 13:31:49.525,69.53,558.0,0.77,0.59,-0.2,-1.4,-0.45,1.41
2024-12-06 13:31:49.543,69.75,565.0,0.77,0.6,-0.19,-1.15,-1.12,1.78
2024-12-06 13:31:49.580,73.12,542.0,0.76,0.6,-0.19,-1.52,-0.21,2.63
2024-12-06 13:31:49.600,69.3,566.0,0.76,0.59,-0.19,-1.7,0.1,2.33
2024-12-06 13:31:49.626,71.32,565.0,0.76,0.59,-0.2,-1.58,0.4,2.27
2024-12-06 13:31:49.669,74.03,562.0,0.77,0.58,-0.19,-0.85,-0.03,1.41
2024-12-06 13:31:49.680,79.2,556.0,0.77,0.6,-0.19,-1.27,-0.39,1.6
2024-12-06 13:31:49.712,77.17,557.0,0.75,0.6,-0.21,-1.15,0.52,1.29
2024-12-06 13:31:49.736,78.97,556.0,0.77,0.6,-0.19,-1.15,-0.64,1.35
2024-12-06 13:31:49.769,78.97,554.0,0.76,0.6,-0.2,-1.7,-0.21,1.35
2024-12-06 13:31:49.791,80.1,555.0,0.77,0.58,-0.2,-1.09,-0.03,0.68
2024-12-06 13:31:49.819,80.32,564.0,0.77,0.6,-0.18,-0.85,-1.37,0.86
2024-12-06 13:31:49.850,79.88,553.0,0.76,0.59,-0.2,-0.91,0.77,0.62
2024-12-06 13:31:49.894,84.15,571.0,0.77,0.59,-0.19,-0.17,0.71,0.86
2024-12-06 13:31:49.902,82.12,563.0,0.76,0.61,-0.19,-1.15,0.71,1.53
2024-12-06 13:31:49.929,87.07,568.0,0.77,0.61,-0.2,-1.33,0.83,2.02
2024-12-06 13:31:51.319,85.05,556.0,0.77,0.59,-0.19,0.92,0.95,1.29
2024-12-06 13:31:51.348,89.1,585.0,0.76,0.59,-0.19,1.17,1.5,1.47
2024-12-06 13:31:51.351,86.85,565.0,0.77,0.59,-0.19,1.35,1.5,1.53
2024-12-06 13:31:51.359,88.2,565.0,0.77,0.59,-0.2,1.35,1.5,1.53
2024-12-06 13:31:51.367,90.0,554.0,0.77,0.59,-0.2,1.47,1.32,1.47
2024-12-06 13:31:51.378,90.67,566.0,0.77,0.59,-0.2,1.66,1.26,1.35
2024-12-06 13:31:51.394,84.38,547.0,0.76,0.59,-0.19,1.66,1.13,1.17
2024-12-06 13:31:51.401,84.38,561.0,0.76,0.59,-0.19,1.6,1.13,0.86
2024-12-06 13:31:51.404,89.55,554.0,0.76,0.59,-0.19,1.47,1.13,0.86
2024-12-06 13:31:51.414,85.05,559.0,0.76,0.59,-0.19,1.41,1.07,0.86
2024-12-06 13:31:51.433,85.95,565.0,0.76,0.6,-0.19,1.35,1.01,0.92
2024-12-06 13:31:52.444,86.85,596.0,0.77,0.59,-0.19,0.8,0.59,0.62
2024-12-06 13:31:52.455,86.4,542.0,0.77,0.6,-0.18,-0.36,-1.86,1.47
2024-12-06 13:31:52.495,80.55,547.0,0.76,0.75,-0.16,-3.9,0.95,8.19
2024-12-06 13:31:52.511,82.12,549.0,0.7,0.77,-0.26,-2.01,-5.7,21.98
2024-12-06 13:31:52.539,78.07,565.0,0.82,0.42,-0.29,-1.33,4.92,13.13
2024-12-06 13:31:52.662,71.32,540.0,0.83,0.51,-0.24,-1.03,1.56,14.41
2024-12-06 13:31:52.666,70.42,545.0,0.76,0.53,-0.12,6.42,5.65,1.96
2024-12-06 13:31:52.681,68.4,546.0,0.81,0.59,-0.16,8.68,8.7,-0.36
2024-12-06 13:31:52.726,60.52,559.0,0.79,0.57,-0.2,6.29,4.8,-2.56
2024-12-06 13:31:52.732,63.22,545.0,0.79,0.56,-0.21,1.78,0.34,-1.58
2024-12-06 13:31:52.765,66.15,551.0,0.75,0.55,-0.23,-0.17,0.34,3.18
2024-12-06 13:31:52.790,62.1,547.0,0.79,0.56,-0.19,-0.72,1.26,3.85
2024-12-06 13:31:52.814,62.77,538.0,0.82,0.57,-0.19,-0.17,0.83,4.46
2024-12-06 13:31:52.868,63.67,536.0,0.8,0.55,-0.19,0.8,-0.27,2.33
2024-12-06 13:31:52.870,60.07,534.0,0.79,0.54,-0.17,0.98,0.46,1.35
2024-12-06 13:31:52.896,63.22,552.0,0.78,0.54,-0.19,0.98,0.95,1.96
2024-12-06 13:31:52.925,57.6,538.0,0.79,0.56,-0.19,0.74,1.13,1.78
2024-12-06 13:31:52.954,58.05,554.0,0.81,0.58,-0.2,0.19,0.1,2.82
2024-12-06 13:31:52.980,55.57,544.0,0.78,0.56,-0.2,0.19,-0.57,3.0
2024-12-06 13:31:53.9,55.57,523.0,0.79,0.55,-0.19,0.5,-0.7,1.9
2024-12-06 13:31:53.35,56.47,533.0,0.77,0.56,-0.2,0.98,-0.27,1.78
2024-12-06 13:31:53.76,51.52,526.0,0.78,0.55,-0.2,1.11,-0.76,0.68
2024-12-06 13:31:53.97,51.52,535.0,0.79,0.56,-0.19,0.37,-1.06,-0.42
2024-12-06 13:31:53.140,58.27,540.0,0.78,0.56,-0.2,-0.05,-0.09,0.31
2024-12-06 13:31:53.146,50.85,541.0,0.79,0.56,-0.2,-0.05,0.71,0.13
2024-12-06 13:31:53.186,49.05,514.0,0.8,0.56,-0.2,-0.05,0.89,0.74
2024-12-06 13:31:53.201,48.6,541.0,0.79,0.56,-0.2,0.37,0.16,0.68
2024-12-06 13:31:53.228,47.25,517.0,0.79,0.56,-0.21,0.68,0.65,-0.3
2024-12-06 13:31:53.257,49.5,511.0,0.79,0.57,-0.19,0.98,1.62,0.56
2024-12-06 13:31:53.285,44.32,536.0,0.79,0.56,-0.21,1.47,1.74,0.19
2024-12-06 13:31:53.313,44.55,525.0,0.8,0.57,-0.21,1.47,1.56,0.74
2024-12-06 13:31:53.339,45.22,536.0,0.77,0.55,-0.21,1.6,0.77,0.19
2024-12-06 13:31:53.371,43.42,535.0,0.8,0.56,-0.19,1.41,1.01,-0.42
2024-12-06 13:31:53.402,44.1,532.0,0.8,0.58,-0.2,1.29,2.72,1.72
2024-12-06 13:31:53.422,43.2,523.0,0.77,0.55,-0.21,1.23,2.17,1.41
2024-12-06 13:31:53.450,40.72,525.0,0.79,0.55,-0.2,0.8,0.95,-0.24
2024-12-06 13:31:53.484,38.02,545.0,0.77,0.55,-0.2,0.92,1.56,-0.05
2024-12-06 13:31:53.506,35.1,520.0,0.79,0.56,-0.19,1.11,2.17,-1.4
2024-12-06 13:31:53.533,39.15,517.0,0.8,0.57,-0.21,1.41,2.11,0.13
2024-12-06 13:31:53.559,38.25,515.0,0.78,0.55,-0.2,1.35,1.13,-0.05
2024-12-06 13:31:53.587,37.58,526.0,0.79,0.56,-0.2,1.29,1.56,0.37
2024-12-06 13:31:53.706,35.77,513.0,0.79,0.57,-0.2,1.78,2.66,1.29
2024-12-06 13:31:53.710,35.77,515.0,0.79,0.56,-0.2,2.14,2.72,1.47
2024-12-06 13:31:53.727,27.22,505.0,0.8,0.57,-0.2,1.96,2.48,1.78
2024-12-06 13:31:53.755,25.42,520.0,0.79,0.56,-0.21,2.27,2.42,2.33
2024-12-06 13:31:53.788,28.12,503.0,0.78,0.56,-0.2,2.21,1.74,2.63
2024-12-06 13:31:53.807,24.75,510.0,0.79,0.56,-0.2,2.33,1.81,1.11
2024-12-06 13:31:53.836,25.2,501.0,0.78,0.55,-0.2,2.75,2.23,1.72
2024-12-06 13:31:53.896,25.2,505.0,0.79,0.55,-0.19,2.39,3.21,0.62
2024-12-06 13:31:53.903,23.62,512.0,0.81,0.56,-0.19,1.78,2.6,2.21
2024-12-06 13:31:53.917,22.05,504.0,0.78,0.55,-0.19,1.29,1.56,0.92
2024-12-06 13:31:53.946,20.92,510.0,0.79,0.55,-0.17,0.74,1.93,0.07
2024-12-06 13:31:53.973,23.85,497.0,0.81,0.56,-0.19,0.8,2.42,2.14
2024-12-06 13:31:54.2,21.6,493.0,0.78,0.54,-0.19,0.68,1.56,-0.42
2024-12-06 13:31:54.35,19.12,499.0,0.8,0.55,-0.19,0.13,1.13,-1.03
2024-12-06 13:31:54.55,17.55,494.0,0.81,0.56,-0.2,0.86,1.68,1.72
2024-12-06 13:31:54.102,14.4,497.0,0.8,0.56,-0.19,0.31,2.54,1.66
2024-12-06 13:31:54.111,13.5,516.0,0.82,0.56,-0.21,0.5,1.01,3.37
2024-12-06 13:31:54.139,12.38,495.0,0.79,0.55,-0.19,0.56,-0.03,3.85
2024-12-06 13:31:54.166,10.12,494.0,0.8,0.55,-0.19,0.37,0.83,2.75
2024-12-06 13:31:54.197,11.7,499.0,0.8,0.55,-0.2,1.23,1.68,4.28
2024-12-06 13:31:54.221,12.82,488.0,0.79,0.55,-0.19,1.78,1.5,3.37
2024-12-06 13:31:54.249,9.45,493.0,0.81,0.56,-0.19,1.78,1.13,3.12
2024-12-06 13:31:54.277,4.5,492.0,0.76,0.54,-0.2,1.96,0.52,2.82
2024-12-06 13:31:54.319,10.35,486.0,0.79,0.55,-0.18,1.17,1.32,2.08
2024-12-06 13:31:54.334,7.88,497.0,0.79,0.55,-0.19,1.05,2.42,3.18
2024-12-06 13:31:54.362,7.2,484.0,0.8,0.55,-0.21,1.78,2.17,3.67
2024-12-06 13:31:54.387,6.52,480.0,0.79,0.55,-0.18,1.23,1.2,2.33
2024-12-06 13:31:54.416,2.25,480.0,0.79,0.54,-0.18,0.25,-0.15,1.47
2024-12-06 13:31:54.443,3.15,495.0,0.81,0.54,-0.2,1.17,1.87,1.29
2024-12-06 13:31:54.473,-1.8,485.0,0.82,0.55,-0.2,2.45,2.29,3.55
2024-12-06 13:31:54.503,0.22,482.0,0.82,0.55,-0.2,3.55,1.68,3.3
2024-12-06 13:31:55.805,-2.7,479.0,0.8,0.55,-0.2,0.31,0.95,0.25
2024-12-06 13:31:58.419,1.57,486.0,0.8,0.55,-0.19,0.13,0.95,0.92
2024-12-06 13:31:58.439,-1.57,489.0,0.75,0.53,-0.17,0.01,-1.37,-0.42
2024-12-06 13:31:58.490,-1.8,512.0,0.71,0.51,-0.2,0.07,-1.73,-8.48
2024-12-06 13:31:58.501,1.57,499.0,0.79,0.55,-0.16,-0.97,-0.51,-7.68
2024-12-06 13:31:58.525,4.95,504.0,0.79,0.58,-0.23,0.74,3.03,-5.18
2024-12-06 13:31:58.557,4.28,507.0,0.85,0.58,-0.2,0.62,3.39,-3.17
2024-12-06 13:31:58.604,9.45,505.0,0.81,0.55,-0.21,0.13,-1.49,-2.92
2024-12-06 13:31:58.621,5.85,511.0,0.79,0.55,-0.18,0.13,-2.71,-3.9
2024-12-06 13:31:58.632,7.65,504.0,0.81,0.5,-0.2,0.13,3.76,-5.55
2024-12-06 13:31:58.661,6.75,515.0,0.79,0.54,-0.2,0.31,4.74,-12.81
2024-12-06 13:31:58.729,6.75,537.0,0.77,0.63,-0.18,-0.11,0.59,-9.27
2024-12-06 13:31:58.732,11.02,517.0,0.76,0.59,-0.2,-0.05,-4.6,-4.08
2024-12-06 13:31:58.742,10.8,510.0,0.75,0.61,-0.18,0.19,1.68,-2.74
2024-12-06 13:31:58.771,14.4,509.0,0.78,0.58,-0.19,-0.05,4.19,-1.33
2024-12-06 13:31:58.797,9.9,522.0,0.78,0.56,-0.2,-0.6,0.59,-3.59
2024-12-06 13:31:58.835,11.47,506.0,0.79,0.57,-0.21,-0.97,-1.98,-3.23
2024-12-06 13:31:58.853,12.82,516.0,0.77,0.59,-0.2,-0.54,-1.18,-2.07
2024-12-06 13:31:58.949,15.3,515.0,0.78,0.59,-0.2,0.98,0.83,-0.6
2024-12-06 13:31:58.962,20.48,512.0,0.78,0.6,-0.19,0.86,-0.39,-1.58
2024-12-06 13:31:58.993,23.4,537.0,0.75,0.59,-0.2,1.23,-0.03,-0.6
2024-12-06 13:31:59.17,17.32,504.0,0.76,0.6,-0.17,1.11,1.62,-1.21
2024-12-06 13:31:59.60,25.2,529.0,0.78,0.6,-0.19,0.56,1.87,-0.54
2024-12-06 13:31:59.86,21.82,511.0,0.76,0.59,-0.2,0.56,0.52,-1.27
2024-12-06 13:31:59.104,26.1,521.0,0.77,0.6,-0.19,0.86,-0.27,-2.13
2024-12-06 13:31:59.131,26.55,517.0,0.75,0.6,-0.2,1.11,0.95,-2.01
2024-12-06 13:31:59.168,26.1,529.0,0.75,0.6,-0.19,1.23,1.93,-2.37
2024-12-06 13:31:59.184,24.75,517.0,0.76,0.6,-0.19,1.05,1.5,-2.13
2024-12-06 13:31:59.210,28.8,532.0,0.78,0.61,-0.2,0.8,0.59,-1.27
2024-12-06 13:31:59.237,29.25,519.0,0.77,0.6,-0.2,1.17,-0.21,-1.03
2024-12-06 13:31:59.293,33.52,537.0,0.76,0.6,-0.18,1.47,0.65,-2.19
2024-12-06 13:31:59.297,29.7,539.0,0.74,0.6,-0.19,1.47,1.87,-1.64
2024-12-06 13:31:59.321,30.6,537.0,0.76,0.6,-0.18,1.29,2.29,-2.31
2024-12-06 13:31:59.347,36.0,526.0,0.77,0.61,-0.2,0.07,1.5,-0.66
2024-12-06 13:31:59.376,34.2,528.0,0.74,0.59,-0.2,0.07,-0.21,-1.76
2024-12-06 13:31:59.403,37.12,564.0,0.76,0.6,-0.18,0.5,-0.64,-2.92
2024-12-06 13:31:59.430,38.47,531.0,0.74,0.62,-0.19,0.19,0.89,-1.88
2024-12-06 13:31:59.483,38.47,539.0,0.74,0.6,-0.18,-0.3,0.95,-3.9
2024-12-06 13:31:59.514,36.45,523.0,0.76,0.61,-0.18,-1.03,0.16,-3.96
2024-12-06 13:31:59.516,39.15,528.0,0.75,0.61,-0.2,-1.27,-0.45,-4.14
2024-12-06 13:31:59.543,39.15,551.0,0.75,0.61,-0.18,-1.52,-0.64,-3.84
2024-12-06 13:31:59.568,43.65,525.0,0.76,0.63,-0.21,-1.27,-0.82,-2.01
2024-12-06 13:31:59.596,44.77,529.0,0.75,0.62,-0.19,-1.33,-1.49,-2.07
2024-12-06 13:31:59.624,44.77,542.0,0.74,0.61,-0.18,-1.7,-1.8,-3.17
2024-12-06 13:31:59.652,43.42,539.0,0.74,0.62,-0.2,-1.33,-0.39,-3.65
2024-12-06 13:31:59.679,46.8,529.0,0.77,0.64,-0.2,-0.91,-0.21,-2.01
2024-12-06 13:31:59.708,47.47,535.0,0.76,0.64,-0.2,-1.52,-0.21,-0.17
2024-12-06 13:31:59.742,45.22,531.0,0.75,0.62,-0.22,-1.03,-0.64,-0.11
2024-12-06 13:31:59.762,49.95,550.0,0.75,0.62,-0.19,0.19,-1.12,0.62
2024-12-06 13:31:59.789,43.88,544.0,0.74,0.64,-0.2,0.31,0.16,0.86
2024-12-06 13:31:59.820,54.0,542.0,0.74,0.63,-0.2,1.11,0.77,0.74
2024-12-06 13:31:59.847,55.12,538.0,0.76,0.64,-0.19,1.23,0.16,1.66
2024-12-06 13:31:59.873,55.12,552.0,0.74,0.63,-0.21,1.11,0.1,1.35
2024-12-06 13:31:59.902,52.42,534.0,0.73,0.62,-0.2,1.78,-0.03,0.37
2024-12-06 13:31:59.999,55.57,543.0,0.83,0.54,-0.19,0.56,3.51,-5.73
2024-12-06 13:32:00.16,54.67,548.0,0.71,0.67,-0.21,-0.05,1.81,-6.1
2024-12-06 13:32:00.38,56.47,560.0,0.68,0.62,-0.18,2.75,-3.02,-1.7
2024-12-06 13:32:00.65,59.17,537.0,0.7,0.66,-0.19,1.66,0.4,-0.54
2024-12-06 13:32:00.93,59.62,574.0,0.72,0.65,-0.2,0.5,4.25,0.07
2024-12-06 13:32:00.126,64.35,575.0,0.77,0.64,-0.19,-0.66,1.81,0.25
2024-12-06 13:32:00.150,67.28,592.0,0.74,0.63,-0.21,-1.33,-0.03,1.05
2024-12-06 13:32:00.187,62.55,556.0,0.73,0.61,-0.19,0.01,-0.7,0.07
2024-12-06 13:32:00.204,64.8,552.0,0.73,0.64,-0.18,-0.17,0.1,0.19
2024-12-06 13:32:00.243,66.15,547.0,0.73,0.65,-0.2,-0.36,1.56,0.86
2024-12-06 13:32:00.261,70.88,550.0,0.73,0.63,-0.2,-0.17,1.13,0.56
2024-12-06 13:32:00.288,69.3,550.0,0.74,0.63,-0.2,-0.42,-0.39,1.23
2024-12-06 13:32:00.314,70.42,560.0,0.74,0.65,-0.2,-1.03,0.22,2.33
2024-12-06 13:32:00.346,70.88,563.0,0.73,0.63,-0.2,-0.91,0.16,2.69
2024-12-06 13:32:00.375,69.97,568.0,0.73,0.63,-0.19,-1.33,0.34,2.94
2024-12-06 13:32:00.418,69.75,555.0,0.74,0.63,-0.19,-1.03,-0.03,2.21
2024-12-06 13:32:00.426,73.8,558.0,0.73,0.62,-0.19,-0.36,-0.39,1.23
2024-12-06 13:32:00.456,74.03,552.0,0.72,0.64,-0.19,-1.15,-0.27,1.23
2024-12-06 13:32:00.480,75.82,558.0,0.73,0.64,-0.18,-1.46,-0.64,0.5
2024-12-06 13:32:00.510,78.53,566.0,0.73,0.64,-0.2,-1.94,0.46,0.19
2024-12-06 13:32:00.536,78.75,559.0,0.74,0.62,-0.19,-1.7,0.04,0.19
2024-12-06 13:32:00.574,78.53,566.0,0.74,0.64,-0.19,-1.94,-0.94,0.5
2024-12-06 13:32:00.595,78.97,576.0,0.73,0.64,-0.2,-2.49,0.22,1.11
2024-12-06 13:32:00.620,77.17,563.0,0.74,0.62,-0.19,-1.64,0.04,1.05
2024-12-06 13:32:00.653,80.55,562.0,0.75,0.64,-0.18,-1.76,-0.21,1.66
2024-12-06 13:32:00.674,80.32,563.0,0.73,0.63,-0.21,-0.97,-0.09,1.47
2024-12-06 13:32:00.706,81.45,574.0,0.74,0.64,-0.19,-0.97,-0.15,2.57
2024-12-06 13:32:00.732,84.38,563.0,0.73,0.64,-0.2,-1.27,0.77,2.82
2024-12-06 13:32:00.759,85.05,562.0,0.74,0.62,-0.19,-1.27,-0.03,2.14
2024-12-06 13:32:02.166,82.12,590.0,0.74,0.63,-0.18,1.05,0.95,0.8
2024-12-06 13:32:02.170,90.9,563.0,0.74,0.63,-0.19,0.8,0.59,1.23
2024-12-06 13:32:02.177,87.52,575.0,0.74,0.63,-0.19,0.98,0.46,1.17
2024-12-06 13:32:02.185,88.2,563.0,0.74,0.63,-0.19,0.98,0.4,1.05
2024-12-06 13:32:02.192,91.35,567.0,0.74,0.63,-0.18,0.98,0.52,0.98
2024-12-06 13:32:02.202,88.2,555.0,0.73,0.63,-0.18,0.98,0.52,0.98
2024-12-06 13:32:02.210,84.82,562.0,0.73,0.63,-0.18,0.98,0.52,0.86
2024-12-06 13:32:02.216,86.85,579.0,0.73,0.63,-0.18,0.98,0.65,0.74
2024-12-06 13:32:02.234,85.28,556.0,0.73,0.63,-0.18,1.05,0.83,0.74
2024-12-06 13:32:02.236,87.3,571.0,0.73,0.63,-0.18,1.05,0.95,0.68
2024-12-06 13:32:02.241,89.77,562.0,0.73,0.63,-0.19,1.11,1.01,0.62
2024-12-06 13:32:02.247,87.97,562.0,0.73,0.63,-0.19,1.11,1.01,0.62
2024-12-06 13:32:02.255,89.1,558.0,0.73,0.63,-0.19,1.11,1.01,0.68
2024-12-06 13:32:02.286,90.45,550.0,0.73,0.63,-0.19,0.92,0.34,0.44
2024-12-06 13:32:02.289,90.45,572.0,0.73,0.63,-0.18,0.92,0.34,0.44
2024-12-06 13:32:02.293,91.57,577.0,0.73,0.63,-0.19,0.68,0.28,0.31
2024-12-06 13:32:02.325,88.2,559.0,0.73,0.63,-0.19,0.68,0.52,0.07
2024-12-06 13:32:02.328,86.62,598.0,0.74,0.63,-0.19,0.92,0.22,0.07
2024-12-06 13:32:02.332,88.42,578.0,0.74,0.63,-0.19,0.92,0.22,0.07
2024-12-06 13:32:02.340,84.82,545.0,0.74,0.63,-0.19,0.98,0.34,0.19
2024-12-06 13:32:02.350,87.07,563.0,0.74,0.63,-0.19,0.92,0.52,0.37
2024-12-06 13:32:02.357,88.2,565.0,0.73,0.63,-0.19,0.86,0.65,0.5
2024-12-06 13:32:02.366,87.3,568.0,0.73,0.63,-0.19,0.68,0.83,0.62
2024-12-06 13:32:02.375,90.0,579.0,0.73,0.64,-0.19,0.56,1.01,0.56
2024-12-06 13:32:02.380,89.77,563.0,0.73,0.64,-0.19,0.56,1.01,0.56
2024-12-06 13:32:02.392,88.88,569.0,0.73,0.64,-0.19,0.44,1.01,0.68
2024-12-06 13:32:02.399,90.45,564.0,0.74,0.64,-0.19,0.44,1.01,0.68
2024-12-06 13:32:02.404,86.17,562.0,0.74,0.64,-0.19,0.5,0.89,0.74
2024-12-06 13:32:02.412,86.85,549.0,0.74,0.64,-0.19,0.5,0.65,0.86
2024-12-06 13:32:02.418,87.97,567.0,0.74,0.63,-0.19,0.5,0.65,0.86
2024-12-06 13:32:02.449,86.62,574.0,0.74,0.64,-0.19,0.74,0.4,1.11
2024-12-06 13:32:02.457,87.97,566.0,0.74,0.64,-0.19,0.86,0.34,1.23
2024-12-06 13:32:02.464,89.1,567.0,0.73,0.64,-0.19,0.86,0.34,1.23
2024-12-06 13:32:02.473,87.52,566.0,0.73,0.64,-0.19,0.86,0.4,1.23
2024-12-06 13:32:02.480,87.07,557.0,0.73,0.64,-0.19,0.86,0.52,1.23
2024-12-06 13:32:02.491,89.55,568.0,0.73,0.64,-0.19,0.8,0.52,1.29
2024-12-06 13:32:02.496,89.77,597.0,0.73,0.64,-0.19,0.8,0.52,1.29
2024-12-06 13:32:02.503,86.62,552.0,0.73,0.63,-0.19,0.8,0.52,1.35
2024-12-06 13:32:02.513,87.52,569.0,0.73,0.63,-0.19,0.8,0.52,1.35
2024-12-06 13:32:02.522,89.77,563.0,0.73,0.63,-0.18,0.74,0.65,1.41
2024-12-06 13:32:02.527,86.4,581.0,0.73,0.63,-0.19,0.68,0.77,1.35
2024-12-06 13:32:02.539,90.45,551.0,0.73,0.63,-0.19,0.68,0.77,1.35
2024-12-06 13:32:02.550,90.0,562.0,0.73,0.63,-0.19,0.68,0.71,1.23
2024-12-06 13:32:02.559,86.62,578.0,0.73,0.63,-0.19,0.62,0.65,1.11
2024-12-06 13:32:02.562,85.28,554.0,0.73,0.63,-0.19,0.62,0.65,1.11
2024-12-06 13:32:02.566,88.2,565.0,0.73,0.63,-0.19,0.62,0.71,0.98
2024-12-06 13:32:02.576,84.82,565.0,0.74,0.64,-0.19,0.68,0.71,0.86
2024-12-06 13:32:02.585,86.4,562.0,0.74,0.64,-0.19,0.68,0.59,0.8
2024-12-06 13:32:02.600,85.28,567.0,0.74,0.64,-0.19,0.8,0.46,0.8
2024-12-06 13:32:02.607,89.55,561.0,0.73,0.64,-0.19,0.86,0.28,0.8
2024-12-06 13:32:02.620,90.0,570.0,0.73,0.63,-0.19,0.92,0.22,0.74
2024-12-06 13:32:02.629,88.2,561.0,0.73,0.63,-0.19,0.98,0.34,0.62
2024-12-06 13:32:02.643,90.0,575.0,0.73,0.63,-0.2,1.05,0.4,0.62
2024-12-06 13:32:02.645,85.5,571.0,0.73,0.64,-0.2,1.05,0.4,0.62
2024-12-06 13:32:02.664,87.3,572.0,0.73,0.64,-0.19,1.05,0.59,0.8
2024-12-06 13:32:02.671,88.65,568.0,0.73,0.64,-0.19,0.98,0.71,0.98
2024-12-06 13:32:02.702,87.52,569.0,0.74,0.63,-0.18,0.62,0.77,1.11
2024-12-06 13:32:02.705,87.75,567.0,0.74,0.63,-0.19,0.56,0.77,1.17
2024-12-06 13:32:02.718,85.5,556.0,0.74,0.63,-0.19,0.5,0.65,1.17
2024-12-06 13:32:02.732,87.97,554.0,0.74,0.64,-0.19,0.5,0.65,1.11
2024-12-06 13:32:02.735,86.62,598.0,0.73,0.64,-0.19,0.56,0.65,1.11
2024-12-06 13:32:02.737,88.42,563.0,0.73,0.64,-0.19,0.56,0.65,1.11
2024-12-06 13:32:02.751,85.05,577.0,0.73,0.64,-0.19,0.68,0.65,1.11
2024-12-06 13:32:02.753,87.52,599.0,0.73,0.64,-0.19,0.74,0.52,1.11
2024-12-06 13:32:02.758,87.52,555.0,0.73,0.64,-0.2,0.74,0.4,1.17
2024-12-06 13:32:02.775,90.45,574.0,0.74,0.63,-0.2,0.74,0.4,1.17
2024-12-06 13:32:02.780,82.57,575.0,0.74,0.63,-0.2,0.8,0.34,1.17
2024-12-06 13:32:02.782,86.4,585.0,0.74,0.63,-0.19,0.8,0.34,1.17
2024-12-06 13:32:02.795,86.17,546.0,0.73,0.63,-0.19,0.8,0.28,1.23
2024-12-06 13:32:02.798,87.75,563.0,0.73,0.63,-0.19,0.74,0.28,1.23
2024-12-06 13:32:02.806,87.3,566.0,0.73,0.63,-0.19,0.74,0.4,1.17
2024-12-06 13:32:02.817,90.45,563.0,0.73,0.63,-0.19,0.74,0.4,1.17
2024-12-06 13:32:02.824,89.32,566.0,0.73,0.63,-0.19,0.74,0.4,1.17
2024-12-06 13:32:02.829,89.55,547.0,0.73,0.63,-0.19,0.74,0.46,1.17
2024-12-06 13:32:02.841,87.3,553.0,0.73,0.62,-0.19,0.8,0.52,1.17
2024-12-06 13:32:02.865,84.82,567.0,0.73,0.63,-0.19,0.68,0.77,1.11
2024-12-06 13:32:02.868,84.15,558.0,0.73,0.63,-0.19,0.62,0.89,1.05
2024-12-06 13:32:02.900,87.07,549.0,0.73,0.63,-0.19,0.56,0.95,0.92
2024-12-06 13:32:02.902,87.3,549.0,0.73,0.63,-0.2,0.68,0.95,0.8
2024-12-06 13:32:02.905,89.77,571.0,0.74,0.63,-0.2,0.74,0.77,0.8
2024-12-06 13:32:02.913,89.77,565.0,0.74,0.63,-0.19,0.8,0.65,0.74
2024-12-06 13:32:02.921,89.32,568.0,0.74,0.63,-0.19,0.8,0.65,0.74
2024-12-06 13:32:02.934,87.52,569.0,0.74,0.63,-0.19,0.8,0.65,0.68
2024-12-06 13:32:02.939,80.78,561.0,0.74,0.63,-0.19,0.8,0.65,0.68
2024-12-06 13:32:02.945,86.85,564.0,0.74,0.63,-0.19,0.86,0.59,0.68
2024-12-06 13:32:02.953,85.5,548.0,0.74,0.63,-0.19,0.8,0.59,0.8
2024-12-06 13:32:02.975,85.28,610.0,0.73,0.63,-0.19,0.74,0.59,0.74
2024-12-06 13:32:02.978,90.45,555.0,0.73,0.63,-0.19,0.5,0.71,0.62
2024-12-06 13:32:02.985,88.88,546.0,0.73,0.63,-0.19,0.5,0.71,0.62
2024-12-06 13:32:03.3,86.85,550.0,0.72,0.63,-0.19,0.37,0.77,0.5
2024-12-06 13:32:03.6,87.3,544.0,0.73,0.63,-0.19,0.19,0.71,0.44
2024-12-06 13:32:03.9,87.3,559.0,0.73,0.63,-0.19,0.01,0.77,0.5
2024-12-06 13:32:03.14,87.07,572.0,0.73,0.63,-0.19,-0.11,0.83,0.5
2024-12-06 13:32:03.29,84.82,560.0,0.73,0.63,-0.19,-0.11,0.83,0.62
2024-12-06 13:32:03.32,86.85,553.0,0.73,0.63,-0.19,-0.24,0.77,0.62
2024-12-06 13:32:03.37,85.05,560.0,0.73,0.63,-0.19,-0.3,0.65,0.62
2024-12-06 13:32:03.49,84.38,565.0,0.73,0.63,-0.19,-0.36,0.59,0.62
2024-12-06 13:32:03.142,89.32,579.0,0.73,0.63,-0.19,-0.36,0.52,0.62
2024-12-06 13:32:03.151,90.45,555.0,0.73,0.63,-0.2,0.62,0.65,0.37
2024-12-06 13:32:03.159,91.12,566.0,0.73,0.64,-0.2,0.56,0.59,0.31
2024-12-06 13:32:03.167,85.5,568.0,0.73,0.64,-0.2,0.56,0.59,0.31
2024-12-06 13:32:03.175,89.32,575.0,0.73,0.64,-0.19,0.5,0.65,0.37
2024-12-06 13:32:03.183,86.62,573.0,0.73,0.64,-0.19,0.5,0.65,0.31
2024-12-06 13:32:04.213,84.15,569.0,0.72,0.64,-0.18,-0.05,0.34,-0.17
2024-12-06 13:32:04.224,85.28,547.0,0.74,0.67,-0.16,-0.48,-0.27,0.19
2024-12-06 13:32:04.245,79.2,558.0,0.72,0.79,-0.17,-4.33,-0.7,5.87
2024-12-06 13:32:04.273,76.5,559.0,0.7,0.81,-0.23,-5.73,-4.97,14.23
2024-12-06 13:32:04.302,78.3,585.0,0.73,0.67,-0.2,-4.63,-3.08,22.29
2024-12-06 13:32:04.343,72.22,538.0,0.79,0.48,-0.19,-5.18,-3.99,21.8
2024-12-06 13:32:04.356,70.42,531.0,0.74,0.54,-0.18,-5.97,-1.98,13.01
2024-12-06 13:32:04.389,66.6,530.0,0.75,0.56,-0.16,-2.49,-2.16,7.27
2024-12-06 13:32:04.411,63.9,548.0,0.75,0.55,-0.13,2.33,2.23,1.29
2024-12-06 13:32:04.439,61.42,551.0,0.79,0.59,-0.14,6.11,5.53,0.25
2024-12-06 13:32:04.493,66.15,537.0,0.77,0.63,-0.2,6.66,4.49,1.9
2024-12-06 13:32:04.495,65.03,535.0,0.76,0.59,-0.22,4.34,1.87,1.66
2024-12-06 13:32:04.523,58.05,542.0,0.75,0.61,-0.22,2.39,0.59,4.52
2024-12-06 13:32:04.551,63.45,537.0,0.75,0.59,-0.19,2.08,1.26,5.01
2024-12-06 13:32:04.584,58.95,534.0,0.78,0.6,-0.18,3.18,2.48,5.81
2024-12-06 13:32:04.608,57.6,523.0,0.76,0.57,-0.17,3.79,2.48,3.61
2024-12-06 13:32:04.637,60.3,515.0,0.78,0.59,-0.18,3.37,1.56,2.63
2024-12-06 13:32:04.662,59.17,537.0,0.75,0.6,-0.2,2.27,0.95,4.46
2024-12-06 13:32:04.687,58.27,548.0,0.75,0.61,-0.19,1.17,2.23,3.55
2024-12-06 13:32:04.731,58.72,540.0,0.78,0.61,-0.2,1.41,2.36,4.95
2024-12-06 13:32:04.745,53.55,527.0,0.77,0.59,-0.2,2.45,2.11,4.65
2024-12-06 13:32:04.770,54.0,595.0,0.77,0.58,-0.18,3.24,1.38,2.88
2024-12-06 13:32:04.798,53.1,522.0,0.79,0.6,-0.19,4.22,0.59,3.43
2024-12-06 13:32:04.826,49.72,554.0,0.75,0.59,-0.19,5.68,1.68,3.0
2024-12-06 13:32:04.854,50.4,530.0,0.76,0.6,-0.2,5.5,2.36,2.45
2024-12-06 13:32:04.881,45.67,522.0,0.76,0.59,-0.21,5.38,2.36,2.82
2024-12-06 13:32:04.908,52.2,520.0,0.77,0.59,-0.19,4.04,1.44,2.21
2024-12-06 13:32:04.953,50.17,518.0,0.77,0.59,-0.2,3.49,0.83,3.3
2024-12-06 13:32:04.968,49.95,514.0,0.76,0.58,-0.2,3.43,1.32,4.16
2024-12-06 13:32:04.993,45.9,532.0,0.76,0.58,-0.19,3.37,2.6,3.3
2024-12-06 13:32:05.23,43.88,514.0,0.77,0.57,-0.19,3.55,2.66,2.82
2024-12-06 13:32:05.47,44.1,512.0,0.77,0.57,-0.18,3.55,2.54,0.25
2024-12-06 13:32:05.78,42.97,526.0,0.79,0.6,-0.19,3.06,2.17,0.8
2024-12-06 13:32:05.102,41.4,528.0,0.75,0.58,-0.21,2.33,1.81,2.21
2024-12-06 13:32:05.137,40.95,516.0,0.75,0.57,-0.2,0.68,1.5,0.74
2024-12-06 13:32:05.238,41.4,529.0,0.78,0.59,-0.2,0.01,1.26,1.96
2024-12-06 13:32:05.241,38.47,506.0,0.77,0.58,-0.2,0.56,0.46,-0.66
2024-12-06 13:32:05.273,31.05,513.0,0.76,0.57,-0.2,0.74,1.07,-1.33
2024-12-06 13:32:05.295,32.4,502.0,0.78,0.59,-0.21,0.68,1.26,-0.05
2024-12-06 13:32:05.327,31.5,510.0,0.77,0.59,-0.21,0.92,1.62,0.5
2024-12-06 13:32:05.350,33.08,512.0,0.79,0.58,-0.2,1.11,1.56,-0.17
2024-12-06 13:32:05.401,30.15,512.0,0.79,0.59,-0.21,1.96,2.36,0.8
2024-12-06 13:32:05.412,31.72,526.0,0.78,0.58,-0.2,2.39,3.09,1.29
2024-12-06 13:32:05.433,26.1,506.0,0.79,0.58,-0.2,2.27,2.54,2.33
2024-12-06 13:32:05.460,26.32,498.0,0.77,0.57,-0.21,2.27,2.17,2.45
2024-12-06 13:32:05.491,27.67,505.0,0.79,0.58,-0.2,3.06,2.54,3.18
2024-12-06 13:32:05.518,25.88,505.0,0.79,0.59,-0.21,3.67,3.39,4.34
2024-12-06 13:32:05.544,28.12,494.0,0.78,0.58,-0.2,3.37,2.54,4.34
2024-12-06 13:32:05.576,28.12,506.0,0.78,0.57,-0.19,2.51,1.44,3.73
2024-12-06 13:32:05.628,25.42,514.0,0.78,0.57,-0.17,1.23,1.2,4.4
2024-12-06 13:32:05.633,24.3,515.0,0.76,0.57,-0.16,-0.91,0.77,3.18
2024-12-06 13:32:05.660,22.05,505.0,0.79,0.57,-0.17,-2.92,-0.03,2.88
2024-12-06 13:32:05.681,20.48,520.0,0.76,0.54,-0.2,-3.23,-0.51,3.91
2024-12-06 13:32:05.710,22.27,497.0,0.78,0.54,-0.18,-3.78,-1.31,1.29
2024-12-06 13:32:05.737,14.62,494.0,0.8,0.57,-0.2,-3.9,-1.06,2.82
2024-12-06 13:32:05.765,18.67,501.0,0.79,0.58,-0.21,-3.59,-0.57,4.28
2024-12-06 13:32:05.796,16.65,503.0,0.81,0.58,-0.2,-3.17,-1.06,4.46
2024-12-06 13:32:05.851,20.25,506.0,0.79,0.57,-0.21,-1.76,-1.37,5.81
2024-12-06 13:32:05.857,16.42,483.0,0.8,0.57,-0.19,-0.97,-0.33,5.56
2024-12-06 13:32:05.874,11.25,497.0,0.8,0.58,-0.21,0.01,1.2,7.33
2024-12-06 13:32:05.906,9.45,514.0,0.78,0.57,-0.21,1.17,1.44,6.97
2024-12-06 13:32:05.930,11.92,500.0,0.8,0.56,-0.19,1.72,0.89,6.17
2024-12-06 13:32:05.957,9.68,509.0,0.81,0.57,-0.21,2.57,1.2,7.88
2024-12-06 13:32:05.987,12.6,497.0,0.78,0.57,-0.21,3.43,1.38,8.0
2024-12-06 13:32:06.23,3.82,486.0,0.8,0.56,-0.19,3.73,1.56,7.21
2024-12-06 13:32:06.41,3.15,544.0,0.79,0.55,-0.2,3.49,1.38,7.82
2024-12-06 13:32:06.73,8.55,478.0,0.78,0.53,-0.2,3.24,1.87,6.23
2024-12-06 13:32:06.97,7.42,482.0,0.77,0.53,-0.21,3.67,1.87,5.62
2024-12-06 13:32:06.123,-0.22,480.0,0.77,0.53,-0.18,2.82,2.17,3.85
2024-12-06 13:32:06.155,6.97,484.0,0.82,0.54,-0.18,1.05,2.78,3.37
2024-12-06 13:32:06.180,0.45,485.0,0.79,0.53,-0.2,0.8,1.5,4.4
2024-12-06 13:32:06.288,-1.8,489.0,0.83,0.53,-0.16,-0.05,1.2,2.57
2024-12-06 13:32:07.596,-2.7,490.0,0.78,0.56,-0.2,2.69,2.42,-6.16
2024-12-06 13:32:07.609,1.57,489.0,0.76,0.57,-0.2,3.12,2.66,-7.74
