Timestamp,PosIsDeg,ForceIs,AccX,AccY,AccZ,GyroX,GyroY,GyroZ
2024-12-06 13:36:34.764,29.02,518.0,0.59,0.75,-0.23,0.19,0.89,0.37
2024-12-06 13:36:34.792,28.35,515.0,0.62,0.77,-0.23,0.25,0.95,0.44
2024-12-06 13:36:34.820,29.92,507.0,0.63,0.82,-0.29,-4.08,6.51,10.08
2024-12-06 13:36:34.848,22.27,525.0,0.64,0.8,-0.25,-3.23,6.87,15.21
2024-12-06 13:36:34.883,22.72,525.0,0.66,0.75,-0.22,-2.68,6.93,17.53
2024-12-06 13:36:34.903,17.1,531.0,0.58,0.69,-0.22,-1.33,1.32,12.64
2024-12-06 13:36:34.931,10.8,525.0,0.54,0.68,-0.23,-0.97,-2.71,6.42
2024-12-06 13:36:34.980,13.72,524.0,0.5,0.69,-0.24,2.02,-2.65,1.72
2024-12-06 13:36:34.985,5.62,510.0,0.57,0.71,-0.24,4.83,-0.88,-4.08
2024-12-06 13:36:35.13,8.1,513.0,0.61,0.74,-0.24,5.5,0.34,-5.12
2024-12-06 13:36:35.41,13.72,535.0,0.61,0.74,-0.25,5.81,0.59,-6.1
2024-12-06 13:36:35.74,10.35,513.0,0.67,0.77,-0.22,4.4,4.74,-0.17
2024-12-06 13:36:35.100,6.07,523.0,0.62,0.75,-0.21,3.06,4.49,1.17
2024-12-06 13:36:35.124,7.88,507.0,0.64,0.72,-0.2,1.17,0.83,-0.72
2024-12-06 13:36:35.157,6.97,503.0,0.62,0.71,-0.21,0.37,-1.43,-0.48
2024-12-06 13:36:35.204,4.05,518.0,0.6,0.71,-0.22,0.25,-2.83,-1.27
2024-12-06 13:36:35.209,4.95,513.0,0.62,0.73,-0.22,-0.36,-1.43,-0.66
2024-12-06 13:36:35.235,4.28,498.0,0.6,0.73,-0.24,-0.54,-0.09,0.68
2024-12-06 13:36:35.262,-0.45,524.0,0.63,0.74,-0.22,-0.54,-0.27,0.5
2024-12-06 13:36:36.658,-3.82,504.0,0.61,0.74,-0.24,-0.11,0.52,-1.7
2024-12-06 13:36:36.671,-10.12,516.0,0.62,0.74,-0.24,0.25,1.2,2.14
2024-12-06 13:36:36.678,-2.7,511.0,0.62,0.74,-0.24,0.13,1.07,2.08
2024-12-06 13:36:36.682,-2.7,508.0,0.62,0.74,-0.24,0.13,0.65,2.21
2024-12-06 13:36:36.689,-2.92,512.0,0.62,0.74,-0.24,0.13,0.65,2.21
2024-12-06 13:36:36.700,-0.45,525.0,0.62,0.74,-0.24,0.07,0.46,2.27
2024-12-06 13:36:36.705,-7.42,501.0,0.62,0.73,-0.24,0.25,0.65,2.39
2024-12-06 13:36:36.713,-1.8,513.0,0.62,0.73,-0.24,0.5,0.71,2.63
2024-12-06 13:36:36.721,-4.05,494.0,0.62,0.73,-0.24,0.74,0.71,2.82
2024-12-06 13:36:36.729,2.7,516.0,0.62,0.73,-0.24,0.98,0.65,2.94
2024-12-06 13:36:36.742,0.22,510.0,0.61,0.73,-0.24,0.98,0.65,2.94
2024-12-06 13:36:36.746,1.35,513.0,0.61,0.73,-0.24,1.23,0.77,3.06
2024-12-06 13:36:36.755,2.25,512.0,0.61,0.74,-0.24,1.35,1.13,3.0
2024-12-06 13:36:36.787,-4.72,526.0,0.6,0.73,-0.24,1.41,1.74,2.14
2024-12-06 13:36:36.792,2.47,524.0,0.61,0.73,-0.24,1.41,1.5,2.02
2024-12-06 13:36:36.798,-0.67,510.0,0.61,0.73,-0.24,1.41,1.5,1.84
2024-12-06 13:36:36.816,-0.22,547.0,0.6,0.73,-0.23,1.35,0.04,1.23
2024-12-06 13:36:36.822,-4.28,522.0,0.61,0.72,-0.23,1.35,0.04,1.23
2024-12-06 13:36:36.845,2.02,540.0,0.62,0.73,-0.23,1.29,-1.73,0.56
2024-12-06 13:36:36.852,0.22,519.0,0.62,0.73,-0.23,1.35,-2.83,0.68
2024-12-06 13:36:36.860,1.35,508.0,0.63,0.73,-0.22,1.35,-2.65,0.86
2024-12-06 13:36:36.868,-0.67,522.0,0.62,0.73,-0.25,1.47,-2.65,0.86
2024-12-06 13:36:36.876,-1.57,520.0,0.59,0.74,-0.26,1.23,0.83,0.31
2024-12-06 13:36:36.884,-0.22,507.0,0.58,0.76,-0.23,1.23,2.72,-0.3
2024-12-06 13:36:36.894,-0.9,504.0,0.58,0.75,-0.23,1.23,3.33,-0.24
2024-12-06 13:36:36.926,-2.92,514.0,0.58,0.75,-0.23,1.17,3.82,0.25
2024-12-06 13:36:36.929,-1.57,522.0,0.61,0.72,-0.24,1.47,3.7,0.86
2024-12-06 13:36:36.931,0.22,528.0,0.63,0.72,-0.24,1.66,2.72,0.86
2024-12-06 13:36:36.940,1.57,483.0,0.63,0.72,-0.24,1.78,3.03,0.5
2024-12-06 13:36:36.945,-2.02,513.0,0.63,0.72,-0.25,1.78,3.15,-0.17
2024-12-06 13:36:36.952,-2.47,520.0,0.62,0.73,-0.24,1.78,3.15,-0.17
2024-12-06 13:36:36.961,4.28,518.0,0.61,0.74,-0.22,1.66,2.6,-0.79
2024-12-06 13:36:36.968,-4.28,513.0,0.6,0.74,-0.22,1.47,2.29,-1.27
2024-12-06 13:36:36.976,-1.8,514.0,0.6,0.73,-0.22,1.29,2.84,-1.52
2024-12-06 13:36:37.10,-0.22,516.0,0.64,0.72,-0.27,1.66,4.43,1.23
2024-12-06 13:36:37.14,0.67,513.0,0.64,0.72,-0.3,2.57,4.74,1.05
2024-12-06 13:36:37.22,2.25,519.0,0.64,0.72,-0.3,1.78,-0.21,1.72
2024-12-06 13:36:37.32,1.8,523.0,0.67,0.73,-0.21,1.78,-1.98,2.69
2024-12-06 13:36:37.41,-1.57,513.0,0.66,0.72,-0.24,1.41,-1.98,2.69
2024-12-06 13:36:37.47,2.02,513.0,0.66,0.74,-0.29,1.17,1.93,3.0
2024-12-06 13:36:37.53,0.45,512.0,0.62,0.74,-0.28,0.62,4.43,3.12
2024-12-06 13:36:37.62,-2.47,513.0,0.58,0.74,-0.24,-0.05,4.49,2.51
2024-12-06 13:36:37.72,-9.0,521.0,0.58,0.74,-0.24,0.25,3.76,2.94
2024-12-06 13:36:37.79,-2.7,501.0,0.59,0.75,-0.21,0.25,3.76,3.67
2024-12-06 13:36:37.84,-0.22,518.0,0.59,0.75,-0.21,0.37,4.86,3.67
2024-12-06 13:36:37.92,0.22,511.0,0.6,0.75,-0.21,0.74,5.96,4.16
2024-12-06 13:36:37.118,-1.12,508.0,0.61,0.73,-0.21,1.66,6.08,3.98
2024-12-06 13:36:37.120,2.02,503.0,0.62,0.72,-0.21,1.66,6.02,3.43
2024-12-06 13:36:37.124,0.45,524.0,0.63,0.72,-0.21,1.66,6.02,3.43
2024-12-06 13:36:37.133,0.9,520.0,0.64,0.71,-0.22,1.6,6.02,2.75
2024-12-06 13:36:37.138,0.45,516.0,0.63,0.71,-0.23,1.35,4.55,1.9
2024-12-06 13:36:37.151,-4.05,514.0,0.62,0.72,-0.23,0.74,3.82,1.17
2024-12-06 13:36:37.160,-3.82,520.0,0.62,0.72,-0.23,0.62,1.56,0.74
2024-12-06 13:36:37.195,-4.72,517.0,0.61,0.72,-0.24,-0.6,4.06,2.02
2024-12-06 13:36:37.203,-2.7,504.0,0.61,0.72,-0.23,-0.6,4.06,2.02
2024-12-06 13:36:37.207,-2.7,507.0,0.61,0.72,-0.21,-0.42,4.37,2.51
2024-12-06 13:36:37.235,-0.9,551.0,0.61,0.72,-0.21,-0.3,4.92,2.82
2024-12-06 13:36:37.240,1.8,568.0,0.62,0.73,-0.22,0.13,7.54,3.24
2024-12-06 13:36:37.250,-0.45,506.0,0.62,0.74,-0.23,0.37,9.13,3.3
2024-12-06 13:36:37.255,0.0,504.0,0.62,0.74,-0.22,0.5,9.68,3.79
2024-12-06 13:36:37.264,0.45,526.0,0.62,0.74,-0.22,0.68,8.83,4.46
2024-12-06 13:36:37.268,-0.22,528.0,0.62,0.74,-0.21,0.56,7.12,5.01
2024-12-06 13:36:37.276,-4.5,509.0,0.62,0.73,-0.21,0.37,5.41,5.26
2024-12-06 13:36:37.284,2.47,534.0,0.62,0.73,-0.22,0.37,5.41,5.26
2024-12-06 13:36:37.299,0.45,524.0,0.62,0.73,-0.23,0.31,4.49,5.62
2024-12-06 13:36:37.301,-2.02,515.0,0.63,0.73,-0.23,0.31,3.64,5.5
2024-12-06 13:36:37.308,2.7,527.0,0.64,0.73,-0.24,0.01,3.58,5.26
2024-12-06 13:36:37.314,-1.12,520.0,0.64,0.73,-0.24,-0.24,4.13,5.07
2024-12-06 13:36:37.322,-1.8,520.0,0.65,0.73,-0.23,-0.3,4.61,4.83
2024-12-06 13:36:37.330,-3.6,526.0,0.64,0.73,-0.23,-0.3,4.61,4.83
2024-12-06 13:36:37.339,-0.22,517.0,0.64,0.72,-0.23,-0.42,5.47,4.4
2024-12-06 13:36:37.347,2.7,516.0,0.64,0.72,-0.23,-0.48,6.81,4.1
2024-12-06 13:36:37.354,1.57,507.0,0.63,0.72,-0.23,-0.54,7.79,3.91
2024-12-06 13:36:37.366,-0.9,522.0,0.63,0.72,-0.23,-0.6,7.73,3.79
2024-12-06 13:36:37.370,0.45,524.0,0.62,0.72,-0.22,-0.79,6.93,3.67
2024-12-06 13:36:37.383,-2.92,525.0,0.63,0.72,-0.21,-0.79,6.93,3.67
2024-12-06 13:36:37.395,1.35,532.0,0.63,0.71,-0.21,-1.46,5.83,3.18
2024-12-06 13:36:37.407,2.92,515.0,0.63,0.71,-0.2,-1.7,6.26,2.75
2024-12-06 13:36:37.409,-3.38,530.0,0.63,0.71,-0.2,-1.94,7.06,2.33
2024-12-06 13:36:37.418,0.22,529.0,0.62,0.71,-0.2,-2.07,6.69,1.53
2024-12-06 13:36:37.425,-2.47,512.0,0.6,0.71,-0.19,-2.07,6.69,1.53
2024-12-06 13:36:37.433,3.38,536.0,0.61,0.7,-0.2,-1.82,5.16,0.37
2024-12-06 13:36:37.461,0.45,518.0,0.61,0.71,-0.19,-1.33,2.97,-2.49
2024-12-06 13:36:37.464,4.5,524.0,0.61,0.71,-0.19,-1.33,2.97,-2.49
2024-12-06 13:36:37.471,4.5,518.0,0.61,0.71,-0.2,-1.09,1.81,-3.9
2024-12-06 13:36:37.479,-0.22,535.0,0.62,0.72,-0.21,-0.97,2.05,-4.87
2024-12-06 13:36:37.486,1.35,538.0,0.63,0.73,-0.21,-0.85,3.39,-5.42
2024-12-06 13:36:37.495,5.17,534.0,0.63,0.73,-0.21,-0.11,3.82,-5.61
2024-12-06 13:36:37.502,1.8,529.0,0.62,0.73,-0.2,1.17,2.05,-6.34
2024-12-06 13:36:37.515,3.38,547.0,0.62,0.72,-0.21,1.17,2.05,-6.34
2024-12-06 13:36:37.523,9.0,536.0,0.63,0.72,-0.22,0.86,2.84,-6.77
2024-12-06 13:36:37.526,6.97,532.0,0.63,0.72,-0.19,0.5,4.0,-6.71
2024-12-06 13:36:37.534,8.55,538.0,0.62,0.71,-0.18,0.8,2.23,-7.07
2024-12-06 13:36:37.542,9.9,531.0,0.62,0.71,-0.2,0.31,1.74,-7.13
2024-12-06 13:36:37.551,9.45,543.0,0.64,0.72,-0.2,-0.36,1.07,-7.19
2024-12-06 13:36:37.558,11.02,536.0,0.63,0.72,-0.2,-0.36,1.07,-7.19
2024-12-06 13:36:37.568,9.9,540.0,0.64,0.72,-0.21,-0.36,-0.51,-7.56
2024-12-06 13:36:37.573,11.7,548.0,0.64,0.72,-0.21,-0.72,0.59,-7.26
2024-12-06 13:36:37.581,11.02,535.0,0.62,0.73,-0.2,-0.79,-0.39,-7.32
2024-12-06 13:36:37.590,12.6,544.0,0.62,0.73,-0.21,-0.6,-1.73,-7.19
2024-12-06 13:36:37.604,13.05,526.0,0.63,0.73,-0.21,-1.46,0.28,-6.4
2024-12-06 13:36:37.607,12.82,532.0,0.63,0.74,-0.21,-1.46,0.28,-6.4
2024-12-06 13:36:37.613,20.48,541.0,0.62,0.74,-0.19,-1.4,0.22,-5.91
2024-12-06 13:36:37.715,26.55,541.0,0.6,0.72,-0.18,-4.2,4.98,-4.2
2024-12-06 13:36:37.727,26.55,569.0,0.62,0.76,-0.2,-4.14,6.32,-3.65
2024-12-06 13:36:37.735,28.12,552.0,0.61,0.77,-0.2,-3.96,5.9,-3.41
2024-12-06 13:36:37.742,30.82,551.0,0.62,0.77,-0.21,-4.2,6.2,-2.98
2024-12-06 13:36:37.750,28.35,564.0,0.63,0.78,-0.21,-4.2,7.42,-2.43
2024-12-06 13:36:37.763,30.38,552.0,0.63,0.78,-0.21,-3.71,7.54,-2.13
2024-12-06 13:36:37.766,28.8,570.0,0.63,0.78,-0.22,-3.71,9.13,-1.03
2024-12-06 13:36:37.774,30.82,549.0,0.65,0.78,-0.22,-4.02,9.13,-1.03
2024-12-06 13:36:37.782,28.8,556.0,0.62,0.76,-0.21,-3.59,8.58,-0.91
2024-12-06 13:36:37.790,31.95,564.0,0.64,0.76,-0.21,-3.23,8.64,-0.42
2024-12-06 13:36:37.797,33.3,566.0,0.64,0.76,-0.19,-3.65,10.11,0.62
2024-12-06 13:36:37.805,37.35,551.0,0.64,0.76,-0.19,-3.29,8.7,0.8
2024-12-06 13:36:37.813,34.42,551.0,0.62,0.77,-0.18,-3.23,7.36,1.47
2024-12-06 13:36:37.821,33.75,553.0,0.64,0.77,-0.19,-3.23,7.36,1.47
2024-12-06 13:36:37.831,33.52,572.0,0.64,0.75,-0.19,-3.23,7.54,1.9
2024-12-06 13:36:37.839,38.7,547.0,0.65,0.76,-0.19,-2.56,6.26,1.9
2024-12-06 13:36:37.845,37.12,548.0,0.66,0.76,-0.18,-2.92,5.71,2.51
2024-12-06 13:36:37.855,35.77,562.0,0.66,0.76,-0.18,-2.43,2.6,1.9
2024-12-06 13:36:37.865,39.83,545.0,0.62,0.74,-0.18,-2.19,1.44,1.66
2024-12-06 13:36:37.868,38.7,557.0,0.64,0.75,-0.2,-2.19,1.44,1.66
2024-12-06 13:36:37.877,40.27,554.0,0.63,0.75,-0.19,-2.49,2.54,2.21
2024-12-06 13:36:37.887,38.25,574.0,0.61,0.76,-0.18,-1.88,1.5,2.14
2024-12-06 13:36:37.914,44.77,572.0,0.6,0.76,-0.18,-2.49,2.29,3.3
2024-12-06 13:36:37.916,47.02,565.0,0.61,0.76,-0.18,-1.94,2.29,3.3
2024-12-06 13:36:37.923,45.0,555.0,0.62,0.76,-0.19,-2.31,3.64,3.61
2024-12-06 13:36:37.938,42.75,604.0,0.6,0.76,-0.18,-2.19,3.58,3.12
2024-12-06 13:36:37.949,46.57,576.0,0.62,0.76,-0.18,-2.01,3.7,2.88
2024-12-06 13:36:37.955,49.72,564.0,0.62,0.76,-0.18,-2.37,4.67,3.06
2024-12-06 13:36:37.957,50.62,563.0,0.62,0.76,-0.17,-2.37,4.67,3.06
2024-12-06 13:36:37.967,51.97,569.0,0.62,0.76,-0.16,-2.19,5.22,2.88
2024-12-06 13:36:37.975,47.25,573.0,0.64,0.77,-0.16,-2.25,5.9,3.49
2024-12-06 13:36:37.982,50.17,575.0,0.64,0.78,-0.17,-2.31,4.98,4.77
2024-12-06 13:36:37.985,50.4,566.0,0.64,0.78,-0.17,-1.82,5.1,5.2
2024-12-06 13:36:37.993,49.95,588.0,0.62,0.76,-0.17,-2.01,4.06,4.46
2024-12-06 13:36:38.1,52.88,593.0,0.61,0.75,-0.16,-2.01,4.06,4.46
2024-12-06 13:36:38.11,52.42,574.0,0.63,0.74,-0.16,-1.94,3.64,4.1
2024-12-06 13:36:38.32,51.75,590.0,0.63,0.74,-0.18,-1.27,2.6,3.0
2024-12-06 13:36:38.36,50.62,623.0,0.63,0.74,-0.18,-1.15,2.72,2.75
2024-12-06 13:36:38.41,55.12,591.0,0.61,0.75,-0.18,-0.36,2.29,2.51
2024-12-06 13:36:38.55,54.0,598.0,0.6,0.75,-0.16,-0.36,2.29,2.51
2024-12-06 13:36:38.68,55.12,596.0,0.61,0.76,-0.16,-0.85,4.43,3.43
2024-12-06 13:36:38.71,55.35,589.0,0.58,0.75,-0.17,-0.3,4.86,3.43
2024-12-06 13:36:38.81,58.27,587.0,0.59,0.75,-0.17,0.01,4.31,3.43
2024-12-06 13:36:38.87,54.45,582.0,0.6,0.75,-0.19,0.01,4.31,3.43
2024-12-06 13:36:38.97,55.12,581.0,0.62,0.76,-0.18,-0.72,3.88,3.79
2024-12-06 13:36:38.113,60.75,587.0,0.62,0.72,-0.17,-2.01,3.39,3.79
2024-12-06 13:36:38.121,60.07,609.0,0.65,0.72,-0.15,-3.71,5.22,3.37
2024-12-06 13:36:38.176,57.15,597.0,0.64,0.77,-0.14,-6.03,7.91,6.72
2024-12-06 13:36:38.178,62.77,612.0,0.65,0.77,-0.14,-5.85,8.34,6.97
2024-12-06 13:36:38.186,64.57,594.0,0.65,0.74,-0.15,-5.0,8.21,6.36
2024-12-06 13:36:38.204,64.8,600.0,0.66,0.73,-0.15,-4.51,7.36,5.44
2024-12-06 13:36:38.208,62.1,614.0,0.66,0.73,-0.15,-4.45,6.2,4.77
2024-12-06 13:36:38.211,63.0,650.0,0.66,0.74,-0.14,-4.14,5.47,4.46
2024-12-06 13:36:38.219,65.47,605.0,0.65,0.75,-0.13,-4.14,5.47,4.46
2024-12-06 13:36:38.226,64.8,606.0,0.64,0.74,-0.14,-3.84,5.59,4.34
2024-12-06 13:36:38.235,63.45,595.0,0.64,0.73,-0.15,-3.35,5.83,4.1
2024-12-06 13:36:38.242,67.5,594.0,0.63,0.73,-0.14,-3.1,5.29,4.04
2024-12-06 13:36:38.254,71.32,592.0,0.63,0.73,-0.14,-2.8,4.74,3.98
2024-12-06 13:36:38.268,70.88,583.0,0.63,0.73,-0.14,-2.37,5.1,3.85
2024-12-06 13:36:38.273,68.4,586.0,0.63,0.72,-0.15,-2.37,5.1,3.85
2024-12-06 13:36:38.275,67.05,592.0,0.64,0.72,-0.15,-2.07,5.53,3.73
2024-12-06 13:36:38.285,70.42,584.0,0.64,0.73,-0.14,-2.25,4.74,3.79
2024-12-06 13:36:38.301,69.07,577.0,0.63,0.73,-0.14,-2.49,3.51,3.85
2024-12-06 13:36:38.304,72.45,587.0,0.63,0.73,-0.14,-2.56,3.33,3.67
2024-12-06 13:36:38.306,71.78,580.0,0.64,0.73,-0.14,-2.86,3.64,3.55
2024-12-06 13:36:38.312,72.22,586.0,0.65,0.75,-0.15,-2.86,3.64,3.55
2024-12-06 13:36:38.323,70.42,595.0,0.64,0.77,-0.14,-3.41,3.21,3.79
2024-12-06 13:36:38.328,68.85,569.0,0.63,0.76,-0.14,-3.41,2.84,3.67
2024-12-06 13:36:38.337,75.6,593.0,0.63,0.75,-0.15,-3.29,3.21,3.3
2024-12-06 13:36:38.345,76.95,576.0,0.63,0.75,-0.15,-3.35,3.45,2.88
2024-12-06 13:36:38.377,74.7,579.0,0.63,0.74,-0.14,-2.13,4.49,2.63
2024-12-06 13:36:38.385,78.75,580.0,0.63,0.74,-0.14,-2.07,4.67,2.39
2024-12-06 13:36:38.392,79.42,577.0,0.64,0.73,-0.13,-2.13,5.29,2.57
2024-12-06 13:36:38.401,76.28,576.0,0.65,0.74,-0.12,-2.13,5.29,2.57
2024-12-06 13:36:38.409,76.95,595.0,0.65,0.74,-0.11,-1.88,5.83,2.82
2024-12-06 13:36:38.414,76.5,584.0,0.66,0.73,-0.12,-1.82,5.96,3.06
2024-12-06 13:36:38.420,79.42,578.0,0.66,0.72,-0.12,-1.82,4.98,3.24
2024-12-06 13:36:38.429,80.1,586.0,0.66,0.72,-0.12,-1.94,3.64,3.43
2024-12-06 13:36:38.437,80.78,585.0,0.67,0.73,-0.12,-2.25,3.09,3.55
2024-12-06 13:36:38.448,82.35,614.0,0.67,0.73,-0.11,-2.25,3.09,3.55
2024-12-06 13:36:38.457,83.47,607.0,0.66,0.73,-0.12,-2.37,3.09,3.55
2024-12-06 13:36:38.466,81.45,586.0,0.66,0.73,-0.13,-2.37,3.33,3.37
2024-12-06 13:36:38.469,84.38,588.0,0.65,0.74,-0.12,-2.49,3.21,3.3
2024-12-06 13:36:38.479,81.22,604.0,0.65,0.74,-0.12,-2.56,2.9,3.61
2024-12-06 13:36:38.486,85.5,593.0,0.65,0.75,-0.11,-2.56,2.9,3.91
2024-12-06 13:36:38.491,83.03,593.0,0.65,0.74,-0.1,-2.74,3.09,3.91
2024-12-06 13:36:38.500,82.12,588.0,0.65,0.73,-0.1,-3.1,3.94,4.16
2024-12-06 13:36:38.507,82.8,597.0,0.66,0.72,-0.1,-3.41,4.92,4.34
2024-12-06 13:36:38.516,86.85,604.0,0.66,0.72,-0.1,-3.53,5.41,4.4
2024-12-06 13:36:38.524,81.9,610.0,0.66,0.72,-0.1,-3.71,5.35,4.59
2024-12-06 13:36:38.530,84.38,605.0,0.66,0.73,-0.09,-3.84,5.1,4.77
2024-12-06 13:36:38.545,81.22,599.0,0.65,0.74,-0.1,-3.84,5.1,4.77
2024-12-06 13:36:38.548,84.38,611.0,0.65,0.75,-0.11,-3.96,5.04,4.83
2024-12-06 13:36:38.554,86.17,607.0,0.65,0.74,-0.11,-4.2,5.22,4.77
2024-12-06 13:36:38.562,85.28,610.0,0.65,0.74,-0.11,-4.2,5.35,4.59
2024-12-06 13:36:38.596,83.7,616.0,0.66,0.74,-0.1,-4.81,5.16,4.28
2024-12-06 13:36:38.602,87.52,617.0,0.65,0.74,-0.1,-5.06,5.41,4.52
2024-12-06 13:36:38.610,84.38,622.0,0.65,0.74,-0.1,-5.3,5.47,4.83
2024-12-06 13:36:38.619,91.8,612.0,0.65,0.74,-0.11,-5.3,5.22,5.07
2024-12-06 13:36:38.624,86.62,628.0,0.65,0.74,-0.11,-5.3,5.22,5.07
2024-12-06 13:36:38.633,83.03,611.0,0.65,0.72,-0.1,-5.18,5.35,5.2
2024-12-06 13:36:38.642,88.2,615.0,0.66,0.72,-0.1,-5.12,4.98,5.2
2024-12-06 13:36:38.649,87.07,618.0,0.66,0.72,-0.09,-5.12,4.43,4.95
2024-12-06 13:36:38.655,87.3,639.0,0.66,0.72,-0.09,-5.36,3.45,4.77
2024-12-06 13:36:38.753,90.67,616.0,0.67,0.73,-0.09,-5.36,2.54,4.77
2024-12-06 13:36:38.766,92.92,623.0,0.67,0.73,-0.08,-4.57,3.88,4.89
2024-12-06 13:36:38.769,93.82,645.0,0.67,0.73,-0.08,-4.51,4.43,4.59
2024-12-06 13:36:38.776,93.82,634.0,0.67,0.73,-0.09,-4.57,4.0,4.46
2024-12-06 13:36:38.784,96.52,636.0,0.66,0.75,-0.1,-4.57,4.0,4.46
2024-12-06 13:36:38.816,93.15,616.0,0.66,0.72,-0.09,-3.47,2.05,3.91
2024-12-06 13:36:38.824,95.4,637.0,0.67,0.71,-0.08,-3.47,2.05,3.91
2024-12-06 13:36:38.831,100.12,626.0,0.66,0.72,-0.07,-3.65,0.65,3.49
2024-12-06 13:36:38.838,95.17,624.0,0.65,0.73,-0.07,-3.84,-0.57,2.94
2024-12-06 13:36:38.847,100.57,628.0,0.65,0.73,-0.08,-3.84,-1.37,2.51
2024-12-06 13:36:38.854,101.02,642.0,0.65,0.73,-0.08,-3.9,-1.37,2.21
2024-12-06 13:36:38.865,99.0,613.0,0.65,0.73,-0.08,-3.84,-0.76,2.08
2024-12-06 13:36:38.871,96.3,644.0,0.66,0.72,-0.08,-3.84,-0.76,2.08
2024-12-06 13:36:38.878,99.9,630.0,0.67,0.72,-0.08,-3.9,0.28,2.33
2024-12-06 13:36:38.887,100.57,638.0,0.67,0.73,-0.07,-4.02,1.07,2.75
2024-12-06 13:36:38.898,98.77,636.0,0.67,0.74,-0.07,-4.02,1.32,3.18
2024-12-06 13:36:38.902,100.35,616.0,0.67,0.74,-0.08,-3.84,1.32,3.49
2024-12-06 13:36:38.909,95.62,619.0,0.67,0.73,-0.08,-3.78,1.01,3.91
2024-12-06 13:36:38.916,101.25,636.0,0.68,0.73,-0.08,-3.78,1.01,3.91
2024-12-06 13:36:38.925,98.77,620.0,0.69,0.73,-0.07,-3.78,1.01,4.28
2024-12-06 13:36:38.932,102.82,646.0,0.69,0.72,-0.06,-4.14,1.2,4.65
2024-12-06 13:36:38.941,104.17,651.0,0.7,0.72,-0.06,-4.39,1.26,4.95
2024-12-06 13:36:38.959,100.35,621.0,0.7,0.71,-0.06,-4.69,1.68,5.14
2024-12-06 13:36:38.963,97.42,609.0,0.7,0.71,-0.06,-3.96,4.43,5.81
2024-12-06 13:36:38.966,103.5,630.0,0.72,0.69,-0.06,-3.96,4.43,5.81
2024-12-06 13:36:38.972,103.95,614.0,0.68,0.68,-0.06,-2.98,-0.21,4.65
2024-12-06 13:36:38.980,100.12,623.0,0.68,0.69,-0.06,-3.29,-1.31,2.51
2024-12-06 13:36:38.993,99.67,634.0,0.72,0.72,-0.04,-2.92,-0.7,3.43
2024-12-06 13:36:38.996,102.6,619.0,0.68,0.73,-0.05,-2.19,-0.21,3.73
2024-12-06 13:36:39.9,104.17,630.0,0.68,0.73,-0.05,-2.56,1.62,3.55
2024-12-06 13:36:39.13,103.05,635.0,0.67,0.71,-0.06,-2.56,1.62,3.55
2024-12-06 13:36:39.55,98.1,620.0,0.67,0.72,-0.07,-1.15,3.15,3.12
2024-12-06 13:36:39.61,105.07,620.0,0.67,0.72,-0.07,-0.72,1.87,2.63
2024-12-06 13:36:39.64,101.7,654.0,0.66,0.72,-0.07,-0.72,1.87,2.63
2024-12-06 13:36:39.72,105.07,634.0,0.67,0.72,-0.07,-0.91,1.01,2.08
2024-12-06 13:36:39.93,104.85,641.0,0.69,0.71,-0.05,-1.15,0.59,1.78
2024-12-06 13:36:39.97,103.27,644.0,0.68,0.74,-0.06,-1.64,1.13,1.47
2024-12-06 13:36:39.110,105.07,624.0,0.66,0.76,-0.06,-1.76,1.32,1.66
2024-12-06 13:36:39.114,105.3,627.0,0.65,0.75,-0.06,-1.46,-0.57,1.84
2024-12-06 13:36:39.122,103.05,620.0,0.66,0.73,-0.07,-1.27,-0.51,1.96
2024-12-06 13:36:39.127,106.2,615.0,0.66,0.73,-0.07,-1.4,-0.27,2.02
2024-12-06 13:36:39.136,104.17,623.0,0.68,0.72,-0.07,-1.82,-0.88,1.9
2024-12-06 13:36:39.142,104.17,626.0,0.68,0.71,-0.05,-1.82,-0.88,1.9
2024-12-06 13:36:39.152,103.27,632.0,0.67,0.71,-0.05,-2.25,-1.8,1.47
2024-12-06 13:36:39.158,108.67,644.0,0.68,0.71,-0.06,-2.37,-2.65,1.05
2024-12-06 13:36:39.166,103.72,624.0,0.68,0.71,-0.07,-2.56,-1.92,0.92
2024-12-06 13:36:39.174,105.52,634.0,0.68,0.71,-0.07,-2.49,-1.55,0.98
2024-12-06 13:36:39.186,106.2,619.0,0.68,0.72,-0.06,-2.43,-1.18,1.23
2024-12-06 13:36:39.194,106.42,635.0,0.68,0.72,-0.06,-2.43,-1.18,1.23
2024-12-06 13:36:39.199,103.27,616.0,0.68,0.72,-0.05,-2.31,-0.64,1.41
2024-12-06 13:36:39.208,104.62,631.0,0.69,0.71,-0.05,-2.13,-0.33,1.53
2024-12-06 13:36:39.214,105.3,626.0,0.7,0.71,-0.06,-2.13,0.1,1.72
2024-12-06 13:36:39.223,102.38,628.0,0.7,0.71,-0.06,-2.01,0.34,1.84
2024-12-06 13:36:39.234,107.55,637.0,0.69,0.72,-0.06,-1.76,0.59,1.96
2024-12-06 13:36:39.239,103.27,617.0,0.68,0.72,-0.06,-1.76,0.59,1.96
2024-12-06 13:36:39.245,102.38,635.0,0.68,0.72,-0.07,-1.58,0.83,1.96
2024-12-06 13:36:39.255,105.07,622.0,0.68,0.72,-0.07,-1.52,1.13,1.96
2024-12-06 13:36:39.288,103.5,654.0,0.68,0.72,-0.06,-1.27,3.64,2.82
2024-12-06 13:36:39.291,107.32,638.0,0.68,0.73,-0.07,-0.91,4.0,2.94
2024-12-06 13:36:39.299,103.95,618.0,0.68,0.73,-0.07,-0.48,4.0,3.12
2024-12-06 13:36:39.307,103.05,615.0,0.68,0.73,-0.07,0.01,3.88,3.18
2024-12-06 13:36:39.315,103.05,634.0,0.69,0.73,-0.07,0.44,3.64,3.18
2024-12-06 13:36:39.330,106.88,624.0,0.69,0.72,-0.06,0.44,3.64,3.18
2024-12-06 13:36:39.334,107.32,635.0,0.69,0.72,-0.06,0.44,3.51,3.0
2024-12-06 13:36:39.350,108.9,641.0,0.68,0.73,-0.06,0.44,3.7,2.75
2024-12-06 13:36:39.353,102.82,629.0,0.68,0.73,-0.06,0.56,4.06,2.94
2024-12-06 13:36:39.361,104.62,629.0,0.67,0.74,-0.07,0.8,4.0,3.24
2024-12-06 13:36:39.369,106.65,628.0,0.67,0.74,-0.07,0.8,4.0,3.24
2024-12-06 13:36:39.382,105.07,639.0,0.67,0.74,-0.07,1.29,3.39,3.37
2024-12-06 13:36:39.387,105.52,627.0,0.68,0.73,-0.07,1.41,2.84,3.55
2024-12-06 13:36:39.393,110.02,619.0,0.68,0.72,-0.07,1.35,2.72,3.61
2024-12-06 13:36:39.403,109.12,625.0,0.68,0.72,-0.07,1.35,2.36,3.49
2024-12-06 13:36:39.410,102.15,634.0,0.68,0.71,-0.06,1.41,1.56,3.18
2024-12-06 13:36:39.417,107.32,630.0,0.67,0.71,-0.06,1.41,1.56,3.18
2024-12-06 13:36:39.426,103.95,612.0,0.67,0.71,-0.06,1.41,0.22,2.63
2024-12-06 13:36:39.432,103.95,614.0,0.67,0.7,-0.05,1.6,-1.37,1.96
2024-12-06 13:36:39.444,105.97,619.0,0.67,0.7,-0.05,1.9,-3.08,1.17
2024-12-06 13:36:39.449,105.52,625.0,0.68,0.7,-0.04,1.9,-4.3,0.5
2024-12-06 13:36:39.457,107.55,616.0,0.68,0.7,-0.04,1.78,-4.66,-0.05
2024-12-06 13:36:39.490,107.55,613.0,0.69,0.7,-0.03,1.78,-4.72,-0.6
2024-12-06 13:36:39.495,108.67,610.0,0.69,0.7,-0.04,2.14,-5.52,-1.64
2024-12-06 13:36:39.500,102.38,611.0,0.69,0.7,-0.04,2.27,-5.7,-1.94
2024-12-06 13:36:39.503,104.85,601.0,0.7,0.7,-0.04,2.39,-5.52,-2.13
2024-12-06 13:36:39.514,103.05,619.0,0.7,0.7,-0.04,2.39,-5.52,-2.13
2024-12-06 13:36:39.525,103.05,599.0,0.7,0.7,-0.04,2.39,-5.34,-2.43
2024-12-06 13:36:39.529,105.3,603.0,0.71,0.7,-0.05,2.39,-5.03,-2.8
2024-12-06 13:36:39.535,103.72,600.0,0.71,0.69,-0.05,2.57,-5.03,-2.98
2024-12-06 13:36:39.543,104.4,614.0,0.7,0.7,-0.06,2.94,-5.03,-3.35
2024-12-06 13:36:39.552,105.3,602.0,0.7,0.7,-0.06,3.18,-4.91,-3.53
2024-12-06 13:36:39.559,107.77,607.0,0.71,0.7,-0.06,3.18,-4.91,-3.53
2024-12-06 13:36:39.567,102.6,615.0,0.71,0.71,-0.05,3.06,-4.42,-3.41
2024-12-06 13:36:39.581,108.22,618.0,0.7,0.71,-0.04,3.0,-3.93,-3.47
2024-12-06 13:36:39.585,105.52,597.0,0.69,0.71,-0.05,3.0,-3.99,-3.71
2024-12-06 13:36:39.594,102.6,587.0,0.68,0.7,-0.05,2.94,-4.18,-4.2
2024-12-06 13:36:39.609,105.52,600.0,0.68,0.71,-0.05,2.88,-4.42,-4.75
2024-12-06 13:36:39.614,104.17,661.0,0.69,0.71,-0.05,2.88,-4.42,-4.75
2024-12-06 13:36:39.624,108.67,609.0,0.68,0.72,-0.05,2.75,-4.11,-4.75
2024-12-06 13:36:39.633,108.9,594.0,0.67,0.72,-0.05,2.75,-3.99,-5.0
2024-12-06 13:36:39.644,106.2,609.0,0.67,0.72,-0.06,2.63,-3.75,-5.12
2024-12-06 13:36:39.646,104.85,584.0,0.67,0.72,-0.06,2.63,-3.81,-5.24
2024-12-06 13:36:39.657,102.82,595.0,0.66,0.71,-0.06,2.63,-3.75,-5.3
2024-12-06 13:36:39.662,104.4,595.0,0.66,0.72,-0.07,2.63,-3.75,-5.3
2024-12-06 13:36:39.670,102.6,604.0,0.65,0.74,-0.08,2.51,-3.38,-5.24
2024-12-06 13:36:39.679,104.85,603.0,0.65,0.75,-0.08,2.33,-2.71,-4.94
2024-12-06 13:36:39.686,104.85,594.0,0.64,0.76,-0.08,2.14,-2.22,-4.63
2024-12-06 13:36:39.815,103.27,584.0,0.65,0.75,-0.1,6.91,-3.02,-7.56
2024-12-06 13:36:39.822,105.75,596.0,0.65,0.74,-0.11,6.91,-3.02,-7.56
2024-12-06 13:36:39.830,103.5,577.0,0.65,0.74,-0.11,7.21,-3.14,-7.62
2024-12-06 13:36:39.840,102.6,574.0,0.64,0.74,-0.11,7.21,-3.32,-7.74
2024-12-06 13:36:39.856,107.77,584.0,0.65,0.74,-0.1,7.03,-2.95,-7.44
2024-12-06 13:36:39.862,105.97,578.0,0.65,0.74,-0.1,6.91,-2.83,-6.95
2024-12-06 13:36:39.866,105.3,581.0,0.65,0.74,-0.1,6.6,-2.53,-6.58
2024-12-06 13:36:39.877,105.07,592.0,0.64,0.74,-0.1,6.6,-2.53,-6.58
2024-12-06 13:36:39.881,104.62,588.0,0.64,0.74,-0.11,6.48,-3.02,-6.4
2024-12-06 13:36:39.889,104.62,605.0,0.65,0.74,-0.11,6.17,-2.83,-6.03
2024-12-06 13:36:39.893,105.3,581.0,0.65,0.74,-0.11,5.81,-3.26,-5.85
2024-12-06 13:36:39.901,104.62,589.0,0.65,0.74,-0.11,5.62,-3.81,-5.73
2024-12-06 13:36:39.911,103.95,577.0,0.65,0.73,-0.11,4.22,-2.77,-5.73
2024-12-06 13:36:39.924,103.05,566.0,0.65,0.73,-0.1,4.22,-2.77,-5.73
2024-12-06 13:36:39.927,105.75,564.0,0.64,0.73,-0.1,4.22,-3.38,-5.61
2024-12-06 13:36:39.933,98.32,556.0,0.65,0.73,-0.11,3.55,-3.2,-5.3
2024-12-06 13:36:39.940,107.32,576.0,0.65,0.73,-0.1,3.24,-3.2,-4.75
2024-12-06 13:36:39.950,104.85,554.0,0.65,0.73,-0.1,2.88,-2.89,-3.96
2024-12-06 13:36:39.957,107.55,562.0,0.66,0.73,-0.1,2.45,-2.16,-3.17
2024-12-06 13:36:39.971,102.6,560.0,0.65,0.74,-0.09,2.45,-2.16,-3.17
2024-12-06 13:36:40.0,104.85,571.0,0.66,0.74,-0.1,0.56,1.01,-0.3
2024-12-06 13:36:40.2,106.2,580.0,0.67,0.74,-0.11,0.56,1.01,-0.3
2024-12-06 13:36:40.13,109.12,575.0,0.67,0.74,-0.12,0.25,1.26,0.62
2024-12-06 13:36:40.21,103.27,544.0,0.67,0.75,-0.13,0.25,1.2,1.66
2024-12-06 13:36:40.26,102.6,559.0,0.66,0.75,-0.13,0.19,1.44,2.27
2024-12-06 13:36:40.39,104.17,592.0,0.64,0.75,-0.13,-0.05,1.74,2.51
2024-12-06 13:36:40.41,104.17,552.0,0.64,0.75,-0.13,-0.05,2.23,2.82
2024-12-06 13:36:40.49,104.62,564.0,0.63,0.76,-0.13,-0.05,2.23,2.82
2024-12-06 13:36:40.61,102.82,560.0,0.63,0.77,-0.13,0.19,2.97,3.0
2024-12-06 13:36:40.65,104.85,566.0,0.63,0.77,-0.13,0.62,3.27,3.37
2024-12-06 13:36:40.73,104.62,564.0,0.63,0.76,-0.12,0.98,3.45,3.55
2024-12-06 13:36:40.81,104.17,574.0,0.63,0.76,-0.12,1.35,3.51,3.49
2024-12-06 13:36:40.89,101.25,544.0,0.63,0.76,-0.12,1.6,3.64,3.18
2024-12-06 13:36:40.97,105.3,556.0,0.63,0.76,-0.11,1.6,3.51,2.88
2024-12-06 13:36:40.108,105.75,547.0,0.63,0.75,-0.11,1.84,3.51,2.88
2024-12-06 13:36:40.115,102.38,539.0,0.63,0.75,-0.11,2.02,3.21,2.45
2024-12-06 13:36:40.121,108.22,534.0,0.62,0.75,-0.11,2.14,3.03,1.78
2024-12-06 13:36:40.129,103.05,549.0,0.62,0.74,-0.11,2.21,3.03,1.11
2024-12-06 13:36:40.145,105.75,554.0,0.62,0.74,-0.11,2.33,3.33,0.5
2024-12-06 13:36:40.185,103.72,580.0,0.62,0.74,-0.12,3.85,3.27,-0.42
2024-12-06 13:36:40.190,108.45,533.0,0.62,0.73,-0.12,4.16,2.9,-0.72
2024-12-06 13:36:40.199,104.4,528.0,0.63,0.73,-0.12,4.16,2.9,-0.72
2024-12-06 13:36:40.203,104.4,529.0,0.64,0.74,-0.12,4.28,2.72,-1.03
2024-12-06 13:36:40.206,105.07,539.0,0.64,0.74,-0.12,3.85,2.84,-1.09
2024-12-06 13:36:40.213,103.05,544.0,0.64,0.74,-0.12,4.04,2.72,-1.15
2024-12-06 13:36:40.221,106.42,522.0,0.64,0.74,-0.12,4.04,2.78,-0.97
2024-12-06 13:36:40.232,108.9,538.0,0.64,0.75,-0.12,4.04,2.9,-0.6
2024-12-06 13:36:40.238,104.85,533.0,0.64,0.76,-0.12,3.91,2.9,-0.6
2024-12-06 13:36:40.245,105.07,532.0,0.63,0.76,-0.12,3.91,2.66,-0.54
2024-12-06 13:36:40.253,101.92,522.0,0.63,0.75,-0.12,3.91,2.29,-0.66
2024-12-06 13:36:40.263,101.92,523.0,0.63,0.75,-0.12,3.79,2.11,-0.85
2024-12-06 13:36:40.272,107.55,522.0,0.63,0.75,-0.12,3.43,2.23,-0.85
2024-12-06 13:36:40.278,105.3,544.0,0.64,0.75,-0.11,3.24,1.99,-0.91
2024-12-06 13:36:40.288,106.88,526.0,0.64,0.75,-0.1,3.24,1.99,-0.91
2024-12-06 13:36:40.302,106.88,528.0,0.64,0.74,-0.11,3.18,1.62,-0.97
2024-12-06 13:36:40.308,105.52,540.0,0.64,0.74,-0.11,3.12,1.07,-0.97
2024-12-06 13:36:40.313,102.6,557.0,0.64,0.74,-0.11,3.12,0.4,-1.09
2024-12-06 13:36:40.316,103.95,524.0,0.64,0.74,-0.11,2.88,-0.09,-1.33
2024-12-06 13:36:40.327,103.95,514.0,0.63,0.74,-0.1,2.45,0.52,-1.46
2024-12-06 13:36:40.331,104.4,534.0,0.64,0.74,-0.1,2.45,0.52,-1.46
2024-12-06 13:36:40.340,106.42,524.0,0.63,0.75,-0.1,2.14,1.26,-1.4
2024-12-06 13:36:40.348,104.62,522.0,0.63,0.75,-0.1,1.96,1.93,-1.21
2024-12-06 13:36:40.355,108.0,535.0,0.64,0.75,-0.1,1.66,2.29,-0.91
2024-12-06 13:36:40.363,106.88,524.0,0.64,0.75,-0.1,1.6,2.05,-0.79
2024-12-06 13:36:40.371,107.55,537.0,0.64,0.75,-0.1,1.47,0.95,-0.66
2024-12-06 13:36:40.409,104.85,556.0,0.64,0.83,-0.11,-0.97,1.26,1.78
2024-12-06 13:36:40.418,103.27,525.0,0.64,0.83,-0.11,-2.01,1.13,2.57
2024-12-06 13:36:40.427,105.52,533.0,0.64,0.82,-0.12,-2.01,1.13,2.57
2024-12-06 13:36:40.429,102.15,516.0,0.64,0.79,-0.12,-2.8,1.32,3.0
2024-12-06 13:36:40.432,105.52,532.0,0.65,0.77,-0.11,-3.04,1.5,3.18
2024-12-06 13:36:40.447,104.85,520.0,0.65,0.76,-0.09,-3.04,0.71,3.24
2024-12-06 13:36:40.449,96.75,514.0,0.65,0.76,-0.09,-2.98,-0.33,3.43
2024-12-06 13:36:40.458,100.35,510.0,0.65,0.76,-0.09,-2.68,-0.39,4.16
2024-12-06 13:36:40.467,100.8,500.0,0.64,0.75,-0.09,-2.68,-0.39,4.16
2024-12-06 13:36:40.475,101.7,542.0,0.63,0.74,-0.09,-1.76,-0.64,4.89
2024-12-06 13:36:40.480,100.12,519.0,0.61,0.74,-0.09,-0.97,-1.8,6.42
2024-12-06 13:36:40.490,104.17,529.0,0.61,0.73,-0.1,-0.11,-2.71,7.39
2024-12-06 13:36:40.498,95.85,523.0,0.61,0.73,-0.1,1.05,-2.34,7.76
2024-12-06 13:36:40.504,100.35,523.0,0.64,0.72,-0.11,2.02,-2.83,7.33
2024-12-06 13:36:40.514,94.5,533.0,0.66,0.71,-0.11,2.02,-2.83,7.33
2024-12-06 13:36:40.527,96.75,529.0,0.67,0.73,-0.11,2.21,-3.26,6.36
2024-12-06 13:36:40.531,96.07,515.0,0.67,0.72,-0.12,2.02,-2.16,5.32
2024-12-06 13:36:40.535,94.95,525.0,0.67,0.7,-0.12,2.33,-1.67,3.3
2024-12-06 13:36:40.547,94.95,528.0,0.67,0.7,-0.12,2.33,-2.47,1.72
2024-12-06 13:36:40.550,93.6,519.0,0.68,0.71,-0.12,2.08,-3.87,0.8
2024-12-06 13:36:40.558,96.52,511.0,0.67,0.73,-0.13,2.08,-3.87,0.8
2024-12-06 13:36:40.566,89.77,528.0,0.66,0.73,-0.14,2.14,-2.83,0.07
2024-12-06 13:36:40.579,93.6,502.0,0.65,0.73,-0.12,2.63,-3.02,-0.24
2024-12-06 13:36:40.584,92.7,517.0,0.65,0.75,-0.11,2.63,-3.08,0.07
2024-12-06 13:36:40.594,90.9,520.0,0.65,0.75,-0.12,2.69,-2.04,0.5
2024-12-06 13:36:40.633,90.67,519.0,0.64,0.74,-0.12,3.43,-0.57,0.62
2024-12-06 13:36:40.635,86.85,516.0,0.64,0.74,-0.12,4.34,-0.94,1.17
2024-12-06 13:36:40.637,90.45,523.0,0.64,0.74,-0.12,4.77,-0.88,0.74
2024-12-06 13:36:40.644,87.52,531.0,0.65,0.74,-0.13,4.77,-1.55,0.44
2024-12-06 13:36:40.652,87.75,503.0,0.66,0.75,-0.13,4.71,-1.55,0.44
2024-12-06 13:36:40.660,85.72,518.0,0.65,0.75,-0.13,4.46,-2.16,0.19
2024-12-06 13:36:40.669,88.65,511.0,0.65,0.74,-0.12,4.4,-2.22,-0.11
2024-12-06 13:36:40.682,88.42,514.0,0.64,0.74,-0.11,4.28,-2.28,-0.11
2024-12-06 13:36:40.685,85.5,516.0,0.64,0.74,-0.11,3.85,-2.41,0.07
2024-12-06 13:36:40.692,83.92,517.0,0.64,0.75,-0.12,3.85,-1.98,0.19
2024-12-06 13:36:40.700,83.92,521.0,0.63,0.75,-0.13,3.85,-1.98,0.19
2024-12-06 13:36:40.711,85.5,510.0,0.63,0.74,-0.14,4.34,-1.92,0.13
2024-12-06 13:36:40.718,85.72,533.0,0.63,0.75,-0.13,4.4,-3.02,0.07
2024-12-06 13:36:40.726,83.92,516.0,0.63,0.76,-0.14,4.22,-3.5,0.25
2024-12-06 13:36:40.731,79.88,523.0,0.63,0.76,-0.14,4.46,-2.59,0.19
2024-12-06 13:36:40.739,78.07,529.0,0.63,0.75,-0.15,4.71,-2.59,-0.17
2024-12-06 13:36:40.753,80.78,523.0,0.63,0.74,-0.14,4.71,-2.59,-0.17
2024-12-06 13:36:40.755,77.62,524.0,0.63,0.74,-0.13,4.34,-3.26,-0.6
2024-12-06 13:36:40.851,81.67,513.0,0.63,0.73,-0.13,3.98,-3.5,-1.03
2024-12-06 13:36:40.861,69.53,529.0,0.62,0.75,-0.15,3.43,-3.32,3.0
2024-12-06 13:36:40.869,72.0,532.0,0.63,0.74,-0.15,3.55,-2.95,2.94
2024-12-06 13:36:40.878,75.38,517.0,0.65,0.74,-0.14,3.61,-2.41,2.63
2024-12-06 13:36:40.888,73.57,537.0,0.66,0.75,-0.15,3.37,-1.67,2.14
2024-12-06 13:36:40.892,67.28,533.0,0.66,0.75,-0.15,3.12,-0.51,2.02
2024-12-06 13:36:40.914,65.47,531.0,0.66,0.74,-0.16,3.06,-0.27,1.53
2024-12-06 13:36:40.916,69.97,520.0,0.66,0.75,-0.15,2.94,-0.64,1.17
2024-12-06 13:36:40.924,70.42,508.0,0.65,0.75,-0.16,2.69,-1.49,1.17
2024-12-06 13:36:40.931,66.38,519.0,0.64,0.73,-0.16,2.57,-1.86,0.86
2024-12-06 13:36:40.939,67.95,536.0,0.64,0.72,-0.15,2.75,-2.04,0.44
2024-12-06 13:36:40.952,64.35,517.0,0.64,0.72,-0.15,2.75,-2.16,0.5
2024-12-06 13:36:40.957,61.42,527.0,0.64,0.73,-0.15,2.75,-2.16,0.5
2024-12-06 13:36:40.963,63.9,543.0,0.63,0.73,-0.15,2.94,-1.67,0.56
2024-12-06 13:36:40.972,64.12,522.0,0.63,0.74,-0.15,3.49,-1.55,0.92
2024-12-06 13:36:40.979,64.57,531.0,0.64,0.74,-0.15,3.61,-1.61,1.35
2024-12-06 13:36:40.987,61.88,526.0,0.63,0.74,-0.16,3.61,-1.43,1.78
2024-12-06 13:36:40.996,61.65,521.0,0.63,0.74,-0.16,4.1,-1.12,1.6
2024-12-06 13:36:41.7,59.85,552.0,0.63,0.73,-0.16,3.98,-0.94,1.53
2024-12-06 13:36:41.11,57.6,525.0,0.64,0.74,-0.16,3.98,-0.94,1.53
2024-12-06 13:36:41.19,61.88,516.0,0.64,0.75,-0.15,3.43,-0.64,1.53
2024-12-06 13:36:41.26,58.27,516.0,0.63,0.74,-0.16,3.37,-0.76,1.17
2024-12-06 13:36:41.36,55.8,537.0,0.64,0.73,-0.16,3.24,-0.27,0.92
2024-12-06 13:36:41.75,58.5,516.0,0.64,0.74,-0.15,2.94,0.04,1.72
2024-12-06 13:36:41.80,56.7,543.0,0.64,0.74,-0.15,2.88,-0.33,1.78
2024-12-06 13:36:41.98,51.52,542.0,0.63,0.73,-0.15,2.88,-0.33,1.66
2024-12-06 13:36:41.104,50.4,530.0,0.64,0.73,-0.16,3.24,-0.21,1.66
2024-12-06 13:36:41.110,51.3,537.0,0.65,0.74,-0.16,3.12,0.65,2.21
2024-12-06 13:36:41.112,48.82,535.0,0.64,0.73,-0.15,2.75,-0.03,1.96
2024-12-06 13:36:41.118,51.3,537.0,0.64,0.73,-0.15,2.82,-0.82,1.6
2024-12-06 13:36:41.126,54.0,543.0,0.64,0.73,-0.15,2.45,-1.06,1.72
2024-12-06 13:36:41.134,49.95,527.0,0.65,0.74,-0.15,2.45,-1.06,1.72
2024-12-06 13:36:41.143,53.1,541.0,0.64,0.74,-0.16,2.14,-1.31,1.9
2024-12-06 13:36:41.151,45.9,545.0,0.64,0.74,-0.17,2.27,-1.55,1.78
2024-12-06 13:36:41.169,49.27,534.0,0.62,0.78,-0.16,2.14,-1.8,2.88
2024-12-06 13:36:41.171,45.0,530.0,0.62,0.78,-0.13,2.21,-2.04,4.71
2024-12-06 13:36:41.174,46.57,544.0,0.59,0.77,-0.16,2.69,-2.47,5.81
2024-12-06 13:36:41.181,45.22,542.0,0.6,0.75,-0.16,2.69,-2.47,5.81
2024-12-06 13:36:41.190,46.12,541.0,0.62,0.76,-0.16,2.82,-2.34,6.97
2024-12-06 13:36:41.198,43.42,528.0,0.63,0.75,-0.16,2.75,-1.98,7.21
2024-12-06 13:36:41.206,42.52,551.0,0.65,0.74,-0.16,2.88,-1.31,6.66
2024-12-06 13:36:41.223,43.2,532.0,0.66,0.74,-0.16,2.57,0.16,5.81
2024-12-06 13:36:41.228,42.08,536.0,0.66,0.73,-0.17,2.57,0.16,5.81
2024-12-06 13:36:41.240,45.45,534.0,0.66,0.74,-0.18,2.51,-0.27,5.14
2024-12-06 13:36:41.244,41.85,549.0,0.66,0.74,-0.18,2.21,-0.94,4.89
2024-12-06 13:36:41.255,42.97,530.0,0.65,0.74,-0.18,2.08,-1.73,4.34
2024-12-06 13:36:41.260,41.85,537.0,0.65,0.74,-0.18,2.14,-2.1,4.65
2024-12-06 13:36:41.268,36.0,526.0,0.66,0.75,-0.18,1.96,-2.34,5.56
2024-12-06 13:36:41.304,39.38,524.0,0.68,0.72,-0.17,2.39,-1.43,4.52
2024-12-06 13:36:41.308,36.0,545.0,0.68,0.72,-0.17,2.39,0.28,4.4
2024-12-06 13:36:41.314,35.1,542.0,0.66,0.73,-0.17,3.06,0.52,4.52
2024-12-06 13:36:41.323,38.92,537.0,0.65,0.72,-0.17,3.06,0.52,4.52
2024-12-06 13:36:41.331,36.67,528.0,0.66,0.72,-0.18,2.82,0.52,4.34
2024-12-06 13:36:41.344,36.45,545.0,0.65,0.71,-0.18,2.82,-0.27,3.67
2024-12-06 13:36:41.346,33.52,540.0,0.65,0.71,-0.18,3.3,-1.8,2.94
2024-12-06 13:36:41.358,33.97,538.0,0.65,0.71,-0.18,3.3,-1.92,2.75
2024-12-06 13:36:41.364,32.17,536.0,0.66,0.72,-0.19,3.37,-1.98,2.75
2024-12-06 13:36:41.370,32.17,530.0,0.64,0.72,-0.18,3.37,-1.98,2.75
2024-12-06 13:36:41.379,29.7,527.0,0.63,0.72,-0.17,3.98,-2.77,2.33
2024-12-06 13:36:41.385,29.25,529.0,0.65,0.72,-0.18,4.16,-2.28,2.39
2024-12-06 13:36:41.394,29.92,536.0,0.64,0.73,-0.18,3.98,-0.76,2.94
2024-12-06 13:36:41.401,30.82,535.0,0.64,0.73,-0.18,4.1,-0.51,2.88
2024-12-06 13:36:41.410,31.5,541.0,0.63,0.72,-0.17,4.34,-0.39,2.57
2024-12-06 13:36:41.419,27.9,539.0,0.63,0.71,-0.18,4.34,-0.39,2.57
2024-12-06 13:36:41.426,24.75,545.0,0.64,0.72,-0.18,3.85,1.01,2.51
2024-12-06 13:36:41.441,25.42,531.0,0.63,0.71,-0.17,3.49,1.07,2.45
2024-12-06 13:36:41.449,24.75,530.0,0.64,0.7,-0.17,3.79,0.16,1.96
2024-12-06 13:36:41.452,25.42,511.0,0.64,0.7,-0.17,3.55,0.89,1.84
2024-12-06 13:36:41.456,24.07,524.0,0.65,0.71,-0.19,3.55,1.74,1.9
2024-12-06 13:36:41.466,24.3,543.0,0.65,0.72,-0.18,3.24,1.74,1.9
2024-12-06 13:36:41.474,21.38,569.0,0.64,0.72,-0.17,3.49,0.71,1.78
2024-12-06 13:36:41.496,24.3,531.0,0.64,0.72,-0.18,3.85,-0.64,1.35
2024-12-06 13:36:41.524,25.65,544.0,0.65,0.72,-0.2,3.85,-0.33,0.98
2024-12-06 13:36:41.528,19.35,536.0,0.66,0.73,-0.2,3.67,0.28,0.98
2024-12-06 13:36:41.532,21.15,536.0,0.66,0.73,-0.2,3.79,0.22,1.05
2024-12-06 13:36:41.542,22.5,547.0,0.65,0.73,-0.18,3.79,0.22,1.05
2024-12-06 13:36:41.558,22.27,537.0,0.65,0.72,-0.18,4.1,-0.33,1.11
2024-12-06 13:36:41.561,16.88,550.0,0.65,0.72,-0.19,4.22,-0.21,1.05
2024-12-06 13:36:41.564,20.48,538.0,0.66,0.73,-0.19,4.1,0.16,1.11
2024-12-06 13:36:41.574,15.97,529.0,0.66,0.73,-0.16,4.16,0.89,1.41
2024-12-06 13:36:41.586,14.4,538.0,0.66,0.73,-0.18,4.28,0.4,1.41
2024-12-06 13:36:41.589,18.9,548.0,0.65,0.72,-0.17,4.28,0.4,1.41
2024-12-06 13:36:41.595,21.15,538.0,0.65,0.71,-0.19,4.28,-0.7,0.98
2024-12-06 13:36:41.603,15.07,535.0,0.67,0.7,-0.19,4.1,0.22,1.05
2024-12-06 13:36:41.611,12.82,539.0,0.66,0.7,-0.18,4.1,0.71,1.29
2024-12-06 13:36:41.629,14.17,534.0,0.65,0.7,-0.18,3.98,-0.57,1.17
2024-12-06 13:36:41.640,14.17,558.0,0.66,0.7,-0.19,3.98,-0.57,1.17
2024-12-06 13:36:41.645,11.02,558.0,0.66,0.71,-0.19,3.61,-0.27,1.6
2024-12-06 13:36:41.650,13.72,593.0,0.65,0.71,-0.18,3.49,0.1,2.08
2024-12-06 13:36:41.658,11.92,542.0,0.65,0.71,-0.18,3.61,-0.76,2.02
2024-12-06 13:36:41.667,7.88,541.0,0.65,0.71,-0.18,3.55,-0.51,2.39
2024-12-06 13:36:41.678,13.72,544.0,0.67,0.72,-0.2,3.55,-0.51,2.39
2024-12-06 13:36:41.680,6.75,541.0,0.68,0.72,-0.19,3.24,0.59,3.06
2024-12-06 13:36:41.691,6.3,547.0,0.66,0.72,-0.17,3.3,0.16,3.43
2024-12-06 13:36:41.696,8.77,547.0,0.66,0.71,-0.19,3.37,-0.7,3.3
2024-12-06 13:36:41.704,11.92,539.0,0.68,0.71,-0.2,2.88,-0.03,3.43
2024-12-06 13:36:41.712,6.97,531.0,0.68,0.71,-0.2,2.51,0.46,3.55
2024-12-06 13:36:41.720,8.77,559.0,0.66,0.71,-0.18,2.51,0.46,3.24
2024-12-06 13:36:41.755,5.85,542.0,0.65,0.7,-0.18,1.41,-0.88,3.61
2024-12-06 13:36:41.758,-1.12,540.0,0.65,0.7,-0.18,1.41,-0.88,3.61
2024-12-06 13:36:41.766,1.8,535.0,0.66,0.7,-0.2,1.05,-0.15,3.85
2024-12-06 13:36:41.774,-2.25,555.0,0.65,0.71,-0.18,0.62,1.13,4.28
2024-12-06 13:36:41.781,-1.35,541.0,0.64,0.71,-0.18,0.68,0.28,4.1
2024-12-06 13:36:41.792,1.12,551.0,0.65,0.71,-0.2,0.56,0.52,3.98
2024-12-06 13:36:41.797,4.05,548.0,0.65,0.71,-0.2,0.13,-0.03,3.61
2024-12-06 13:36:41.807,0.0,533.0,0.57,0.7,-0.13,15.76,-11.5,-1.21
2024-12-06 13:36:41.917,-4.72,546.0,0.67,0.7,-0.22,2.51,-0.82,-4.45
2024-12-06 13:36:41.922,-4.28,550.0,0.67,0.71,-0.22,2.51,-0.82,-4.45
2024-12-06 13:36:41.926,-4.28,579.0,0.66,0.71,-0.22,2.21,-0.21,-3.65
2024-12-06 13:36:41.935,-0.67,562.0,0.64,0.72,-0.21,1.84,0.28,-2.56
2024-12-06 13:36:41.941,-5.62,558.0,0.63,0.72,-0.22,1.66,0.71,-1.4
2024-12-06 13:36:41.948,-3.38,533.0,0.63,0.72,-0.22,1.6,1.2,-0.17
2024-12-06 13:36:41.960,-3.15,545.0,0.63,0.72,-0.22,1.53,1.87,1.11
2024-12-06 13:36:41.965,-0.22,542.0,0.64,0.73,-0.22,1.53,1.87,1.11
2024-12-06 13:36:41.972,-2.02,558.0,0.64,0.74,-0.23,1.41,2.42,2.14
2024-12-06 13:36:41.982,-4.95,551.0,0.65,0.74,-0.23,1.17,3.09,2.82
2024-12-06 13:36:41.988,-6.97,546.0,0.65,0.74,-0.23,0.86,3.58,3.06
2024-12-06 13:36:42.3,1.57,535.0,0.65,0.74,-0.23,0.62,3.88,3.06
2024-12-06 13:36:42.4,-4.95,540.0,0.66,0.73,-0.22,0.37,4.06,3.0
2024-12-06 13:36:42.11,-6.75,541.0,0.65,0.72,-0.22,0.37,4.06,3.0
2024-12-06 13:36:42.42,-4.5,563.0,0.65,0.72,-0.21,0.31,3.58,2.82
2024-12-06 13:36:42.45,-2.92,552.0,0.64,0.72,-0.21,0.19,1.81,2.39
2024-12-06 13:36:42.49,-4.5,561.0,0.64,0.72,-0.21,0.19,1.81,2.39
2024-12-06 13:36:42.57,-7.2,545.0,0.65,0.72,-0.21,0.31,2.42,2.51
2024-12-06 13:36:42.65,-5.4,552.0,0.65,0.73,-0.21,0.37,3.03,2.69
2024-12-06 13:36:42.73,-1.35,534.0,0.65,0.72,-0.21,0.37,3.27,2.94
2024-12-06 13:36:42.86,-2.47,547.0,0.65,0.72,-0.21,0.31,3.39,3.24
2024-12-06 13:36:42.89,-0.67,556.0,0.65,0.73,-0.2,0.07,3.45,3.55
2024-12-06 13:36:42.99,-4.72,555.0,0.65,0.73,-0.2,0.07,3.45,3.55
2024-12-06 13:36:42.105,-3.82,562.0,0.66,0.73,-0.2,-0.24,3.21,3.73
2024-12-06 13:36:42.112,-0.45,554.0,0.67,0.73,-0.2,-0.54,2.97,4.04
2024-12-06 13:36:42.127,-5.17,550.0,0.68,0.72,-0.2,-0.91,2.9,4.34
2024-12-06 13:36:42.130,-3.6,535.0,0.68,0.72,-0.2,-1.46,2.9,4.71
2024-12-06 13:36:42.135,-6.52,559.0,0.68,0.72,-0.2,-1.46,2.9,4.71
2024-12-06 13:36:42.143,-3.15,551.0,0.68,0.71,-0.2,-2.19,3.09,5.01
2024-12-06 13:36:42.150,-6.3,535.0,0.68,0.7,-0.19,-2.68,2.84,5.14
2024-12-06 13:36:42.161,-6.75,560.0,0.67,0.69,-0.19,-2.8,1.87,5.07
2024-12-06 13:36:42.172,-4.95,554.0,0.67,0.69,-0.19,-3.41,1.81,4.89
2024-12-06 13:36:42.201,-3.82,555.0,0.67,0.66,-0.17,-3.84,0.95,4.65
2024-12-06 13:36:42.206,-3.6,531.0,0.65,0.65,-0.18,-3.78,-5.34,3.49
2024-12-06 13:36:42.213,-2.7,539.0,0.66,0.66,-0.18,-3.53,-5.95,3.37
2024-12-06 13:36:42.220,0.22,561.0,0.66,0.67,-0.18,-3.53,-5.95,3.37
2024-12-06 13:36:42.236,-1.35,542.0,0.66,0.69,-0.17,-3.65,-6.43,3.24
2024-12-06 13:36:42.240,-3.82,535.0,0.66,0.7,-0.17,-4.02,-5.88,3.06
2024-12-06 13:36:42.250,-2.7,550.0,0.66,0.7,-0.18,-4.14,-5.58,2.88
2024-12-06 13:36:42.256,-1.12,537.0,0.66,0.7,-0.18,-4.2,-5.7,2.69
2024-12-06 13:36:42.259,-4.5,540.0,0.65,0.69,-0.17,-4.2,-5.7,2.08
2024-12-06 13:36:42.265,-2.7,551.0,0.64,0.68,-0.16,-4.81,-6.92,2.08
2024-12-06 13:36:42.273,-3.6,538.0,0.65,0.68,-0.18,-4.81,-6.74,1.66
2024-12-06 13:36:42.281,-0.9,532.0,0.64,0.69,-0.2,-4.75,-6.49,1.17
2024-12-06 13:36:42.290,-2.7,548.0,0.64,0.7,-0.21,-4.94,-5.34,0.62
2024-12-06 13:36:42.298,-3.38,549.0,0.64,0.7,-0.21,-5.0,-3.81,0.13
2024-12-06 13:36:42.305,-3.6,538.0,0.63,0.7,-0.2,-5.0,-3.81,-0.42
2024-12-06 13:36:42.313,-2.25,532.0,0.62,0.7,-0.2,-4.87,-3.26,-0.42
2024-12-06 13:36:42.321,-2.7,539.0,0.62,0.7,-0.2,-4.94,-3.2,-1.15
2024-12-06 13:36:42.332,-2.47,536.0,0.63,0.71,-0.2,-4.87,-3.5,-1.58
2024-12-06 13:36:42.347,-2.02,543.0,0.64,0.71,-0.2,-4.94,-3.2,-1.82
2024-12-06 13:36:42.349,-2.02,545.0,0.64,0.71,-0.2,-5.18,-2.83,-1.88
2024-12-06 13:36:42.353,-6.97,551.0,0.64,0.72,-0.2,-5.18,-2.83,-1.88
2024-12-06 13:36:42.360,-2.02,538.0,0.65,0.73,-0.19,-5.36,-2.95,-2.07
2024-12-06 13:36:42.368,-4.28,531.0,0.65,0.72,-0.19,-5.42,-3.32,-2.31
2024-12-06 13:36:42.378,-6.75,534.0,0.66,0.72,-0.2,-5.48,-3.32,-2.68
2024-12-06 13:36:42.384,-6.52,542.0,0.66,0.72,-0.2,-5.36,-3.44,-2.98
2024-12-06 13:36:42.393,-0.9,549.0,0.66,0.72,-0.2,-5.0,-3.93,-3.23
2024-12-06 13:36:42.403,-2.25,529.0,0.66,0.71,-0.2,-5.0,-3.93,-3.23
2024-12-06 13:36:42.408,-2.92,549.0,0.66,0.71,-0.21,-4.45,-4.36,-3.29
2024-12-06 13:36:42.417,-3.38,532.0,0.66,0.72,-0.21,-3.9,-4.6,-3.29
2024-12-06 13:36:42.423,-9.9,533.0,0.65,0.72,-0.21,-3.35,-5.09,-3.17
2024-12-06 13:36:42.458,-1.35,535.0,0.64,0.73,-0.22,-2.19,-4.97,-2.86
2024-12-06 13:36:42.462,-6.52,528.0,0.64,0.74,-0.23,-1.82,-4.24,-2.8
2024-12-06 13:36:42.470,-4.5,532.0,0.64,0.74,-0.23,-1.46,-3.5,-2.56
2024-12-06 13:36:42.477,-4.95,547.0,0.64,0.74,-0.23,-1.15,-2.71,-2.31
2024-12-06 13:36:42.485,-2.47,529.0,0.64,0.75,-0.23,-0.85,-1.98,-1.76
2024-12-06 13:36:42.493,-2.02,528.0,0.65,0.75,-0.22,-0.85,-1.98,-1.76
2024-12-06 13:36:42.505,-0.45,528.0,0.64,0.76,-0.22,-0.48,-1.55,-1.21
2024-12-06 13:36:42.514,-5.85,527.0,0.64,0.76,-0.23,-0.3,-0.94,-0.79
2024-12-06 13:36:42.521,-2.92,535.0,0.64,0.75,-0.21,-0.24,-0.15,-0.48
2024-12-06 13:36:42.527,-0.45,540.0,0.64,0.75,-0.21,-0.11,-0.15,-0.36
2024-12-06 13:36:42.532,2.02,542.0,0.64,0.74,-0.2,0.19,-0.03,-0.42
2024-12-06 13:36:42.545,-6.52,563.0,0.64,0.73,-0.21,0.19,-0.03,-0.42
2024-12-06 13:36:42.550,-6.3,536.0,0.65,0.74,-0.22,0.62,-0.15,-0.36
2024-12-06 13:36:42.557,-3.6,535.0,0.65,0.75,-0.23,1.17,-0.15,-0.17
2024-12-06 13:36:42.563,-3.82,517.0,0.64,0.75,-0.23,1.66,0.22,0.19
2024-12-06 13:36:42.572,-4.28,527.0,0.64,0.75,-0.23,1.96,0.28,0.25
2024-12-06 13:36:42.579,-4.5,527.0,0.63,0.74,-0.21,1.96,0.28,0.25
2024-12-06 13:36:42.587,-5.17,537.0,0.63,0.72,-0.2,2.14,0.34,0.25
2024-12-06 13:36:42.596,-3.38,533.0,0.64,0.72,-0.21,2.45,0.52,0.44
2024-12-06 13:36:42.602,-0.67,543.0,0.63,0.72,-0.21,2.51,0.71,0.68
2024-12-06 13:36:42.611,-4.05,530.0,0.63,0.72,-0.21,2.45,0.89,1.05
2024-12-06 13:36:42.625,-1.12,537.0,0.63,0.72,-0.21,2.45,1.32,1.35
2024-12-06 13:36:42.627,-4.05,533.0,0.63,0.73,-0.21,2.45,1.32,1.35
2024-12-06 13:36:42.660,-4.72,527.0,0.63,0.73,-0.21,2.63,1.87,1.72
2024-12-06 13:36:42.663,-4.05,531.0,0.64,0.73,-0.23,3.12,3.15,2.39
2024-12-06 13:36:42.668,-3.38,549.0,0.64,0.74,-0.23,3.12,3.15,2.39
2024-12-06 13:36:42.671,-3.15,555.0,0.64,0.74,-0.23,3.61,3.15,2.69
2024-12-06 13:36:42.687,-3.82,550.0,0.63,0.75,-0.24,4.16,2.9,2.75
2024-12-06 13:36:42.689,0.0,534.0,0.63,0.74,-0.24,4.71,2.84,2.51
2024-12-06 13:36:42.694,-10.57,552.0,0.63,0.74,-0.24,5.26,3.39,2.21
2024-12-06 13:36:42.702,-4.5,553.0,0.63,0.74,-0.24,5.5,4.55,2.08
2024-12-06 13:36:42.710,-3.6,548.0,0.63,0.73,-0.23,5.5,4.55,2.08
2024-12-06 13:36:42.718,-2.47,535.0,0.63,0.72,-0.21,5.5,5.22,1.96
2024-12-06 13:36:42.729,-1.35,556.0,0.62,0.71,-0.19,5.26,4.92,1.84
2024-12-06 13:36:42.734,-3.6,533.0,0.63,0.7,-0.19,4.95,4.25,1.72
2024-12-06 13:36:42.748,-2.02,559.0,0.63,0.7,-0.19,4.59,3.51,1.72
2024-12-06 13:36:42.752,0.22,550.0,0.63,0.7,-0.19,4.34,3.03,1.72
2024-12-06 13:36:42.765,-3.15,548.0,0.64,0.7,-0.19,4.34,3.03,1.72
2024-12-06 13:36:42.768,-3.15,552.0,0.64,0.7,-0.2,4.22,3.03,1.53
2024-12-06 13:36:42.778,-1.35,544.0,0.65,0.71,-0.21,4.28,2.9,1.35
2024-12-06 13:36:42.781,-4.72,536.0,0.65,0.71,-0.21,4.34,2.23,1.17
2024-12-06 13:36:42.787,-2.7,557.0,0.65,0.71,-0.21,4.34,1.74,0.98
2024-12-06 13:36:42.796,0.9,554.0,0.65,0.7,-0.2,4.34,1.74,0.98
2024-12-06 13:36:42.803,-4.05,548.0,0.65,0.7,-0.2,4.16,1.5,0.74
2024-12-06 13:36:42.812,-6.3,554.0,0.64,0.7,-0.19,3.91,1.07,0.44
2024-12-06 13:36:42.818,-4.5,550.0,0.63,0.7,-0.19,3.43,0.46,-0.05
2024-12-06 13:36:42.826,-2.92,545.0,0.63,0.7,-0.19,2.94,-0.09,-0.66
2024-12-06 13:36:42.839,-2.47,550.0,0.63,0.7,-0.19,2.57,-0.39,-1.15
2024-12-06 13:36:42.845,-3.15,555.0,0.64,0.71,-0.19,2.57,-0.39,-1.15
2024-12-06 13:36:42.849,-6.3,532.0,0.65,0.72,-0.2,2.33,-0.33,-1.4
2024-12-06 13:36:42.956,-3.6,551.0,0.65,0.67,-0.25,-0.36,-6.92,1.29
2024-12-06 13:36:42.964,-2.47,542.0,0.61,0.68,-0.2,-0.54,3.58,0.25
2024-12-06 13:36:42.973,-3.38,550.0,0.64,0.72,-0.13,-0.11,-6.86,1.17
2024-12-06 13:36:42.977,-5.17,552.0,0.64,0.72,-0.13,-1.15,-3.99,2.27
2024-12-06 13:36:42.985,1.57,528.0,0.64,0.73,-0.27,-0.91,3.7,2.63
2024-12-06 13:36:42.993,-3.15,552.0,0.63,0.74,-0.25,-0.91,3.7,2.63
2024-12-06 13:36:43.1,-3.15,545.0,0.62,0.73,-0.2,-0.11,3.27,3.12
2024-12-06 13:36:43.12,-5.62,531.0,0.62,0.71,-0.23,-0.36,4.67,3.24
2024-12-06 13:36:43.17,-4.5,539.0,0.62,0.71,-0.22,-0.72,5.47,3.0
2024-12-06 13:36:43.29,-6.75,559.0,0.62,0.71,-0.19,-0.72,6.81,2.51
2024-12-06 13:36:43.33,-2.7,531.0,0.61,0.72,-0.22,-0.72,8.76,2.08
2024-12-06 13:36:43.41,-2.25,534.0,0.61,0.72,-0.21,-0.72,8.76,2.08
2024-12-06 13:36:43.49,1.57,546.0,0.62,0.73,-0.2,-0.6,9.56,1.9
2024-12-06 13:36:43.58,-3.6,548.0,0.63,0.73,-0.2,-0.54,10.72,1.96
2024-12-06 13:36:43.66,-3.38,550.0,0.63,0.73,-0.2,-0.36,12.12,2.14
2024-12-06 13:36:43.77,-4.5,545.0,0.63,0.73,-0.19,-0.24,11.63,2.39
2024-12-06 13:36:43.110,-6.3,541.0,0.63,0.73,-0.19,-0.3,10.35,2.51
2024-12-06 13:36:43.114,-6.97,531.0,0.67,0.69,-0.23,-1.33,5.65,1.84
2024-12-06 13:36:43.118,0.67,534.0,0.67,0.69,-0.23,-1.82,5.71,1.17
2024-12-06 13:36:43.126,-1.35,556.0,0.65,0.7,-0.23,-1.82,5.71,1.17
2024-12-06 13:36:43.140,-2.47,583.0,0.64,0.72,-0.21,-2.13,3.82,0.74
2024-12-06 13:36:43.143,-4.5,581.0,0.63,0.73,-0.22,-2.37,2.42,0.62
2024-12-06 13:36:43.150,-0.9,571.0,0.62,0.73,-0.22,-2.49,2.84,0.86
2024-12-06 13:36:43.161,-3.15,550.0,0.62,0.73,-0.22,-2.25,3.58,1.29
2024-12-06 13:36:43.165,-1.12,553.0,0.62,0.74,-0.2,-1.94,4.49,1.96
2024-12-06 13:36:43.190,-4.5,576.0,0.63,0.73,-0.21,-1.64,5.59,2.39
2024-12-06 13:36:43.219,-6.97,545.0,0.66,0.72,-0.2,-0.72,7.48,2.02
2024-12-06 13:36:43.224,-4.05,548.0,0.66,0.72,-0.2,-0.79,7.36,1.78
2024-12-06 13:36:43.233,-3.15,541.0,0.66,0.72,-0.2,-0.72,6.44,1.66
2024-12-06 13:36:43.242,-5.4,545.0,0.66,0.72,-0.2,-0.6,4.98,1.78
2024-12-06 13:36:43.249,-2.02,542.0,0.66,0.72,-0.2,-0.6,4.98,1.78
2024-12-06 13:36:43.256,-0.45,574.0,0.67,0.72,-0.21,-0.6,3.58,1.9
2024-12-06 13:36:43.264,-5.62,558.0,0.67,0.72,-0.23,-0.42,5.96,2.08
2024-12-06 13:36:43.272,0.0,556.0,0.65,0.72,-0.18,-0.54,6.2,2.27
2024-12-06 13:36:43.280,-2.02,542.0,0.65,0.72,-0.16,-0.91,2.11,1.84
2024-12-06 13:36:43.287,-5.85,561.0,0.63,0.72,-0.16,-2.13,0.71,0.68
2024-12-06 13:36:43.297,-4.28,553.0,0.63,0.71,-0.19,-2.13,0.71,0.68
2024-12-06 13:36:43.304,1.12,540.0,0.63,0.7,-0.23,-1.88,1.38,-0.36
2024-12-06 13:36:43.337,-2.7,559.0,0.62,0.7,-0.2,15.94,0.34,-3.59
2024-12-06 13:36:43.342,2.47,551.0,0.6,0.71,-0.2,0.92,0.34,-3.59
2024-12-06 13:36:43.350,-0.22,557.0,0.61,0.72,-0.19,1.47,2.72,-3.84
2024-12-06 13:36:43.359,-1.35,558.0,0.6,0.72,-0.18,1.53,3.15,-3.78
2024-12-06 13:36:43.365,2.25,544.0,0.6,0.72,-0.18,1.47,1.81,-4.2
2024-12-06 13:36:43.374,3.15,541.0,0.59,0.72,-0.18,1.6,3.15,-4.75
2024-12-06 13:36:43.390,7.2,542.0,0.61,0.71,-0.19,1.6,3.15,-4.75
2024-12-06 13:36:43.393,6.75,574.0,0.63,0.71,-0.19,1.9,4.74,-4.87
2024-12-06 13:36:43.396,3.38,546.0,0.63,0.71,-0.19,1.9,4.49,-5.61
2024-12-06 13:36:43.404,5.62,548.0,0.66,0.72,-0.19,1.53,4.92,-6.03
2024-12-06 13:36:43.412,8.1,547.0,0.66,0.72,-0.17,1.17,5.04,-6.1
2024-12-06 13:36:43.424,6.52,552.0,0.65,0.72,-0.17,0.92,3.64,-6.89
2024-12-06 13:36:43.429,9.22,544.0,0.64,0.72,-0.17,0.92,3.64,-6.89
2024-12-06 13:36:43.435,10.35,545.0,0.65,0.71,-0.19,0.74,3.15,-7.5
2024-12-06 13:36:43.446,13.27,551.0,0.64,0.71,-0.19,0.98,2.6,-8.48
2024-12-06 13:36:43.508,11.02,546.0,0.65,0.72,-0.16,0.74,0.65,-7.56
2024-12-06 13:36:43.510,17.1,540.0,0.65,0.72,-0.17,0.56,0.71,-6.83
2024-12-06 13:36:43.513,19.57,551.0,0.66,0.72,-0.17,0.01,1.5,-6.34
2024-12-06 13:36:43.519,20.02,565.0,0.67,0.72,-0.16,-0.42,1.38,-6.1
2024-12-06 13:36:43.526,21.38,555.0,0.66,0.72,-0.17,-1.09,1.81,-5.48
2024-12-06 13:36:43.557,22.95,560.0,0.65,0.73,-0.17,-2.07,1.56,-4.63
2024-12-06 13:36:43.563,22.27,558.0,0.65,0.73,-0.18,-2.43,1.07,-4.26
2024-12-06 13:36:43.565,24.52,560.0,0.65,0.74,-0.18,-3.04,2.17,-3.29
2024-12-06 13:36:43.576,30.82,559.0,0.64,0.74,-0.17,-3.35,2.42,-2.68
2024-12-06 13:36:43.581,29.02,547.0,0.64,0.74,-0.17,-3.59,2.72,-2.19
2024-12-06 13:36:43.590,33.3,559.0,0.63,0.74,-0.18,-3.71,3.15,-1.88
2024-12-06 13:36:43.597,34.2,560.0,0.63,0.74,-0.19,-3.71,3.15,-1.88
2024-12-06 13:36:43.606,34.65,555.0,0.63,0.72,-0.18,-3.96,4.0,-1.7
2024-12-06 13:36:43.613,32.4,567.0,0.64,0.72,-0.18,-3.65,3.27,-2.37
2024-12-06 13:36:43.621,35.55,557.0,0.65,0.73,-0.19,-3.78,3.64,-1.76
2024-12-06 13:36:43.629,37.35,559.0,0.65,0.73,-0.16,-3.9,3.51,-1.58
2024-12-06 13:36:43.644,34.42,542.0,0.64,0.74,-0.18,-4.2,3.15,-0.85
2024-12-06 13:36:43.647,34.2,537.0,0.63,0.75,-0.17,-4.2,3.15,-0.85
2024-12-06 13:36:43.652,35.1,554.0,0.63,0.75,-0.18,-4.39,2.17,-1.27
2024-12-06 13:36:43.684,41.17,548.0,0.64,0.74,-0.18,-4.69,2.66,-1.46
2024-12-06 13:36:43.691,44.77,551.0,0.64,0.74,-0.17,-5.0,2.11,-1.4
2024-12-06 13:36:43.699,43.42,554.0,0.64,0.75,-0.17,-5.24,2.17,-1.52
2024-12-06 13:36:43.710,44.1,553.0,0.64,0.75,-0.17,-5.36,2.29,-1.27
2024-12-06 13:36:43.720,44.55,561.0,0.64,0.75,-0.18,-5.3,1.99,-1.76
2024-12-06 13:36:43.722,45.9,567.0,0.64,0.75,-0.18,-5.24,2.48,-1.46
2024-12-06 13:36:43.730,46.35,553.0,0.65,0.74,-0.19,-4.87,2.97,-2.43
2024-12-06 13:36:43.741,45.45,564.0,0.65,0.73,-0.19,-4.87,2.97,-2.43
2024-12-06 13:36:43.747,46.35,561.0,0.65,0.74,-0.18,-4.69,3.94,-2.07
2024-12-06 13:36:43.755,49.5,555.0,0.64,0.76,-0.17,-4.57,3.58,-1.7
2024-12-06 13:36:43.787,49.95,554.0,0.62,0.75,-0.17,-4.39,3.58,-1.09
2024-12-06 13:36:43.792,50.85,559.0,0.61,0.76,-0.17,-4.02,3.15,-0.97
2024-12-06 13:36:43.807,49.5,547.0,0.6,0.76,-0.17,-3.53,2.72,-1.03
2024-12-06 13:36:43.821,55.8,551.0,0.6,0.76,-0.17,-3.23,2.54,-0.97
2024-12-06 13:36:43.823,57.82,585.0,0.62,0.77,-0.18,-2.98,3.76,-0.48
2024-12-06 13:36:43.832,54.0,559.0,0.61,0.77,-0.17,-2.8,4.25,0.44
2024-12-06 13:36:43.839,56.92,570.0,0.6,0.76,-0.17,-2.68,3.51,0.01
2024-12-06 13:36:43.849,61.2,550.0,0.61,0.77,-0.17,-3.04,4.43,0.56
2024-12-06 13:36:43.856,63.45,546.0,0.61,0.77,-0.17,-2.92,4.49,0.44
2024-12-06 13:36:43.868,64.35,560.0,0.6,0.76,-0.17,-2.68,5.04,0.56
2024-12-06 13:36:43.872,60.07,573.0,0.6,0.77,-0.18,-2.68,5.04,0.56
2024-12-06 13:36:43.903,64.12,551.0,0.61,0.77,-0.17,-2.74,4.8,0.8
2024-12-06 13:36:43.905,60.97,556.0,0.61,0.77,-0.18,-2.98,5.1,0.8
2024-12-06 13:36:44.1,64.57,566.0,0.61,0.77,-0.17,-2.98,5.1,0.8
2024-12-06 13:36:44.10,74.7,558.0,0.63,0.78,-0.15,-3.04,6.57,2.82
2024-12-06 13:36:44.15,73.35,577.0,0.63,0.78,-0.15,-2.43,6.08,2.63
2024-12-06 13:36:44.24,74.47,555.0,0.64,0.77,-0.15,-2.43,6.08,2.57
2024-12-06 13:36:44.31,75.82,546.0,0.65,0.76,-0.15,-2.68,5.53,2.57
2024-12-06 13:36:44.39,75.82,564.0,0.64,0.75,-0.14,-2.86,4.74,2.57
2024-12-06 13:36:44.47,74.03,549.0,0.64,0.73,-0.14,-2.62,4.49,2.45
2024-12-06 13:36:44.55,80.78,564.0,0.64,0.74,-0.13,-2.8,4.67,2.57
2024-12-06 13:36:44.63,74.47,571.0,0.64,0.74,-0.13,-3.17,4.86,3.3
2024-12-06 13:36:44.71,78.53,554.0,0.63,0.76,-0.13,-3.04,5.04,4.04
2024-12-06 13:36:44.80,76.5,535.0,0.62,0.76,-0.13,-3.04,5.04,4.04
2024-12-06 13:36:44.89,79.42,552.0,0.62,0.75,-0.13,-3.1,5.22,4.52
2024-12-06 13:36:44.94,83.25,551.0,0.63,0.75,-0.13,-3.53,5.35,5.07
2024-12-06 13:36:44.131,81.0,557.0,0.63,0.74,-0.12,-4.2,5.96,5.38
2024-12-06 13:36:44.134,85.95,546.0,0.64,0.75,-0.12,-4.63,5.35,5.07
2024-12-06 13:36:44.142,85.05,540.0,0.64,0.74,-0.11,-5.0,4.67,4.83
2024-12-06 13:36:44.149,83.25,538.0,0.64,0.74,-0.11,-4.87,4.19,4.22
2024-12-06 13:36:44.158,85.72,552.0,0.64,0.73,-0.1,-4.94,4.0,3.79
2024-12-06 13:36:44.164,84.82,563.0,0.65,0.73,-0.1,-4.94,4.0,3.79
2024-12-06 13:36:44.173,86.85,565.0,0.64,0.74,-0.1,-5.24,3.76,3.73
2024-12-06 13:36:44.181,85.72,565.0,0.64,0.75,-0.1,-5.0,3.21,3.79
2024-12-06 13:36:44.188,83.7,566.0,0.64,0.75,-0.1,-4.81,3.58,3.91
2024-12-06 13:36:44.197,85.95,559.0,0.64,0.75,-0.11,-5.0,3.51,3.91
2024-12-06 13:36:44.204,88.88,555.0,0.64,0.75,-0.11,-5.12,3.33,3.85
2024-12-06 13:36:44.218,91.12,544.0,0.64,0.74,-0.11,-5.18,3.51,3.67
2024-12-06 13:36:44.223,91.12,574.0,0.64,0.75,-0.11,-5.18,3.51,3.67
2024-12-06 13:36:44.230,90.22,557.0,0.64,0.76,-0.11,-5.12,3.45,3.55
2024-12-06 13:36:44.236,92.25,566.0,0.64,0.76,-0.13,-5.24,3.33,3.61
2024-12-06 13:36:44.245,92.47,556.0,0.64,0.74,-0.12,-4.75,2.9,3.18
2024-12-06 13:36:44.252,92.25,564.0,0.64,0.74,-0.11,-4.51,2.17,2.69
2024-12-06 13:36:44.260,92.02,572.0,0.65,0.72,-0.11,-4.81,2.11,2.39
2024-12-06 13:36:44.268,93.82,566.0,0.65,0.73,-0.11,-4.81,2.11,2.39
2024-12-06 13:36:44.276,93.15,551.0,0.65,0.74,-0.1,-4.75,2.36,2.51
2024-12-06 13:36:44.290,95.85,562.0,0.65,0.75,-0.1,-4.39,2.05,2.82
2024-12-06 13:36:44.292,93.6,560.0,0.64,0.77,-0.11,-4.75,2.05,3.49
2024-12-06 13:36:44.303,96.3,562.0,0.63,0.76,-0.11,-4.75,2.11,3.85
2024-12-06 13:36:44.313,94.5,574.0,0.63,0.76,-0.11,-4.75,2.78,4.04
2024-12-06 13:36:44.319,94.27,565.0,0.64,0.75,-0.11,-5.06,2.78,4.28
2024-12-06 13:36:44.347,91.12,580.0,0.64,0.75,-0.1,-5.55,0.22,3.98
2024-12-06 13:36:44.355,97.2,573.0,0.64,0.74,-0.1,-6.28,-0.09,3.73
2024-12-06 13:36:44.362,99.67,584.0,0.7,0.76,-0.11,-6.28,-0.09,6.11
2024-12-06 13:36:44.370,103.72,592.0,0.69,0.75,-0.09,-6.34,5.41,6.11
2024-12-06 13:36:44.379,102.6,587.0,0.6,0.71,-0.05,-5.18,-0.39,4.4
2024-12-06 13:36:44.386,101.92,589.0,0.62,0.69,-0.1,-5.36,-4.11,1.96
2024-12-06 13:36:44.394,103.27,591.0,0.68,0.72,-0.11,-5.3,-3.5,2.45
2024-12-06 13:36:44.404,103.5,602.0,0.68,0.72,-0.11,-4.33,-5.03,2.88
2024-12-06 13:36:44.411,103.27,589.0,0.63,0.76,-0.08,-4.57,-3.81,2.27
2024-12-06 13:36:44.419,101.25,607.0,0.62,0.76,-0.11,-4.57,-3.81,2.27
2024-12-06 13:36:44.428,101.25,602.0,0.62,0.76,-0.11,-4.81,-2.53,2.27
2024-12-06 13:36:44.435,101.7,581.0,0.6,0.81,-0.14,-4.69,-0.51,2.39
2024-12-06 13:36:44.446,107.55,613.0,0.58,0.84,-0.15,-4.81,4.74,3.3
2024-12-06 13:36:44.452,107.32,603.0,0.58,0.84,-0.15,-4.02,4.55,4.1
2024-12-06 13:36:44.457,109.12,594.0,0.58,0.82,-0.11,-4.02,2.9,4.65
2024-12-06 13:36:44.467,102.6,605.0,0.61,0.79,-0.1,-4.14,2.9,4.65
2024-12-06 13:36:44.476,103.72,583.0,0.64,0.74,-0.1,-4.81,3.33,4.59
2024-12-06 13:36:44.485,109.12,599.0,0.65,0.72,-0.06,-5.36,2.6,4.1
2024-12-06 13:36:44.488,103.95,592.0,0.65,0.73,-0.06,-6.46,-0.27,3.49
2024-12-06 13:36:44.506,106.88,596.0,0.66,0.72,-0.09,-7.26,-1.61,2.27
2024-12-06 13:36:44.513,107.32,605.0,0.66,0.73,-0.09,-7.26,-1.61,2.27
2024-12-06 13:36:44.520,107.1,603.0,0.66,0.73,-0.09,-7.07,-2.41,2.08
2024-12-06 13:36:44.528,108.0,590.0,0.66,0.73,-0.1,-6.4,-2.41,1.96
2024-12-06 13:36:44.539,105.75,591.0,0.66,0.73,-0.09,-5.55,-2.16,1.66
2024-12-06 13:36:44.577,106.2,599.0,0.68,0.7,-0.08,-1.03,-1.55,-0.36
2024-12-06 13:36:44.583,105.3,601.0,0.68,0.7,-0.08,-0.05,-0.82,-0.6
2024-12-06 13:36:44.594,100.8,593.0,0.68,0.71,-0.08,0.74,-0.33,-0.48
2024-12-06 13:36:44.604,105.3,583.0,0.68,0.72,-0.08,0.74,-0.33,-0.48
2024-12-06 13:36:44.607,107.1,582.0,0.67,0.73,-0.08,1.23,0.1,-0.24
2024-12-06 13:36:44.615,105.07,602.0,0.66,0.73,-0.09,1.6,0.89,0.19
2024-12-06 13:36:44.623,105.07,589.0,0.66,0.73,-0.1,1.78,1.99,0.5
2024-12-06 13:36:44.636,108.22,591.0,0.65,0.73,-0.1,1.9,2.36,0.74
2024-12-06 13:36:44.646,110.02,602.0,0.65,0.73,-0.1,1.78,2.17,0.74
2024-12-06 13:36:44.662,106.42,587.0,0.65,0.73,-0.1,1.53,1.99,0.8
2024-12-06 13:36:44.666,103.72,610.0,0.66,0.73,-0.09,1.35,2.23,0.8
2024-12-06 13:36:44.669,101.92,594.0,0.65,0.74,-0.09,1.11,2.6,0.8
2024-12-06 13:36:44.687,103.95,586.0,0.65,0.75,-0.08,1.17,2.42,0.8
2024-12-06 13:36:44.690,109.35,597.0,0.65,0.75,-0.08,1.41,2.05,0.74
2024-12-06 13:36:44.693,107.1,595.0,0.64,0.74,-0.08,1.41,2.05,0.74
2024-12-06 13:36:44.700,108.9,597.0,0.64,0.74,-0.07,1.66,1.68,0.44
2024-12-06 13:36:44.709,110.02,586.0,0.64,0.75,-0.07,1.84,1.44,0.01
2024-12-06 13:36:44.716,107.77,592.0,0.64,0.75,-0.08,2.08,1.44,-0.36
2024-12-06 13:36:44.729,107.32,580.0,0.63,0.75,-0.08,2.45,1.2,-0.72
2024-12-06 13:36:44.733,104.62,587.0,0.63,0.75,-0.08,2.69,0.89,-0.97
2024-12-06 13:36:44.740,104.62,589.0,0.64,0.75,-0.09,2.57,0.71,-1.09
2024-12-06 13:36:44.754,107.55,588.0,0.64,0.76,-0.09,2.57,0.71,-1.09
2024-12-06 13:36:44.757,106.65,590.0,0.64,0.75,-0.09,2.39,0.65,-1.09
2024-12-06 13:36:44.764,106.2,581.0,0.65,0.75,-0.08,1.96,0.83,-1.09
2024-12-06 13:36:44.804,106.65,593.0,0.64,0.75,-0.09,1.6,0.89,-0.91
2024-12-06 13:36:44.806,103.05,592.0,0.65,0.76,-0.09,1.05,0.83,-0.36
2024-12-06 13:36:44.815,109.8,604.0,0.65,0.75,-0.08,1.11,0.83,-0.17
2024-12-06 13:36:44.818,104.85,586.0,0.65,0.75,-0.08,1.05,0.89,-0.11
2024-12-06 13:36:44.826,106.42,585.0,0.65,0.74,-0.08,0.98,0.83,-0.24
2024-12-06 13:36:44.836,110.47,576.0,0.65,0.74,-0.08,0.98,0.83,-0.24
2024-12-06 13:36:44.844,106.2,589.0,0.65,0.75,-0.08,0.92,0.77,-0.17
2024-12-06 13:36:44.850,109.57,589.0,0.65,0.75,-0.08,0.8,0.71,-0.11
2024-12-06 13:36:44.857,106.2,587.0,0.65,0.75,-0.08,0.56,0.65,0.07
2024-12-06 13:36:44.866,104.85,595.0,0.65,0.75,-0.08,0.37,0.83,0.31
2024-12-06 13:36:44.874,106.65,593.0,0.65,0.75,-0.08,0.19,1.01,0.5
2024-12-06 13:36:44.881,108.22,598.0,0.65,0.75,-0.09,0.19,1.01,0.68
2024-12-06 13:36:44.890,104.17,599.0,0.65,0.75,-0.09,0.07,0.95,0.68
2024-12-06 13:36:44.902,109.57,590.0,0.65,0.74,-0.09,0.07,0.71,0.62
2024-12-06 13:36:44.910,105.75,589.0,0.65,0.74,-0.09,0.07,0.52,0.5
2024-12-06 13:36:44.915,107.32,599.0,0.65,0.75,-0.09,0.07,0.4,0.37
2024-12-06 13:36:44.921,106.2,582.0,0.65,0.75,-0.09,0.13,0.16,0.31
2024-12-06 13:36:44.930,109.57,587.0,0.65,0.75,-0.09,0.13,-0.09,0.19
2024-12-06 13:36:44.936,105.3,581.0,0.65,0.75,-0.09,0.25,-0.09,0.19
2024-12-06 13:36:44.949,107.1,587.0,0.65,0.75,-0.09,0.62,-0.45,0.19
2024-12-06 13:36:45.51,105.3,592.0,0.64,0.75,-0.09,1.47,-0.03,0.07
2024-12-06 13:36:45.58,105.97,593.0,0.64,0.75,-0.09,1.66,-0.15,0.01
2024-12-06 13:36:45.67,106.88,588.0,0.64,0.75,-0.09,1.9,-0.15,-0.05
2024-12-06 13:36:45.75,107.77,590.0,0.64,0.75,-0.09,2.08,0.04,-0.24
2024-12-06 13:36:45.82,103.95,586.0,0.64,0.75,-0.09,2.33,0.1,-0.36
2024-12-06 13:36:45.92,107.77,584.0,0.64,0.75,-0.09,2.39,0.16,-0.42
2024-12-06 13:36:45.98,109.8,610.0,0.64,0.75,-0.09,2.39,0.16,-0.42
2024-12-06 13:36:45.106,105.07,596.0,0.64,0.75,-0.1,2.57,0.28,-0.48
2024-12-06 13:36:45.114,107.32,603.0,0.64,0.75,-0.1,2.82,0.34,-0.48
2024-12-06 13:36:45.122,103.05,603.0,0.64,0.75,-0.1,2.88,0.34,-0.36
2024-12-06 13:36:45.130,105.52,587.0,0.64,0.75,-0.1,2.82,0.46,-0.3
2024-12-06 13:36:45.138,105.07,592.0,0.64,0.75,-0.1,2.75,0.65,-0.24
2024-12-06 13:36:45.149,104.17,588.0,0.64,0.75,-0.1,2.75,0.65,-0.24
2024-12-06 13:36:45.154,107.32,584.0,0.64,0.75,-0.1,2.63,0.65,-0.24
2024-12-06 13:36:45.161,103.5,592.0,0.64,0.75,-0.1,2.45,0.65,-0.3
2024-12-06 13:36:45.169,109.57,587.0,0.64,0.75,-0.09,2.21,0.65,-0.24
2024-12-06 13:36:45.177,109.8,586.0,0.64,0.75,-0.09,2.08,0.83,0.01
2024-12-06 13:36:45.186,105.07,587.0,0.64,0.75,-0.09,2.02,0.89,0.13
2024-12-06 13:36:45.194,107.32,590.0,0.64,0.75,-0.09,2.02,0.89,0.19
2024-12-06 13:36:45.211,110.7,592.0,0.63,0.75,-0.09,1.84,0.95,0.19
2024-12-06 13:36:45.214,106.88,589.0,0.64,0.75,-0.09,1.78,0.95,0.25
2024-12-06 13:36:45.219,109.57,587.0,0.64,0.75,-0.09,1.78,0.77,0.19
2024-12-06 13:36:45.250,104.85,595.0,0.64,0.74,-0.09,1.53,-0.15,-0.3
2024-12-06 13:36:45.254,105.3,603.0,0.64,0.74,-0.09,1.47,-0.45,-0.48
2024-12-06 13:36:45.262,103.5,579.0,0.64,0.74,-0.09,1.35,-0.94,-0.66
2024-12-06 13:36:45.272,108.22,600.0,0.64,0.74,-0.09,1.29,-1.43,-0.79
2024-12-06 13:36:45.278,109.57,624.0,0.64,0.74,-0.09,1.29,-1.43,-0.97
2024-12-06 13:36:45.285,108.22,591.0,0.64,0.74,-0.09,1.11,-1.73,-0.97
2024-12-06 13:36:45.301,108.0,581.0,0.64,0.74,-0.09,1.05,-1.92,-1.21
2024-12-06 13:36:45.303,110.47,584.0,0.64,0.74,-0.09,1.05,-2.1,-1.21
2024-12-06 13:36:45.311,103.95,596.0,0.64,0.75,-0.1,0.98,-2.34,-1.21
2024-12-06 13:36:45.317,104.85,588.0,0.64,0.75,-0.1,0.92,-2.53,-1.15
2024-12-06 13:36:45.326,108.0,586.0,0.65,0.75,-0.1,0.92,-2.53,-1.15
2024-12-06 13:36:45.340,109.57,609.0,0.65,0.74,-0.1,0.86,-2.53,-0.97
2024-12-06 13:36:45.347,106.65,583.0,0.65,0.74,-0.09,0.74,-2.47,-0.91
2024-12-06 13:36:45.355,103.95,599.0,0.65,0.74,-0.09,0.56,-2.28,-0.91
2024-12-06 13:36:45.358,106.2,596.0,0.65,0.74,-0.09,0.31,-2.1,-0.97
2024-12-06 13:36:45.364,106.88,579.0,0.65,0.74,-0.09,0.13,-2.28,-0.97
2024-12-06 13:36:45.372,105.52,588.0,0.65,0.74,-0.09,0.13,-2.28,-0.97
2024-12-06 13:36:45.380,108.22,599.0,0.65,0.74,-0.09,-0.05,-2.34,-0.85
2024-12-06 13:36:45.387,106.2,595.0,0.65,0.75,-0.09,-0.11,-2.47,-0.66
2024-12-06 13:36:45.398,106.42,586.0,0.65,0.75,-0.09,-0.17,-2.59,-0.48
2024-12-06 13:36:45.409,105.75,612.0,0.65,0.74,-0.09,-0.42,-2.77,-0.42
2024-12-06 13:36:45.413,106.42,583.0,0.65,0.74,-0.09,-0.6,-2.71,-0.42
2024-12-06 13:36:45.422,106.42,602.0,0.64,0.75,-0.09,-0.6,-2.71,-0.42
2024-12-06 13:36:45.427,103.27,607.0,0.64,0.75,-0.1,-0.72,-2.59,-0.42
2024-12-06 13:36:45.435,106.88,582.0,0.63,0.76,-0.1,-0.85,-2.47,-0.42
2024-12-06 13:36:45.443,108.9,600.0,0.63,0.77,-0.11,-0.97,-2.41,-0.42
2024-12-06 13:36:45.475,100.35,589.0,0.62,0.77,-0.1,-1.03,-2.1,-0.42
2024-12-06 13:36:45.478,106.42,600.0,0.62,0.75,-0.11,-0.79,-1.73,-0.91
2024-12-06 13:36:45.481,109.12,583.0,0.62,0.76,-0.11,-0.79,-1.49,-1.09
2024-12-06 13:36:45.490,104.62,602.0,0.62,0.76,-0.11,-0.6,-1.31,-1.09
2024-12-06 13:36:45.497,99.9,580.0,0.62,0.76,-0.11,-0.3,-1.06,-1.09
2024-12-06 13:36:45.506,106.65,581.0,0.61,0.76,-0.11,-0.36,-0.82,-0.97
2024-12-06 13:36:45.517,107.1,587.0,0.61,0.77,-0.11,-0.36,-0.82,-0.97
2024-12-06 13:36:45.523,109.57,572.0,0.61,0.77,-0.11,-0.48,-0.33,-0.6
2024-12-06 13:36:45.529,104.62,586.0,0.61,0.77,-0.11,-0.36,-0.15,-0.36
2024-12-06 13:36:45.539,107.32,574.0,0.61,0.77,-0.12,-0.17,-0.15,-0.48
2024-12-06 13:36:45.547,108.9,576.0,0.61,0.77,-0.12,-0.05,-0.39,-0.66
2024-12-06 13:36:45.553,109.35,580.0,0.62,0.77,-0.12,0.31,-1.06,-0.72
2024-12-06 13:36:45.569,106.42,582.0,0.63,0.77,-0.12,0.31,-1.06,-0.72
2024-12-06 13:36:45.587,107.77,586.0,0.62,0.77,-0.12,0.74,-1.67,-1.15
2024-12-06 13:36:45.602,109.35,561.0,0.62,0.77,-0.11,1.35,-2.04,-2.8
2024-12-06 13:36:45.611,103.95,571.0,0.62,0.77,-0.11,1.47,-2.04,-3.35
2024-12-06 13:36:45.613,110.47,607.0,0.62,0.76,-0.1,1.6,-2.04,-3.35
2024-12-06 13:36:45.618,105.97,598.0,0.62,0.76,-0.1,1.6,-1.8,-3.41
2024-12-06 13:36:45.629,107.55,574.0,0.61,0.75,-0.1,1.66,-1.67,-3.59
2024-12-06 13:36:45.631,110.47,578.0,0.61,0.72,-0.1,1.84,-1.67,-3.65
2024-12-06 13:36:45.640,105.75,585.0,0.62,0.75,-0.1,2.02,-1.98,-3.47
2024-12-06 13:36:45.647,108.22,585.0,0.63,0.75,-0.11,2.02,-1.98,-3.47
2024-12-06 13:36:45.657,105.97,567.0,0.63,0.75,-0.11,1.96,-2.34,-3.17
2024-12-06 13:36:45.665,109.35,572.0,0.63,0.75,-0.11,1.72,-2.59,-3.1
2024-12-06 13:36:45.670,108.22,566.0,0.62,0.75,-0.11,1.66,-2.95,-3.47
2024-12-06 13:36:45.707,103.95,567.0,0.62,0.75,-0.11,1.29,-3.14,-3.9
2024-12-06 13:36:45.712,106.88,611.0,0.62,0.76,-0.12,1.05,-2.71,-3.53
2024-12-06 13:36:45.716,107.32,594.0,0.62,0.76,-0.12,1.05,-2.22,-3.29
2024-12-06 13:36:45.726,104.85,564.0,0.62,0.76,-0.12,1.23,-2.1,-3.23
2024-12-06 13:36:45.735,105.3,561.0,0.61,0.76,-0.12,1.23,-1.8,-3.1
2024-12-06 13:36:45.748,109.12,552.0,0.62,0.76,-0.11,0.98,-1.18,-2.92
2024-12-06 13:36:45.754,108.45,553.0,0.62,0.76,-0.11,0.74,-0.7,-2.62
2024-12-06 13:36:45.763,104.85,555.0,0.62,0.76,-0.11,0.5,-0.27,-2.31
2024-12-06 13:36:45.769,106.88,558.0,0.62,0.77,-0.11,0.31,0.22,-1.94
2024-12-06 13:36:45.778,105.07,544.0,0.63,0.77,-0.12,0.31,0.22,-1.94
2024-12-06 13:36:45.787,105.07,546.0,0.63,0.78,-0.13,0.37,0.52,-1.52
2024-12-06 13:36:45.796,104.85,555.0,0.63,0.78,-0.14,0.86,0.52,-1.09
2024-12-06 13:36:45.801,105.75,549.0,0.62,0.78,-0.14,1.05,0.77,-0.79
2024-12-06 13:36:45.813,103.95,564.0,0.62,0.78,-0.14,1.6,0.59,-0.48
2024-12-06 13:36:45.819,102.15,601.0,0.62,0.78,-0.14,1.9,1.01,-0.17
2024-12-06 13:36:45.826,111.38,545.0,0.62,0.79,-0.14,1.9,1.01,-0.17
2024-12-06 13:36:45.835,106.65,554.0,0.62,0.79,-0.13,1.9,1.81,0.31
2024-12-06 13:36:45.843,108.9,545.0,0.62,0.79,-0.12,1.9,3.39,0.92
2024-12-06 13:36:45.854,104.62,533.0,0.62,0.79,-0.12,2.14,4.92,1.72
2024-12-06 13:36:45.857,106.42,539.0,0.62,0.79,-0.13,2.45,6.63,2.63
2024-12-06 13:36:45.866,108.22,542.0,0.62,0.79,-0.13,3.3,7.36,3.3
2024-12-06 13:36:45.872,106.88,534.0,0.61,0.79,-0.13,3.3,7.36,3.73
2024-12-06 13:36:45.880,106.2,541.0,0.61,0.79,-0.13,4.16,7.85,3.73
2024-12-06 13:36:45.888,103.05,536.0,0.6,0.79,-0.13,4.71,8.28,3.73
2024-12-06 13:36:45.896,104.85,525.0,0.6,0.8,-0.1,4.4,6.14,3.67
2024-12-06 13:36:45.906,103.95,538.0,0.6,0.81,-0.09,3.61,3.82,3.49
2024-12-06 13:36:45.932,108.22,540.0,0.62,0.79,-0.11,1.11,4.67,3.73
2024-12-06 13:36:45.935,104.62,540.0,0.62,0.77,-0.13,0.44,5.65,3.91
2024-12-06 13:36:45.948,105.75,541.0,0.59,0.76,-0.13,0.5,6.81,3.79
2024-12-06 13:36:45.954,106.88,539.0,0.59,0.76,-0.12,1.23,3.39,3.73
2024-12-06 13:36:45.960,103.27,544.0,0.58,0.76,-0.12,1.47,2.11,3.91
2024-12-06 13:36:45.969,102.15,520.0,0.59,0.75,-0.12,1.47,2.11,3.91
2024-12-06 13:36:45.974,102.38,513.0,0.6,0.74,-0.11,1.53,1.87,3.79
2024-12-06 13:36:45.982,104.85,525.0,0.61,0.74,-0.1,1.6,1.38,3.55
2024-12-06 13:36:45.991,99.67,521.0,0.64,0.75,-0.11,1.17,1.74,3.37
2024-12-06 13:36:45.998,101.47,526.0,0.65,0.74,-0.12,0.68,4.06,3.49
2024-12-06 13:36:46.93,103.05,530.0,0.65,0.74,-0.12,1.11,5.16,3.18
2024-12-06 13:36:46.99,95.85,520.0,0.62,0.77,-0.14,5.26,1.81,2.02
2024-12-06 13:36:46.105,96.3,511.0,0.63,0.78,-0.13,5.81,0.89,2.27
2024-12-06 13:36:46.114,89.55,515.0,0.63,0.79,-0.14,5.81,0.4,2.82
2024-12-06 13:36:46.119,94.05,516.0,0.63,0.79,-0.14,5.93,1.56,2.88
2024-12-06 13:36:46.127,88.2,518.0,0.64,0.78,-0.14,5.93,-0.09,3.49
2024-12-06 13:36:46.159,87.3,521.0,0.63,0.76,-0.1,5.2,-1.55,3.91
2024-12-06 13:36:46.172,86.85,530.0,0.62,0.76,-0.1,5.2,-1.37,4.4
2024-12-06 13:36:46.176,83.7,513.0,0.6,0.77,-0.11,4.95,-1.37,4.4
2024-12-06 13:36:46.181,85.72,533.0,0.58,0.79,-0.11,4.89,-1.0,6.54
2024-12-06 13:36:46.190,81.22,520.0,0.6,0.75,-0.12,5.44,0.16,7.7
2024-12-06 13:36:46.196,80.78,534.0,0.68,0.72,-0.12,5.75,-0.64,5.44
2024-12-06 13:36:46.206,83.92,522.0,0.68,0.72,-0.12,4.52,0.4,4.28
2024-12-06 13:36:46.212,79.65,534.0,0.67,0.75,-0.12,4.52,16.03,4.22
2024-12-06 13:36:46.224,79.88,523.0,0.63,0.75,-0.11,4.77,1.01,4.22
2024-12-06 13:36:46.252,78.3,567.0,0.65,0.73,-0.14,4.04,0.1,2.94
2024-12-06 13:36:46.259,76.28,515.0,0.64,0.75,-0.13,3.67,-3.38,2.33
2024-12-06 13:36:46.261,76.95,538.0,0.63,0.74,-0.13,3.67,-3.38,2.33
2024-12-06 13:36:46.266,72.45,541.0,0.64,0.74,-0.13,3.79,-3.14,2.27
2024-12-06 13:36:46.274,72.22,524.0,0.63,0.74,-0.13,3.98,-2.1,2.21
2024-12-06 13:36:46.282,75.6,534.0,0.63,0.73,-0.13,4.46,-1.8,2.08
2024-12-06 13:36:46.294,73.57,530.0,0.63,0.73,-0.13,4.71,-1.61,2.45
2024-12-06 13:36:46.299,72.22,519.0,0.64,0.73,-0.12,4.89,-1.06,2.51
2024-12-06 13:36:46.308,70.65,552.0,0.63,0.71,-0.11,4.89,-1.06,2.51
2024-12-06 13:36:46.314,72.45,525.0,0.64,0.73,-0.11,4.95,-0.88,2.69
2024-12-06 13:36:46.322,70.88,523.0,0.64,0.74,-0.13,4.83,0.04,3.06
2024-12-06 13:36:46.332,66.15,552.0,0.63,0.74,-0.13,4.71,0.04,3.18
2024-12-06 13:36:46.341,69.53,527.0,0.63,0.75,-0.14,4.4,-0.33,3.43
2024-12-06 13:36:46.350,69.3,522.0,0.63,0.75,-0.14,4.1,0.52,3.12
2024-12-06 13:36:46.381,66.82,537.0,0.64,0.74,-0.14,3.79,1.07,2.82
2024-12-06 13:36:46.383,62.77,537.0,0.64,0.74,-0.14,3.67,0.16,2.94
2024-12-06 13:36:46.392,65.25,545.0,0.65,0.75,-0.13,3.67,0.16,2.94
2024-12-06 13:36:46.399,65.25,536.0,0.65,0.74,-0.13,3.3,-0.39,3.3
2024-12-06 13:36:46.418,63.22,539.0,0.65,0.73,-0.13,3.37,-0.21,3.12
2024-12-06 13:36:46.433,57.6,542.0,0.66,0.74,-0.12,2.63,0.65,3.67
2024-12-06 13:36:46.451,58.72,534.0,0.65,0.75,-0.12,2.75,0.22,3.67
2024-12-06 13:36:46.459,58.95,551.0,0.65,0.76,-0.14,2.69,-0.09,4.1
2024-12-06 13:36:46.461,56.25,524.0,0.65,0.76,-0.15,2.63,-1.0,4.34
2024-12-06 13:36:46.468,59.17,529.0,0.64,0.76,-0.15,2.82,-1.12,4.1
2024-12-06 13:36:46.476,58.5,521.0,0.64,0.76,-0.16,2.82,-1.12,4.1
2024-12-06 13:36:46.485,56.47,531.0,0.66,0.77,-0.17,2.51,-0.27,4.65
2024-12-06 13:36:46.492,56.25,537.0,0.65,0.76,-0.15,2.08,0.4,5.14
2024-12-06 13:36:46.501,57.38,528.0,0.64,0.75,-0.14,2.21,0.71,5.14
2024-12-06 13:36:46.508,54.9,518.0,0.66,0.75,-0.14,2.14,1.56,5.68
2024-12-06 13:36:46.515,52.42,532.0,0.66,0.75,-0.14,2.14,1.74,6.36
2024-12-06 13:36:46.524,51.52,523.0,0.65,0.75,-0.14,2.14,1.81,6.42
2024-12-06 13:36:46.540,48.82,543.0,0.65,0.73,-0.13,2.57,1.81,6.42
2024-12-06 13:36:46.544,50.62,549.0,0.66,0.73,-0.12,2.75,2.17,6.72
2024-12-06 13:36:46.547,44.77,552.0,0.65,0.73,-0.12,2.57,1.81,6.97
2024-12-06 13:36:46.555,53.77,532.0,0.64,0.71,-0.12,2.63,-0.21,6.48
2024-12-06 13:36:46.570,47.25,542.0,0.64,0.71,-0.12,2.69,-0.64,5.93
2024-12-06 13:36:46.575,48.38,544.0,0.65,0.71,-0.14,2.39,-0.03,6.17
2024-12-06 13:36:46.585,45.9,543.0,0.66,0.73,-0.15,2.39,-0.03,6.17
2024-12-06 13:36:46.588,46.8,531.0,0.65,0.73,-0.15,2.21,0.04,6.42
2024-12-06 13:36:46.594,45.45,538.0,0.65,0.73,-0.16,2.57,0.46,6.48
2024-12-06 13:36:46.627,49.27,532.0,0.64,0.72,-0.15,2.51,-1.73,6.54
2024-12-06 13:36:46.632,41.85,530.0,0.65,0.73,-0.15,2.21,-1.31,6.72
2024-12-06 13:36:46.649,43.2,538.0,0.64,0.73,-0.16,1.84,-0.64,6.84
2024-12-06 13:36:46.657,42.75,528.0,0.64,0.73,-0.16,1.84,-1.0,6.42
2024-12-06 13:36:46.669,38.92,535.0,0.63,0.72,-0.14,1.84,-1.0,6.23
2024-12-06 13:36:46.674,37.35,525.0,0.64,0.74,-0.15,1.17,-0.15,6.23
2024-12-06 13:36:46.694,39.38,533.0,0.65,0.73,-0.15,1.35,0.22,5.93
2024-12-06 13:36:46.696,38.02,576.0,0.66,0.74,-0.15,1.23,1.38,6.23
2024-12-06 13:36:46.702,36.0,536.0,0.66,0.74,-0.14,1.23,1.38,6.23
2024-12-06 13:36:46.719,35.55,561.0,0.66,0.72,-0.15,1.47,-0.45,5.75
2024-12-06 13:36:46.731,35.55,521.0,0.67,0.73,-0.15,1.11,0.1,5.75
2024-12-06 13:36:46.735,37.35,529.0,0.67,0.73,-0.15,0.86,-0.39,5.5
2024-12-06 13:36:46.740,39.38,523.0,0.65,0.73,-0.14,0.86,-0.39,5.5
2024-12-06 13:36:46.748,39.15,534.0,0.65,0.72,-0.15,1.11,-1.25,4.77
2024-12-06 13:36:46.756,31.95,527.0,0.67,0.72,-0.16,1.11,-0.57,4.59
2024-12-06 13:36:46.764,35.55,524.0,0.66,0.72,-0.15,1.23,-0.39,4.65
2024-12-06 13:36:46.778,33.97,532.0,0.65,0.72,-0.14,1.72,-1.61,4.34
2024-12-06 13:36:46.782,31.72,522.0,0.65,0.72,-0.14,1.84,-1.12,4.4
2024-12-06 13:36:46.789,35.55,534.0,0.67,0.73,-0.16,1.84,-1.12,4.4
2024-12-06 13:36:46.802,34.2,548.0,0.66,0.73,-0.15,1.78,-0.09,4.77
2024-12-06 13:36:46.841,33.08,546.0,0.65,0.7,-0.16,1.78,-0.39,4.65
2024-12-06 13:36:46.844,27.45,558.0,0.64,0.7,-0.16,2.27,-2.41,4.1
2024-12-06 13:36:46.848,24.52,551.0,0.65,0.7,-0.18,2.45,-3.02,3.79
2024-12-06 13:36:46.856,27.45,541.0,0.65,0.7,-0.18,2.21,-2.47,3.79
2024-12-06 13:36:46.865,24.52,527.0,0.65,0.71,-0.17,2.45,-3.81,3.43
2024-12-06 13:36:46.873,28.35,552.0,0.64,0.71,-0.17,2.45,-3.81,3.43
2024-12-06 13:36:46.879,25.2,548.0,0.65,0.71,-0.19,2.88,-3.99,3.24
2024-12-06 13:36:46.887,24.75,536.0,0.66,0.73,-0.19,2.51,-2.1,3.43
2024-12-06 13:36:46.898,22.95,540.0,0.63,0.73,-0.17,2.57,-1.86,3.49
2024-12-06 13:36:46.903,24.52,526.0,0.63,0.73,-0.17,2.88,-3.02,3.0
2024-12-06 13:36:46.915,21.38,549.0,0.63,0.72,-0.17,2.88,-1.67,3.12
2024-12-06 13:36:46.921,26.1,550.0,0.65,0.73,-0.18,2.88,-1.67,3.12
2024-12-06 13:36:46.927,19.12,543.0,0.65,0.73,-0.17,2.57,-0.7,3.18
2024-12-06 13:36:46.941,23.85,562.0,0.65,0.72,-0.16,2.82,-1.61,2.75
2024-12-06 13:36:46.943,22.5,541.0,0.66,0.73,-0.17,3.12,-1.31,2.45
2024-12-06 13:36:46.951,22.72,542.0,0.66,0.73,-0.17,3.12,-0.82,2.08
2024-12-06 13:36:46.960,13.05,547.0,0.65,0.74,-0.17,3.55,-1.73,1.53
2024-12-06 13:36:46.966,19.12,545.0,0.65,0.73,-0.18,3.55,-1.73,1.53
2024-12-06 13:36:46.976,21.38,548.0,0.66,0.73,-0.19,3.91,-1.67,1.23
2024-12-06 13:36:46.982,16.65,536.0,0.67,0.74,-0.19,3.79,-0.33,1.41
2024-12-06 13:36:46.990,17.32,537.0,0.65,0.73,-0.17,3.91,-0.33,1.47
2024-12-06 13:36:46.998,14.17,554.0,0.65,0.71,-0.18,4.4,-1.73,0.98
2024-12-06 13:36:47.6,15.75,522.0,0.65,0.71,-0.18,4.34,-0.09,1.05
2024-12-06 13:36:47.25,13.95,553.0,0.65,0.71,-0.18,4.4,1.26,1.05
2024-12-06 13:36:47.52,3.82,557.0,0.64,0.7,-0.17,4.89,-0.03,0.74
2024-12-06 13:36:47.147,12.82,537.0,0.65,0.72,-0.18,5.07,-0.21,1.47
2024-12-06 13:36:47.155,1.12,541.0,0.66,0.71,-0.17,5.01,1.81,2.69
2024-12-06 13:36:47.158,4.05,549.0,0.68,0.69,-0.17,4.77,1.87,2.75
2024-12-06 13:36:47.165,0.45,545.0,0.66,0.69,-0.16,4.77,1.87,2.75
2024-12-06 13:36:47.173,1.8,541.0,0.66,0.69,-0.17,4.89,1.01,2.63
2024-12-06 13:36:47.181,3.38,546.0,0.6,0.67,-0.15,3.79,-4.18,0.19
2024-12-06 13:36:47.193,2.02,553.0,0.63,0.65,-0.22,5.68,-6.8,-2.68
2024-12-06 13:36:47.197,-2.47,533.0,0.63,0.65,-0.32,10.38,-2.04,-3.65
2024-12-06 13:36:47.205,-0.9,536.0,0.69,0.67,-0.33,11.06,1.2,-4.57
2024-12-06 13:36:47.224,-5.17,532.0,0.65,0.72,-0.22,11.06,1.2,-4.57
2024-12-06 13:36:47.234,-5.62,532.0,0.63,0.72,-0.11,10.32,-2.34,-5.18
2024-12-06 13:36:47.236,-1.12,543.0,0.66,0.72,-0.16,10.14,-3.38,-4.75
2024-12-06 13:36:47.280,-5.85,536.0,0.65,0.72,-0.19,7.64,-3.44,-5.85
2024-12-06 13:36:47.286,-2.92,605.0,0.65,0.71,-0.18,3.85,-3.2,-8.6
2024-12-06 13:36:47.288,-7.65,553.0,0.67,0.71,-0.18,2.88,-3.02,-7.99
2024-12-06 13:36:47.297,1.8,544.0,0.67,0.71,-0.19,2.88,-3.02,-7.99
2024-12-06 13:36:47.305,-4.72,542.0,0.67,0.71,-0.19,2.27,-1.92,-6.77
2024-12-06 13:36:47.315,-4.05,553.0,0.66,0.71,-0.2,1.96,-0.09,-5.06
2024-12-06 13:36:47.321,-6.3,537.0,0.65,0.71,-0.2,1.72,1.68,-3.35
2024-12-06 13:36:47.331,-0.45,546.0,0.65,0.71,-0.2,1.47,3.21,-1.76
2024-12-06 13:36:47.345,-2.02,548.0,0.65,0.71,-0.2,1.11,3.7,-0.48
2024-12-06 13:36:47.352,-2.92,550.0,0.65,0.72,-0.19,-14.52,3.7,0.25
2024-12-06 13:36:47.355,-6.3,580.0,0.65,0.72,-0.2,0.62,3.7,0.25
2024-12-06 13:36:47.360,-5.62,543.0,0.67,0.72,-0.2,-0.05,3.94,0.74
2024-12-06 13:36:47.369,-1.8,564.0,0.67,0.72,-0.2,-0.72,4.06,1.05
2024-12-06 13:36:47.376,-2.02,546.0,0.67,0.71,-0.19,-1.4,3.64,1.11
2024-12-06 13:36:47.386,-6.52,547.0,0.67,0.71,-0.19,-1.88,3.51,1.23
2024-12-06 13:36:47.392,-0.22,558.0,0.67,0.71,-0.19,-1.88,3.51,1.23
2024-12-06 13:36:47.400,-2.92,549.0,0.67,0.71,-0.18,-2.19,3.27,1.23
2024-12-06 13:36:47.409,-2.7,558.0,0.66,0.71,-0.17,-2.31,2.17,1.29
2024-12-06 13:36:47.417,-2.92,550.0,0.66,0.7,-0.17,-2.37,1.07,1.47
2024-12-06 13:36:47.423,-4.72,551.0,0.66,0.71,-0.17,-2.31,0.59,1.66
2024-12-06 13:36:47.432,-0.67,554.0,0.66,0.71,-0.17,-2.37,0.4,1.66
2024-12-06 13:36:47.440,-0.67,553.0,0.66,0.71,-0.18,-2.37,0.4,1.6
2024-12-06 13:36:47.453,-3.82,555.0,0.66,0.71,-0.18,-2.43,0.59,1.6
2024-12-06 13:36:47.459,-0.9,556.0,0.66,0.71,-0.19,-2.56,1.01,1.53
2024-12-06 13:36:47.465,-5.62,557.0,0.66,0.71,-0.19,-2.68,1.44,1.53
2024-12-06 13:36:47.469,-4.5,554.0,0.66,0.71,-0.19,-2.8,1.32,1.47
2024-12-06 13:36:47.478,-2.7,560.0,0.65,0.71,-0.18,-2.98,0.71,1.47
2024-12-06 13:36:47.505,-3.82,550.0,0.65,0.71,-0.19,-3.23,0.34,1.29
2024-12-06 13:36:47.508,-3.6,532.0,0.65,0.71,-0.2,-3.23,0.52,1.11
2024-12-06 13:36:47.516,-0.22,541.0,0.65,0.71,-0.2,-3.1,1.13,0.92
2024-12-06 13:36:47.524,-6.07,557.0,0.65,0.71,-0.21,-3.1,1.13,0.92
2024-12-06 13:36:47.531,-4.72,560.0,0.65,0.72,-0.21,-2.92,1.62,0.8
2024-12-06 13:36:47.539,-4.95,535.0,0.66,0.73,-0.2,-2.8,1.87,1.11
2024-12-06 13:36:47.550,0.45,560.0,0.66,0.74,-0.19,-2.86,1.93,1.78
2024-12-06 13:36:47.556,-5.62,588.0,0.66,0.75,-0.18,-3.23,2.17,2.51
2024-12-06 13:36:47.569,-3.38,552.0,0.66,0.75,-0.18,-3.71,2.6,2.88
2024-12-06 13:36:47.571,-8.77,555.0,0.66,0.74,-0.18,-3.71,2.6,2.88
2024-12-06 13:36:47.579,-4.28,559.0,0.66,0.73,-0.2,-3.17,2.36,2.82
2024-12-06 13:36:47.586,0.45,552.0,0.66,0.73,-0.21,-2.74,2.36,2.27
2024-12-06 13:36:47.597,-1.12,558.0,0.66,0.73,-0.21,-2.56,2.66,1.53
2024-12-06 13:36:47.602,-6.3,561.0,0.66,0.73,-0.2,-2.19,2.84,1.23
2024-12-06 13:36:47.615,-1.35,538.0,0.65,0.72,-0.2,-1.7,2.54,1.05
2024-12-06 13:36:47.618,-3.38,558.0,0.65,0.71,-0.18,-1.7,2.54,1.05
2024-12-06 13:36:47.631,-6.52,539.0,0.65,0.71,-0.19,-1.46,2.48,1.23
2024-12-06 13:36:47.640,-3.15,542.0,0.65,0.7,-0.19,-1.09,2.66,1.6
2024-12-06 13:36:47.643,0.22,551.0,0.65,0.7,-0.19,-0.66,2.78,1.96
2024-12-06 13:36:47.651,-0.67,544.0,0.65,0.7,-0.19,-0.24,2.9,2.14
2024-12-06 13:36:47.658,-2.7,539.0,0.65,0.69,-0.18,0.07,2.9,2.14
2024-12-06 13:36:47.668,-2.25,544.0,0.65,0.69,-0.18,0.07,2.9,2.14
2024-12-06 13:36:47.684,-1.57,539.0,0.66,0.7,-0.17,-0.17,2.97,2.08
2024-12-06 13:36:47.689,-3.15,543.0,0.65,0.7,-0.16,-0.6,2.54,1.96
2024-12-06 13:36:47.699,-5.62,571.0,0.65,0.7,-0.16,-0.97,2.11,1.78
2024-12-06 13:36:47.703,0.0,547.0,0.65,0.69,-0.16,-0.91,1.81,1.72
2024-12-06 13:36:47.712,-4.05,603.0,0.65,0.69,-0.17,-0.91,1.81,1.72
2024-12-06 13:36:47.719,-0.45,549.0,0.65,0.69,-0.18,-0.79,2.17,1.53
2024-12-06 13:36:47.727,-0.9,560.0,0.65,0.7,-0.18,-0.54,2.9,1.53
2024-12-06 13:36:47.735,-3.82,570.0,0.66,0.71,-0.19,0.01,3.45,1.78
2024-12-06 13:36:47.744,-3.82,568.0,0.66,0.71,-0.19,0.62,3.64,2.21
2024-12-06 13:36:47.751,-7.88,553.0,0.66,0.73,-0.2,16.24,3.03,2.51
2024-12-06 13:36:47.789,0.45,553.0,0.67,0.75,-0.22,1.72,1.32,1.6
2024-12-06 13:36:47.791,-1.57,550.0,0.67,0.73,-0.21,1.72,1.07,0.98
2024-12-06 13:36:47.796,0.67,564.0,0.66,0.72,-0.19,1.35,1.07,0.98
2024-12-06 13:36:47.812,-2.47,533.0,0.65,0.71,-0.18,0.98,0.4,0.5
2024-12-06 13:36:47.814,-6.97,583.0,0.64,0.71,-0.17,0.68,-0.76,0.37
2024-12-06 13:36:47.820,0.22,564.0,0.63,0.71,-0.16,0.62,-1.92,0.5
2024-12-06 13:36:47.827,-4.28,555.0,0.63,0.71,-0.16,0.8,-2.65,0.44
2024-12-06 13:36:47.835,-4.05,535.0,0.63,0.73,-0.18,0.8,-2.65,0.44
2024-12-06 13:36:47.843,-4.05,548.0,0.63,0.74,-0.2,0.92,-1.98,0.19
2024-12-06 13:36:47.854,-0.67,559.0,0.64,0.75,-0.2,1.11,-0.33,0.13
2024-12-06 13:36:47.860,0.67,562.0,0.65,0.74,-0.19,1.23,0.95,0.07
2024-12-06 13:36:47.866,-4.95,562.0,0.65,0.74,-0.18,1.17,1.68,0.19
2024-12-06 13:36:47.874,-4.72,544.0,0.65,0.73,-0.18,0.98,1.74,0.31
2024-12-06 13:36:47.883,-2.7,536.0,0.66,0.71,-0.17,0.98,1.74,0.31
2024-12-06 13:36:47.892,-6.3,551.0,0.66,0.7,-0.16,0.68,1.81,0.56
2024-12-06 13:36:47.898,-0.45,558.0,0.67,0.7,-0.16,0.37,2.23,0.8
2024-12-06 13:36:47.905,-3.82,565.0,0.67,0.71,-0.16,0.25,2.6,0.86
2024-12-06 13:36:47.920,-6.52,561.0,0.67,0.71,-0.16,0.19,2.54,0.98
2024-12-06 13:36:47.923,-5.62,564.0,0.67,0.71,-0.16,0.13,2.17,0.98
2024-12-06 13:36:47.930,-6.07,562.0,0.68,0.72,-0.17,0.13,2.17,0.98
2024-12-06 13:36:47.966,-1.12,552.0,0.67,0.71,-0.18,0.5,0.04,0.5
2024-12-06 13:36:47.969,-1.8,553.0,0.67,0.7,-0.19,0.68,-0.39,0.19
2024-12-06 13:36:47.974,2.25,547.0,0.66,0.7,-0.19,0.86,-0.45,0.13
2024-12-06 13:36:47.984,-1.8,563.0,0.65,0.71,-0.19,0.98,-0.57,0.25
2024-12-06 13:36:48.2,-0.9,565.0,0.65,0.72,-0.19,1.11,-0.51,0.44
2024-12-06 13:36:48.4,1.12,544.0,0.65,0.72,-0.19,1.11,0.52,0.98
2024-12-06 13:36:48.11,-5.17,539.0,0.65,0.72,-0.2,1.11,0.52,0.98
2024-12-06 13:36:48.13,-3.15,552.0,0.65,0.72,-0.19,1.05,1.74,1.6
2024-12-06 13:36:48.20,-4.05,558.0,0.65,0.71,-0.18,0.92,2.36,2.08
2024-12-06 13:36:48.30,-1.35,558.0,0.65,0.7,-0.18,0.8,2.66,2.14
2024-12-06 13:36:48.38,0.67,560.0,0.65,0.7,-0.17,0.68,2.84,2.08
2024-12-06 13:36:48.45,-3.82,572.0,0.65,0.7,-0.17,0.62,2.78,1.96
2024-12-06 13:36:48.52,-2.47,556.0,0.66,0.7,-0.17,0.62,2.78,1.96
2024-12-06 13:36:48.65,-3.6,550.0,0.66,0.7,-0.17,0.62,3.03,1.78
2024-12-06 13:36:48.70,-1.8,549.0,0.66,0.7,-0.16,0.5,2.54,1.35
2024-12-06 13:36:48.76,-2.02,553.0,0.65,0.7,-0.17,0.74,0.83,0.62
2024-12-06 13:36:48.85,-4.5,557.0,0.65,0.7,-0.19,1.17,-0.27,-0.36
2024-12-06 13:36:48.91,-0.67,555.0,0.65,0.7,-0.19,1.47,-0.03,-1.15
2024-12-06 13:36:48.103,-6.07,540.0,0.65,0.71,-0.19,1.47,-0.03,-1.15
2024-12-06 13:36:48.197,-1.12,551.0,0.66,0.72,-0.17,1.41,1.5,-1.09
2024-12-06 13:36:48.204,-5.17,545.0,0.67,0.73,-0.18,1.29,2.72,-0.3
2024-12-06 13:36:48.212,-3.6,551.0,0.67,0.74,-0.18,1.29,2.72,-0.3
2024-12-06 13:36:48.230,-4.05,561.0,0.66,0.73,-0.17,1.11,4.06,0.86
2024-12-06 13:36:48.236,-2.7,555.0,0.67,0.72,-0.17,0.86,4.13,1.05
2024-12-06 13:36:48.243,-2.02,544.0,0.67,0.72,-0.17,0.62,3.33,1.11
2024-12-06 13:36:48.251,-2.25,543.0,0.67,0.71,-0.17,0.5,2.23,0.98
2024-12-06 13:36:48.259,-2.47,555.0,0.68,0.71,-0.18,0.5,2.23,0.98
2024-12-06 13:36:48.273,-2.7,548.0,0.68,0.71,-0.18,0.62,1.07,0.74
2024-12-06 13:36:48.285,-2.7,548.0,0.68,0.71,-0.19,0.62,1.26,0.92
2024-12-06 13:36:48.296,-3.38,565.0,0.68,0.71,-0.18,1.05,2.54,2.33
2024-12-06 13:36:48.309,-2.47,547.0,0.65,0.71,-0.17,0.98,1.56,2.39
2024-12-06 13:36:48.314,-1.35,551.0,0.65,0.7,-0.17,0.86,1.32,2.21
2024-12-06 13:36:48.320,-1.35,559.0,0.65,0.7,-0.18,0.92,1.32,1.96
2024-12-06 13:36:48.327,-3.15,546.0,0.65,0.7,-0.18,0.86,1.68,1.66
2024-12-06 13:36:48.336,-2.47,544.0,0.65,0.7,-0.18,0.86,1.68,1.35
2024-12-06 13:36:48.343,-1.35,568.0,0.65,0.7,-0.18,0.62,1.81,1.35
2024-12-06 13:36:48.351,-1.12,549.0,0.64,0.71,-0.19,0.8,1.38,1.17
2024-12-06 13:36:48.368,-4.72,559.0,0.64,0.72,-0.2,0.92,1.56,0.92
2024-12-06 13:36:48.373,-5.85,563.0,0.64,0.72,-0.2,1.11,2.42,0.86
2024-12-06 13:36:48.377,-3.38,551.0,0.64,0.72,-0.2,1.41,3.03,1.05
2024-12-06 13:36:48.412,-5.85,546.0,0.64,0.72,-0.19,1.41,3.03,1.05
2024-12-06 13:36:48.416,-2.02,580.0,0.67,0.72,-0.19,2.51,5.16,2.57
2024-12-06 13:36:48.426,-4.5,582.0,0.67,0.73,-0.19,2.51,5.16,2.57
2024-12-06 13:36:48.431,-3.6,561.0,0.67,0.73,-0.18,2.63,5.47,2.82
2024-12-06 13:36:48.439,-4.95,550.0,0.66,0.72,-0.19,2.63,4.43,3.06
2024-12-06 13:36:48.444,-1.57,550.0,0.66,0.72,-0.18,2.39,6.08,3.06
2024-12-06 13:36:48.454,-1.8,538.0,0.66,0.72,-0.18,2.75,4.31,3.18
2024-12-06 13:36:48.459,-2.92,552.0,0.66,0.72,-0.18,2.75,4.31,3.18
2024-12-06 13:36:48.467,-4.5,547.0,0.65,0.71,-0.19,2.21,5.41,2.88
2024-12-06 13:36:48.475,-5.85,556.0,0.63,0.69,-0.16,1.84,3.51,1.9
2024-12-06 13:36:48.481,0.9,554.0,0.63,0.68,-0.16,1.47,1.87,0.31
2024-12-06 13:36:48.489,-2.92,553.0,0.63,0.68,-0.17,0.74,1.07,-0.91
2024-12-06 13:36:48.509,-3.82,568.0,0.62,0.68,-0.21,1.78,0.28,-2.37
2024-12-06 13:36:48.513,2.47,541.0,0.62,0.69,-0.2,2.14,0.95,-3.78
2024-12-06 13:36:48.520,2.47,550.0,0.62,0.71,-0.17,2.33,0.83,-4.57
2024-12-06 13:36:48.529,0.9,562.0,0.62,0.71,-0.16,2.57,0.65,-4.87
2024-12-06 13:36:48.539,1.12,564.0,0.62,0.71,-0.17,2.75,1.01,-4.94
2024-12-06 13:36:48.544,0.45,554.0,0.62,0.71,-0.17,2.69,0.83,-5.42
2024-12-06 13:36:48.552,3.82,562.0,0.62,0.71,-0.17,2.69,0.83,-5.42
2024-12-06 13:36:48.560,2.02,544.0,0.63,0.7,-0.18,2.63,0.46,-6.22
2024-12-06 13:36:48.567,1.35,552.0,0.65,0.7,-0.17,2.08,1.81,-6.46
2024-12-06 13:36:48.578,1.8,536.0,0.63,0.71,-0.18,2.45,1.93,-6.95
2024-12-06 13:36:48.594,3.38,538.0,0.64,0.72,-0.18,2.27,1.32,-8.17
2024-12-06 13:36:48.596,8.55,545.0,0.64,0.72,-0.18,0.92,2.36,-7.8
2024-12-06 13:36:48.599,6.75,533.0,0.67,0.72,-0.17,0.92,2.36,-7.8
2024-12-06 13:36:48.614,9.9,548.0,0.66,0.71,-0.15,0.44,1.81,-7.44
2024-12-06 13:36:48.651,8.1,529.0,0.66,0.72,-0.15,-2.25,1.74,-6.4
2024-12-06 13:36:48.654,11.47,519.0,0.65,0.72,-0.15,-2.98,1.2,-5.97
2024-12-06 13:36:48.662,13.95,536.0,0.66,0.73,-0.16,-3.41,0.89,-5.67
2024-12-06 13:36:48.668,13.95,531.0,0.66,0.73,-0.16,-4.57,1.62,-4.63
2024-12-06 13:36:48.676,15.3,515.0,0.67,0.73,-0.15,-4.81,0.89,-4.33
2024-12-06 13:36:48.689,17.55,521.0,0.65,0.73,-0.14,-4.81,0.89,-4.33
2024-12-06 13:36:48.695,16.42,537.0,0.66,0.71,-0.14,-5.18,1.44,-4.14
2024-12-06 13:36:48.701,20.02,537.0,0.65,0.7,-0.14,-5.3,1.62,-4.51
2024-12-06 13:36:48.713,19.8,533.0,0.65,0.7,-0.14,-5.61,0.95,-4.81
2024-12-06 13:36:48.718,17.55,518.0,0.64,0.7,-0.14,-5.97,-0.03,-4.94
2024-12-06 13:36:48.723,22.5,519.0,0.64,0.7,-0.14,-6.22,-0.64,-5.0
2024-12-06 13:36:48.731,23.85,526.0,0.65,0.72,-0.15,-6.22,-0.64,-5.0
2024-12-06 13:36:48.742,19.8,527.0,0.65,0.73,-0.15,-6.83,-0.27,-4.39
2024-12-06 13:36:48.748,22.95,553.0,0.64,0.73,-0.16,-6.95,-1.25,-4.45
2024-12-06 13:36:48.755,26.1,520.0,0.65,0.73,-0.17,-7.13,-1.67,-4.2
2024-12-06 13:36:48.764,22.95,523.0,0.65,0.73,-0.17,-7.07,-2.28,-4.2
2024-12-06 13:36:48.772,25.2,525.0,0.65,0.73,-0.17,-7.32,-2.04,-4.02
2024-12-06 13:36:48.779,22.27,517.0,0.65,0.73,-0.17,-7.32,-2.04,-4.02
2024-12-06 13:36:48.787,26.77,525.0,0.64,0.73,-0.17,-7.62,-1.61,-3.96
2024-12-06 13:36:48.795,29.7,540.0,0.63,0.73,-0.16,-7.68,-1.92,-4.26
2024-12-06 13:36:48.806,26.32,540.0,0.63,0.73,-0.16,-7.8,-1.86,-4.33
2024-12-06 13:36:48.812,30.15,534.0,0.62,0.72,-0.16,-7.62,-2.34,-4.69
2024-12-06 13:36:48.819,28.12,543.0,0.62,0.72,-0.16,-7.38,-1.98,-5.12
2024-12-06 13:36:48.827,30.82,544.0,0.63,0.72,-0.17,-6.46,-2.53,-7.01
2024-12-06 13:36:48.862,33.3,524.0,0.64,0.71,-0.18,-6.46,-2.53,-7.01
2024-12-06 13:36:48.864,30.82,534.0,0.64,0.78,-0.16,-5.36,1.01,-7.56
2024-12-06 13:36:48.867,34.65,536.0,0.64,0.78,-0.16,-5.24,1.32,-6.64
2024-12-06 13:36:48.873,38.7,528.0,0.63,0.77,-0.16,-5.24,1.32,-6.64
2024-12-06 13:36:48.881,36.22,540.0,0.62,0.76,-0.16,-4.69,0.65,-6.95
2024-12-06 13:36:48.889,37.35,546.0,0.62,0.77,-0.17,-4.39,1.68,-5.79
2024-12-06 13:36:48.898,37.58,541.0,0.61,0.77,-0.16,-3.71,0.95,-5.24
2024-12-06 13:36:48.906,43.2,548.0,0.61,0.78,-0.18,-3.04,0.04,-5.12
2024-12-06 13:36:48.913,42.08,538.0,0.61,0.78,-0.18,-2.86,1.62,-3.71
2024-12-06 13:36:48.923,43.42,532.0,0.62,0.79,-0.18,-2.86,1.62,-3.41
2024-12-06 13:36:48.928,45.0,529.0,0.62,0.78,-0.17,-2.68,1.01,-3.41
2024-12-06 13:36:48.936,39.15,534.0,0.63,0.79,-0.17,-2.43,1.32,-2.56
2024-12-06 13:36:48.945,42.3,529.0,0.62,0.79,-0.17,-2.56,1.07,-1.82
2024-12-06 13:36:48.953,47.47,533.0,0.62,0.78,-0.17,-2.25,-0.03,-1.88
2024-12-06 13:36:48.962,39.83,515.0,0.62,0.78,-0.17,-2.43,0.77,-1.21
2024-12-06 13:36:48.967,48.15,582.0,0.63,0.78,-0.17,-2.43,0.77,-1.21
2024-12-06 13:36:48.975,48.6,550.0,0.61,0.76,-0.16,-2.31,0.89,-1.46
2024-12-06 13:36:48.988,47.47,534.0,0.62,0.75,-0.17,-2.01,0.77,-2.01
2024-12-06 13:36:48.994,48.15,562.0,0.64,0.73,-0.17,-2.25,1.01,-2.62
2024-12-06 13:36:48.999,49.5,555.0,0.65,0.73,-0.17,-2.07,1.38,-4.63
2024-12-06 13:36:49.11,48.6,546.0,0.65,0.73,-0.17,-2.31,3.64,-5.48
2024-12-06 13:36:49.17,49.72,536.0,0.66,0.76,-0.17,-2.31,3.64,-5.18
2024-12-06 13:36:49.26,48.6,533.0,0.63,0.77,-0.15,-2.62,4.67,-5.18
2024-12-06 13:36:49.31,48.82,554.0,0.6,0.76,-0.15,-2.25,3.58,-5.73
2024-12-06 13:36:49.41,52.2,544.0,0.59,0.77,-0.16,-2.43,3.58,-5.06
2024-12-06 13:36:49.46,49.95,548.0,0.58,0.76,-0.15,-2.37,2.84,-3.78
2024-12-06 13:36:49.55,54.22,540.0,0.58,0.76,-0.15,-1.64,0.89,-3.29
2024-12-06 13:36:49.86,55.8,558.0,0.59,0.78,-0.15,-1.15,-1.0,-0.85
2024-12-06 13:36:49.93,56.92,583.0,0.59,0.78,-0.18,-1.46,0.16,0.01
2024-12-06 13:36:49.101,58.5,567.0,0.6,0.8,-0.16,-2.62,1.93,0.98
2024-12-06 13:36:49.110,58.27,601.0,0.6,0.81,-0.16,-2.62,1.93,0.98
2024-12-06 13:36:49.117,58.95,562.0,0.59,0.78,-0.16,-2.8,1.99,0.86
2024-12-06 13:36:49.126,62.1,562.0,0.61,0.77,-0.16,-3.04,1.38,0.5
2024-12-06 13:36:49.132,59.17,547.0,0.62,0.78,-0.16,-3.96,2.36,0.86
2024-12-06 13:36:49.141,59.4,554.0,0.61,0.77,-0.14,-3.71,2.42,1.05
2024-12-06 13:36:49.149,63.0,562.0,0.61,0.77,-0.14,-3.1,1.81,0.68
2024-12-06 13:36:49.251,61.42,567.0,0.61,0.74,-0.14,-1.4,3.33,2.21
2024-12-06 13:36:49.254,67.5,561.0,0.62,0.76,-0.15,-1.94,3.33,2.27
2024-12-06 13:36:49.265,67.95,545.0,0.62,0.76,-0.15,-2.19,2.84,2.33
2024-12-06 13:36:49.277,71.78,546.0,0.61,0.77,-0.14,-2.25,2.48,1.9
2024-12-06 13:36:49.280,67.28,552.0,0.6,0.77,-0.14,-2.25,2.48,1.9
2024-12-06 13:36:49.311,73.12,576.0,0.61,0.77,-0.14,-2.56,2.72,1.53
2024-12-06 13:36:49.313,72.0,545.0,0.61,0.79,-0.14,-2.98,3.82,1.9
2024-12-06 13:36:49.316,75.15,569.0,0.61,0.78,-0.14,-2.98,3.82,1.9
2024-12-06 13:36:49.324,72.0,548.0,0.61,0.77,-0.14,-2.98,4.61,2.14
2024-12-06 13:36:49.332,72.67,565.0,0.61,0.77,-0.13,-2.92,4.74,2.33
2024-12-06 13:36:49.340,73.8,562.0,0.6,0.76,-0.12,-2.86,4.49,2.39
2024-12-06 13:36:49.348,73.8,560.0,0.6,0.75,-0.11,-3.23,4.49,2.14
2024-12-06 13:36:49.357,77.62,567.0,0.6,0.75,-0.11,-3.71,4.0,2.02
2024-12-06 13:36:49.372,72.67,556.0,0.62,0.76,-0.11,-4.45,3.39,2.21
2024-12-06 13:36:49.382,73.8,562.0,0.61,0.76,-0.11,-5.06,2.84,2.45
2024-12-06 13:36:49.387,75.15,565.0,0.61,0.75,-0.12,-5.3,2.05,2.14
2024-12-06 13:36:49.403,76.28,562.0,0.61,0.75,-0.14,-5.42,1.68,1.66
2024-12-06 13:36:49.408,76.05,563.0,0.61,0.75,-0.14,-5.48,1.87,1.47
2024-12-06 13:36:49.412,76.5,568.0,0.62,0.76,-0.14,-5.48,1.87,1.47
2024-12-06 13:36:49.422,75.15,572.0,0.62,0.78,-0.13,-5.24,1.93,1.66
2024-12-06 13:36:49.427,77.85,546.0,0.61,0.78,-0.12,-5.24,1.99,2.02
2024-12-06 13:36:49.441,79.65,572.0,0.61,0.77,-0.12,-5.67,2.54,2.27
2024-12-06 13:36:49.446,78.53,569.0,0.61,0.78,-0.12,-5.91,3.21,2.51
2024-12-06 13:36:49.450,76.72,571.0,0.61,0.78,-0.12,-5.85,4.74,3.18
2024-12-06 13:36:49.458,79.88,570.0,0.62,0.8,-0.13,-5.85,4.74,3.18
2024-12-06 13:36:49.471,81.45,581.0,0.61,0.8,-0.13,-5.61,6.44,3.79
2024-12-06 13:36:49.477,81.22,582.0,0.61,0.8,-0.13,-5.3,7.73,4.16
2024-12-06 13:36:49.483,79.2,571.0,0.62,0.79,-0.12,-5.12,8.03,4.4
2024-12-06 13:36:49.490,85.28,593.0,0.63,0.79,-0.11,-5.12,7.6,4.83
2024-12-06 13:36:49.499,86.17,574.0,0.63,0.79,-0.11,-5.06,7.18,5.07
2024-12-06 13:36:49.508,82.57,573.0,0.64,0.78,-0.12,-5.06,6.63,5.07
2024-12-06 13:36:49.538,84.15,581.0,0.62,0.77,-0.13,-3.59,5.1,4.46
2024-12-06 13:36:49.544,86.4,593.0,0.62,0.79,-0.13,-2.62,4.43,4.34
2024-12-06 13:36:49.553,87.75,598.0,0.61,0.79,-0.12,-2.62,4.43,4.34
2024-12-06 13:36:49.563,80.32,563.0,0.61,0.78,-0.12,-2.19,3.7,4.04
2024-12-06 13:36:49.581,88.2,569.0,0.62,0.74,-0.1,-1.82,1.44,2.69
2024-12-06 13:36:49.594,91.12,593.0,0.62,0.74,-0.1,-1.46,1.68,2.02
2024-12-06 13:36:49.599,90.0,583.0,0.62,0.73,-0.1,-1.46,1.68,1.35
2024-12-06 13:36:49.602,87.52,581.0,0.62,0.72,-0.1,-1.03,1.26,1.35
2024-12-06 13:36:49.609,89.1,586.0,0.61,0.72,-0.09,-0.54,0.71,0.68
2024-12-06 13:36:49.617,91.57,594.0,0.62,0.74,-0.09,-0.54,0.77,0.5
2024-12-06 13:36:49.622,92.02,590.0,0.62,0.77,-0.09,-0.72,1.68,0.98
2024-12-06 13:36:49.630,90.9,600.0,0.62,0.77,-0.09,-0.6,3.21,1.78
2024-12-06 13:36:49.638,97.65,592.0,0.62,0.78,-0.1,-0.6,3.21,1.78
2024-12-06 13:36:49.658,94.05,586.0,0.62,0.79,-0.1,-0.72,3.09,2.21
2024-12-06 13:36:49.664,95.62,586.0,0.63,0.77,-0.11,-1.4,2.36,2.33
2024-12-06 13:36:49.669,97.2,586.0,0.63,0.77,-0.11,-1.27,2.29,1.72
2024-12-06 13:36:49.681,94.05,596.0,0.63,0.77,-0.11,-1.46,1.26,1.29
2024-12-06 13:36:49.687,97.42,584.0,0.63,0.78,-0.11,-1.46,1.26,1.29
2024-12-06 13:36:49.692,93.82,635.0,0.63,0.79,-0.1,-1.7,-0.15,1.23
2024-12-06 13:36:49.700,93.82,606.0,0.63,0.78,-0.09,-1.58,-0.64,1.53
2024-12-06 13:36:49.709,100.57,585.0,0.63,0.77,-0.09,-1.4,-0.57,1.78
2024-12-06 13:36:49.717,100.35,595.0,0.64,0.76,-0.09,-1.52,-1.37,1.84
2024-12-06 13:36:49.726,95.4,587.0,0.64,0.76,-0.09,-1.88,-2.65,1.78
2024-12-06 13:36:49.732,100.57,580.0,0.64,0.75,-0.08,-1.88,-3.26,1.6
2024-12-06 13:36:49.742,97.42,590.0,0.63,0.75,-0.07,-2.13,-3.26,1.6
2024-12-06 13:36:49.775,97.42,593.0,0.63,0.76,-0.07,-2.68,-3.2,1.47
2024-12-06 13:36:49.777,99.9,585.0,0.62,0.76,-0.08,-3.23,-1.67,2.02
2024-12-06 13:36:49.780,97.42,587.0,0.62,0.75,-0.08,-3.23,-1.67,2.02
2024-12-06 13:36:49.788,101.25,603.0,0.63,0.75,-0.09,-3.23,-1.8,2.08
2024-12-06 13:36:49.794,102.82,588.0,0.63,0.75,-0.08,-3.41,-1.31,2.02
2024-12-06 13:36:49.811,97.65,589.0,0.63,0.76,-0.07,-3.59,-0.88,1.96
2024-12-06 13:36:49.816,103.05,584.0,0.63,0.76,-0.07,-3.84,-0.27,2.14
2024-12-06 13:36:49.819,91.35,594.0,0.63,0.76,-0.07,-3.84,0.04,2.27
2024-12-06 13:36:49.834,103.5,632.0,0.63,0.77,-0.08,-4.26,0.04,2.27
2024-12-06 13:36:49.848,102.38,633.0,0.61,0.77,-0.07,-4.81,0.1,2.45
2024-12-06 13:36:49.850,102.82,601.0,0.61,0.78,-0.08,-5.73,-3.26,2.88
2024-12-06 13:36:49.856,104.17,593.0,0.61,0.79,-0.08,-6.46,-4.97,3.06
2024-12-06 13:36:49.863,106.2,593.0,0.61,0.8,-0.11,-6.46,-4.97,3.06
2024-12-06 13:36:49.871,103.72,616.0,0.62,0.81,-0.13,-7.19,-1.49,3.67
2024-12-06 13:36:49.879,102.82,604.0,0.61,0.82,-0.1,-8.17,0.77,4.52
2024-12-06 13:36:49.887,107.1,603.0,0.6,0.8,-0.09,-8.17,1.07,5.44
2024-12-06 13:36:49.896,105.52,616.0,0.6,0.8,-0.12,-8.96,1.62,6.05
2024-12-06 13:36:49.906,103.5,601.0,0.61,0.78,-0.1,-9.39,2.29,6.48
2024-12-06 13:36:49.912,108.9,610.0,0.61,0.77,-0.09,-9.39,2.29,6.48
2024-12-06 13:36:49.920,106.65,614.0,0.62,0.76,-0.06,-9.51,2.84,6.84
2024-12-06 13:36:49.928,105.75,603.0,0.64,0.76,-0.05,-10.0,0.65,7.64
2024-12-06 13:36:49.948,109.35,630.0,0.64,0.76,-0.07,-10.31,0.46,8.61
2024-12-06 13:36:49.957,110.25,613.0,0.63,0.76,-0.07,-10.25,-0.27,11.36
2024-12-06 13:36:49.963,101.25,623.0,0.61,0.76,-0.08,-10.25,-0.27,11.36
2024-12-06 13:36:49.991,110.25,604.0,0.62,0.74,-0.11,-5.24,1.87,11.36
2024-12-06 13:36:49.998,110.02,632.0,0.7,0.68,-0.1,-4.39,1.32,6.6
2024-12-06 13:36:50.5,107.32,611.0,0.73,0.7,-0.1,-4.39,1.32,6.6
2024-12-06 13:36:50.14,105.52,630.0,0.68,0.74,-0.08,-3.17,1.38,5.2
2024-12-06 13:36:50.25,109.57,623.0,0.68,0.7,-0.06,-1.33,-0.27,3.98
2024-12-06 13:36:50.32,106.88,598.0,0.69,0.69,-0.08,-1.33,-1.55,2.14
2024-12-06 13:36:50.38,104.62,612.0,0.69,0.69,-0.08,-1.03,-2.77,0.74
2024-12-06 13:36:50.48,109.35,624.0,0.69,0.69,-0.08,-0.05,-3.81,-0.17
2024-12-06 13:36:50.53,109.8,599.0,0.67,0.7,-0.07,-0.05,-3.81,-0.85
2024-12-06 13:36:50.61,108.45,613.0,0.65,0.7,-0.08,1.35,-4.91,-0.85
2024-12-06 13:36:50.70,108.9,608.0,0.64,0.7,-0.08,2.51,-6.01,-1.4
2024-12-06 13:36:50.77,108.45,614.0,0.65,0.7,-0.08,3.18,-6.31,-1.58
2024-12-06 13:36:50.86,103.05,614.0,0.65,0.71,-0.08,3.49,-5.46,-1.58
2024-12-06 13:36:50.94,110.02,602.0,0.65,0.71,-0.08,3.85,-4.3,-1.7
2024-12-06 13:36:50.105,109.8,621.0,0.65,0.72,-0.08,4.16,-3.02,-2.13
2024-12-06 13:36:50.111,103.5,618.0,0.65,0.72,-0.09,4.16,-3.02,-2.13
2024-12-06 13:36:50.116,100.8,626.0,0.65,0.73,-0.09,4.4,-1.86,-2.62
2024-12-06 13:36:50.150,105.52,609.0,0.65,0.74,-0.07,4.89,0.22,-3.65
2024-12-06 13:36:50.156,109.57,597.0,0.64,0.74,-0.06,4.89,0.22,-3.65
2024-12-06 13:36:50.161,108.22,658.0,0.64,0.75,-0.07,5.07,0.59,-3.84
2024-12-06 13:36:50.163,107.1,599.0,0.64,0.76,-0.07,5.07,0.89,-3.59
2024-12-06 13:36:50.170,106.88,606.0,0.64,0.76,-0.07,4.83,1.07,-3.04
2024-12-06 13:36:50.179,108.22,586.0,0.64,0.77,-0.08,4.52,1.2,-2.8
2024-12-06 13:36:50.186,109.8,597.0,0.63,0.77,-0.08,3.79,1.32,-2.8
2024-12-06 13:36:50.308,104.4,591.0,0.62,0.76,-0.09,1.78,0.65,-2.86
2024-12-06 13:36:50.318,106.2,593.0,0.62,0.76,-0.09,1.78,0.28,-3.04
2024-12-06 13:36:50.323,104.85,583.0,0.62,0.76,-0.09,1.72,-0.03,-3.1
2024-12-06 13:36:50.332,105.75,593.0,0.62,0.76,-0.09,1.66,-0.15,-3.1
2024-12-06 13:36:50.340,107.77,625.0,0.63,0.76,-0.09,1.47,0.04,-2.98
2024-12-06 13:36:50.351,109.35,605.0,0.63,0.76,-0.09,1.41,0.59,-2.86
2024-12-06 13:36:50.356,105.97,575.0,0.63,0.76,-0.09,1.41,0.59,-2.86
2024-12-06 13:36:50.364,106.88,602.0,0.62,0.76,-0.1,1.53,1.13,-2.8
2024-12-06 13:36:50.370,107.55,593.0,0.63,0.77,-0.1,1.72,1.5,-2.68
2024-12-06 13:36:50.384,105.07,620.0,0.63,0.77,-0.1,2.02,1.68,-2.43
2024-12-06 13:36:50.387,105.07,586.0,0.63,0.77,-0.1,2.33,1.68,-2.07
2024-12-06 13:36:50.398,109.12,581.0,0.63,0.77,-0.1,2.45,1.62,-1.88
2024-12-06 13:36:50.402,105.3,592.0,0.63,0.77,-0.1,2.45,1.62,-1.76
2024-12-06 13:36:50.411,108.9,582.0,0.64,0.77,-0.09,2.39,1.68,-1.76
2024-12-06 13:36:50.446,105.07,576.0,0.63,0.77,-0.1,2.27,1.26,-1.03
2024-12-06 13:36:50.448,107.32,592.0,0.63,0.77,-0.1,2.27,1.26,-1.03
2024-12-06 13:36:50.457,103.5,564.0,0.63,0.77,-0.09,2.21,1.32,-0.85
2024-12-06 13:36:50.464,101.7,576.0,0.63,0.77,-0.09,2.14,1.32,-0.54
2024-12-06 13:36:50.472,107.77,587.0,0.63,0.77,-0.09,2.02,1.26,-0.3
2024-12-06 13:36:50.503,108.9,580.0,0.63,0.77,-0.09,1.9,1.13,-0.11
2024-12-06 13:36:50.507,106.65,606.0,0.63,0.77,-0.09,1.72,0.71,0.13
2024-12-06 13:36:50.510,103.5,619.0,0.63,0.77,-0.09,1.72,0.22,0.07
2024-12-06 13:36:50.518,109.57,581.0,0.63,0.77,-0.09,1.78,-0.15,-0.05
2024-12-06 13:36:50.526,103.95,676.0,0.63,0.77,-0.1,1.78,-0.51,-0.3
2024-12-06 13:36:50.535,101.25,566.0,0.62,0.78,-0.09,1.78,-0.51,-0.3
2024-12-06 13:36:50.546,105.75,583.0,0.62,0.78,-0.09,1.72,-0.64,-0.48
2024-12-06 13:36:50.563,103.95,578.0,0.62,0.77,-0.09,1.6,-0.21,-0.48
2024-12-06 13:36:50.576,106.88,579.0,0.62,0.77,-0.09,1.47,0.28,-0.48
2024-12-06 13:36:50.582,108.9,576.0,0.61,0.76,-0.09,1.47,0.83,-0.36
2024-12-06 13:36:50.591,106.65,597.0,0.61,0.76,-0.08,1.35,0.83,-0.36
2024-12-06 13:36:50.593,110.02,579.0,0.61,0.76,-0.09,1.35,1.44,-0.17
2024-12-06 13:36:50.596,107.1,571.0,0.61,0.76,-0.09,1.53,1.74,0.13
2024-12-06 13:36:50.603,106.2,568.0,0.61,0.77,-0.1,1.6,1.81,0.37
2024-12-06 13:36:50.612,107.55,567.0,0.61,0.77,-0.1,1.53,1.74,0.56
2024-12-06 13:36:50.619,110.02,577.0,0.61,0.77,-0.1,1.53,1.74,0.56
2024-12-06 13:36:50.629,106.2,583.0,0.62,0.76,-0.09,1.41,1.5,0.5
2024-12-06 13:36:50.635,106.65,571.0,0.62,0.76,-0.09,1.05,1.26,0.19
2024-12-06 13:36:50.662,105.75,583.0,0.62,0.76,-0.09,0.37,0.95,-1.03
2024-12-06 13:36:50.665,108.67,581.0,0.62,0.76,-0.09,0.37,0.95,-1.03
2024-12-06 13:36:50.676,108.22,586.0,0.62,0.76,-0.09,0.56,0.83,-1.21
2024-12-06 13:36:50.682,100.8,583.0,0.62,0.76,-0.09,0.92,0.71,-1.27
2024-12-06 13:36:50.692,105.97,578.0,0.62,0.76,-0.09,1.29,0.77,-1.27
2024-12-06 13:36:50.697,103.95,572.0,0.62,0.76,-0.09,1.66,1.26,-1.21
2024-12-06 13:36:50.709,109.8,576.0,0.62,0.77,-0.09,1.9,1.68,-1.15
2024-12-06 13:36:50.712,106.42,580.0,0.62,0.77,-0.09,1.9,1.68,-1.15
2024-12-06 13:36:50.738,103.05,571.0,0.62,0.77,-0.09,2.02,1.81,-1.03
2024-12-06 13:36:50.744,107.55,576.0,0.63,0.77,-0.1,2.27,1.13,-0.66
2024-12-06 13:36:50.746,103.95,578.0,0.63,0.77,-0.1,1.9,1.07,-0.6
2024-12-06 13:36:50.751,103.5,605.0,0.63,0.77,-0.1,1.9,1.07,-0.6
2024-12-06 13:36:50.762,106.2,571.0,0.64,0.76,-0.1,2.08,0.77,-0.48
2024-12-06 13:36:50.769,108.22,570.0,0.65,0.76,-0.1,2.33,-0.03,0.01
2024-12-06 13:36:50.775,107.77,564.0,0.65,0.76,-0.1,2.63,-1.18,0.74
2024-12-06 13:36:50.783,109.12,586.0,0.63,0.77,-0.09,1.96,-0.76,1.05
2024-12-06 13:36:50.792,103.5,575.0,0.63,0.77,-0.09,1.11,1.01,0.86
2024-12-06 13:36:50.799,107.77,581.0,0.62,0.76,-0.07,1.11,1.01,0.68
2024-12-06 13:36:50.806,104.17,589.0,0.62,0.75,-0.08,1.47,1.26,0.68
2024-12-06 13:36:50.836,106.42,611.0,0.62,0.76,-0.08,1.66,0.77,0.62
2024-12-06 13:36:50.842,103.95,564.0,0.62,0.75,-0.08,1.35,1.07,0.31
2024-12-06 13:36:50.895,105.75,574.0,0.62,0.76,-0.07,0.44,-0.51,-0.36
2024-12-06 13:36:50.898,109.35,577.0,0.6,0.78,-0.11,-1.88,-3.26,0.07
2024-12-06 13:36:50.900,105.3,589.0,0.61,0.78,-0.11,-2.19,-3.08,0.25
2024-12-06 13:36:50.905,103.05,585.0,0.61,0.76,-0.12,-2.19,-2.83,0.37
2024-12-06 13:36:50.913,107.1,592.0,0.61,0.76,-0.12,-1.82,-2.1,0.5
2024-12-06 13:36:50.921,104.85,577.0,0.61,0.74,-0.12,-1.82,-1.43,0.44
2024-12-06 13:36:50.935,105.07,566.0,0.61,0.74,-0.1,-1.15,-1.43,0.44
2024-12-06 13:36:50.942,108.45,614.0,0.61,0.74,-0.1,-0.48,-1.73,0.25
2024-12-06 13:36:50.946,101.92,623.0,0.61,0.75,-0.1,0.01,-0.27,-0.11
2024-12-06 13:36:50.954,102.15,588.0,0.61,0.75,-0.09,0.5,-0.39,-0.17
2024-12-06 13:36:50.961,103.05,577.0,0.61,0.75,-0.09,0.74,1.13,-0.17
2024-12-06 13:36:50.969,105.52,575.0,0.62,0.76,-0.1,0.86,0.71,0.25
2024-12-06 13:36:50.977,107.32,591.0,0.62,0.78,-0.11,0.86,0.71,0.25
2024-12-06 13:36:50.985,105.97,566.0,0.61,0.77,-0.13,0.74,2.23,0.44
2024-12-06 13:36:50.993,99.67,572.0,0.61,0.76,-0.13,1.23,4.13,0.37
2024-12-06 13:36:51.1,101.92,573.0,0.62,0.77,-0.11,1.66,3.82,0.5
2024-12-06 13:36:51.9,106.42,589.0,0.62,0.78,-0.11,1.53,2.72,0.98
2024-12-06 13:36:51.17,107.55,576.0,0.62,0.78,-0.11,1.35,2.66,1.47
2024-12-06 13:36:51.25,102.82,587.0,0.61,0.8,-0.11,1.35,2.66,1.96
2024-12-06 13:36:51.35,102.38,567.0,0.61,0.81,-0.11,1.35,3.09,1.96
2024-12-06 13:36:51.41,105.3,583.0,0.61,0.81,-0.11,1.29,3.27,2.33
2024-12-06 13:36:51.50,104.4,562.0,0.61,0.8,-0.11,1.35,3.15,2.39
2024-12-06 13:36:51.73,107.32,570.0,0.61,0.8,-0.11,1.66,2.72,2.39
2024-12-06 13:36:51.75,106.88,570.0,0.61,0.8,-0.1,2.14,1.93,1.72
2024-12-06 13:36:51.80,101.47,572.0,0.61,0.8,-0.1,2.14,1.93,1.72
2024-12-06 13:36:51.88,99.45,569.0,0.62,0.79,-0.1,2.33,1.56,1.35
2024-12-06 13:36:51.123,106.65,575.0,0.6,0.79,-0.1,3.12,1.2,0.74
2024-12-06 13:36:51.130,102.82,579.0,0.6,0.78,-0.1,3.3,1.26,0.68
2024-12-06 13:36:51.134,104.85,566.0,0.61,0.77,-0.1,3.37,1.44,0.74
2024-12-06 13:36:51.142,103.95,562.0,0.61,0.77,-0.1,3.24,1.62,0.86
2024-12-06 13:36:51.158,104.85,557.0,0.61,0.77,-0.1,3.18,1.56,0.98
2024-12-06 13:36:51.161,103.27,575.0,0.61,0.77,-0.1,3.0,1.32,1.17
2024-12-06 13:36:51.167,103.95,570.0,0.62,0.76,-0.1,3.0,1.32,1.17
2024-12-06 13:36:51.183,102.6,555.0,0.62,0.77,-0.1,2.82,1.2,1.29
2024-12-06 13:36:51.186,106.88,567.0,0.62,0.77,-0.1,2.63,1.26,1.35
2024-12-06 13:36:51.189,103.05,562.0,0.61,0.77,-0.1,2.57,1.44,1.47
2024-12-06 13:36:51.201,108.22,555.0,0.61,0.77,-0.1,2.69,1.68,1.53
2024-12-06 13:36:51.210,102.38,555.0,0.61,0.76,-0.1,2.75,1.93,1.6
2024-12-06 13:36:51.218,102.82,596.0,0.61,0.76,-0.1,2.75,1.93,1.6
2024-12-06 13:36:51.224,105.75,549.0,0.62,0.76,-0.1,2.82,1.99,1.66
2024-12-06 13:36:51.229,103.05,564.0,0.62,0.76,-0.1,3.0,2.11,1.84
2024-12-06 13:36:51.237,103.72,565.0,0.63,0.75,-0.1,2.88,2.36,2.02
2024-12-06 13:36:51.245,104.4,567.0,0.63,0.75,-0.1,3.0,2.54,2.33
2024-12-06 13:36:51.349,104.17,537.0,0.6,0.77,-0.09,2.21,5.59,1.78
2024-12-06 13:36:51.353,102.15,559.0,0.61,0.77,-0.09,2.14,5.65,1.6
2024-12-06 13:36:51.359,101.7,538.0,0.61,0.77,-0.09,1.96,5.65,1.47
2024-12-06 13:36:51.366,103.95,537.0,0.62,0.77,-0.09,1.66,5.53,1.53
2024-12-06 13:36:51.374,105.97,542.0,0.62,0.77,-0.09,1.66,5.53,1.53
2024-12-06 13:36:51.386,104.62,536.0,0.62,0.76,-0.09,1.35,5.04,1.41
2024-12-06 13:36:51.399,104.85,546.0,0.63,0.76,-0.1,1.11,4.25,1.23
2024-12-06 13:36:51.402,102.6,543.0,0.63,0.76,-0.1,0.98,3.33,1.35
2024-12-06 13:36:51.405,105.07,530.0,0.63,0.76,-0.1,0.92,2.84,1.6
2024-12-06 13:36:51.413,105.07,545.0,0.64,0.76,-0.1,0.8,3.09,2.08
2024-12-06 13:36:51.421,106.42,549.0,0.63,0.76,-0.1,0.8,3.09,2.08
2024-12-06 13:36:51.432,106.2,551.0,0.62,0.76,-0.09,1.05,3.09,2.33
2024-12-06 13:36:51.436,106.42,530.0,0.61,0.76,-0.1,1.53,2.6,2.33
2024-12-06 13:36:51.444,101.7,536.0,0.62,0.76,-0.1,1.78,1.93,2.33
2024-12-06 13:36:51.452,107.55,562.0,0.62,0.78,-0.09,2.08,0.46,2.45
2024-12-06 13:36:51.460,105.97,532.0,0.62,0.78,-0.09,1.78,-1.67,3.0
2024-12-06 13:36:51.469,104.4,528.0,0.62,0.82,-0.1,1.78,-1.67,3.0
2024-12-06 13:36:51.478,103.27,546.0,0.61,0.85,-0.11,0.68,-0.94,3.79
2024-12-06 13:36:51.492,101.7,534.0,0.62,0.84,-0.11,-0.11,1.32,4.77
2024-12-06 13:36:51.494,101.25,538.0,0.61,0.82,-0.11,-0.6,2.36,5.2
2024-12-06 13:36:51.499,101.7,527.0,0.61,0.79,-0.11,-0.66,2.17,4.83
2024-12-06 13:36:51.509,104.62,525.0,0.6,0.8,-0.11,-0.3,0.71,4.34
2024-12-06 13:36:51.515,101.92,535.0,0.61,0.78,-0.11,-0.3,0.71,4.34
2024-12-06 13:36:51.523,101.47,524.0,0.62,0.78,-0.1,0.01,-0.15,4.16
2024-12-06 13:36:51.532,103.05,530.0,0.63,0.77,-0.1,0.25,0.71,4.16
2024-12-06 13:36:51.539,103.05,518.0,0.64,0.76,-0.09,0.62,2.6,4.46
2024-12-06 13:36:51.578,100.57,526.0,0.63,0.73,-0.11,1.96,1.93,3.37
2024-12-06 13:36:51.580,97.2,509.0,0.64,0.74,-0.11,2.94,1.74,3.37
2024-12-06 13:36:51.587,95.85,523.0,0.64,0.76,-0.1,3.3,1.26,4.1
2024-12-06 13:36:51.594,94.27,544.0,0.64,0.76,-0.1,3.67,1.07,4.34
2024-12-06 13:36:51.601,95.85,530.0,0.63,0.73,-0.1,4.59,-0.33,3.49
2024-12-06 13:36:51.611,92.47,519.0,0.62,0.71,-0.11,4.59,-0.33,3.49
2024-12-06 13:36:51.618,96.52,529.0,0.63,0.74,-0.12,4.95,-1.86,3.18
2024-12-06 13:36:51.642,96.07,561.0,0.62,0.77,-0.12,5.38,-1.49,4.28
2024-12-06 13:36:51.646,89.1,515.0,0.62,0.77,-0.12,5.62,-1.67,5.81
2024-12-06 13:36:51.653,92.02,535.0,0.61,0.8,-0.12,5.62,-1.18,6.91
2024-12-06 13:36:51.662,87.75,533.0,0.61,0.77,-0.12,5.62,-1.18,6.91
2024-12-06 13:36:51.665,93.15,528.0,0.63,0.76,-0.12,6.29,-0.21,6.91
2024-12-06 13:36:51.675,83.47,530.0,0.64,0.77,-0.11,6.54,-0.21,6.84
2024-12-06 13:36:51.689,90.45,534.0,0.65,0.75,-0.1,6.48,-0.51,6.66
2024-12-06 13:36:51.693,83.7,523.0,0.65,0.75,-0.1,6.54,-0.15,5.68
2024-12-06 13:36:51.705,89.32,533.0,0.66,0.73,-0.11,6.42,-0.39,5.01
2024-12-06 13:36:51.707,84.15,567.0,0.67,0.75,-0.11,6.42,-0.39,5.01
2024-12-06 13:36:51.718,81.22,532.0,0.65,0.76,-0.11,5.99,-0.7,4.89
2024-12-06 13:36:51.727,83.7,516.0,0.64,0.78,-0.12,5.62,-3.99,4.89
2024-12-06 13:36:51.734,78.97,547.0,0.63,0.78,-0.12,5.32,-3.75,6.6
2024-12-06 13:36:51.742,80.32,547.0,0.63,0.76,-0.12,5.32,-3.75,6.6
2024-12-06 13:36:51.751,82.57,542.0,0.67,0.7,-0.12,5.68,-2.77,5.32
2024-12-06 13:36:51.764,79.65,541.0,0.68,0.73,-0.11,4.28,-2.1,3.85
2024-12-06 13:36:51.771,80.1,531.0,0.64,0.76,-0.11,4.52,0.1,4.89
2024-12-06 13:36:51.778,82.57,536.0,0.64,0.73,-0.12,4.4,0.95,5.07
2024-12-06 13:36:51.789,82.12,549.0,0.64,0.73,-0.12,4.65,0.34,5.32
2024-12-06 13:36:51.792,82.12,549.0,0.65,0.73,-0.12,4.65,0.34,5.38
2024-12-06 13:36:51.797,81.67,540.0,0.65,0.72,-0.12,4.52,-0.7,5.38
2024-12-06 13:36:51.805,80.78,545.0,0.65,0.71,-0.12,4.83,-1.0,5.26
2024-12-06 13:36:51.822,77.17,551.0,0.66,0.72,-0.12,5.07,0.1,5.38
2024-12-06 13:36:51.825,76.05,535.0,0.66,0.74,-0.11,5.01,0.28,5.68
2024-12-06 13:36:51.828,71.32,537.0,0.66,0.74,-0.11,5.14,0.22,5.81
2024-12-06 13:36:51.836,75.82,530.0,0.65,0.73,-0.12,5.14,0.22,5.81
2024-12-06 13:36:51.844,74.92,547.0,0.65,0.72,-0.12,5.38,0.95,5.56
2024-12-06 13:36:51.883,73.8,551.0,0.64,0.72,-0.14,6.72,1.99,5.07
2024-12-06 13:36:51.885,74.25,570.0,0.65,0.73,-0.14,7.21,1.99,5.07
2024-12-06 13:36:51.894,71.55,553.0,0.64,0.74,-0.14,7.15,1.87,5.5
2024-12-06 13:36:51.900,69.53,540.0,0.64,0.73,-0.13,7.27,1.32,5.68
2024-12-06 13:36:51.907,70.88,549.0,0.64,0.73,-0.13,7.15,0.16,5.87
2024-12-06 13:36:51.913,69.97,564.0,0.65,0.71,-0.13,6.36,-0.09,6.29
2024-12-06 13:36:51.921,72.67,559.0,0.66,0.72,-0.13,6.36,-0.09,6.29
2024-12-06 13:36:51.930,70.65,546.0,0.66,0.72,-0.13,5.62,0.52,6.72
2024-12-06 13:36:51.937,69.75,562.0,0.65,0.72,-0.12,5.07,-0.45,6.72
2024-12-06 13:36:51.945,67.28,551.0,0.65,0.73,-0.12,4.16,-1.0,6.72
2024-12-06 13:36:51.953,67.72,548.0,0.65,0.72,-0.12,3.43,-1.18,6.6
2024-12-06 13:36:51.961,63.22,585.0,0.65,0.72,-0.12,3.18,-1.49,6.36
2024-12-06 13:36:51.971,67.28,553.0,0.66,0.72,-0.12,3.18,-1.49,6.36
2024-12-06 13:36:51.982,63.9,547.0,0.66,0.73,-0.12,2.82,-1.18,6.36
2024-12-06 13:36:52.22,62.32,558.0,0.66,0.73,-0.12,2.69,-0.94,6.11
2024-12-06 13:36:52.26,60.52,553.0,0.66,0.71,-0.12,2.21,-1.61,5.87
2024-12-06 13:36:52.30,62.77,554.0,0.66,0.73,-0.12,1.6,-1.37,6.05
2024-12-06 13:36:52.44,56.92,557.0,0.66,0.73,-0.13,1.35,-1.61,5.87
2024-12-06 13:36:52.49,56.92,560.0,0.66,0.72,-0.13,1.53,-1.49,5.68
2024-12-06 13:36:52.53,56.02,554.0,0.66,0.72,-0.14,1.53,-1.49,5.68
2024-12-06 13:36:52.61,55.35,578.0,0.67,0.74,-0.14,1.23,-0.21,5.87
2024-12-06 13:36:52.72,55.35,552.0,0.66,0.73,-0.14,1.41,-0.27,5.75
2024-12-06 13:36:52.80,55.57,576.0,0.66,0.73,-0.14,1.84,-0.64,5.81
2024-12-06 13:36:52.87,56.47,566.0,0.66,0.73,-0.14,1.72,-0.09,6.17
2024-12-06 13:36:52.97,54.22,564.0,0.66,0.74,-0.13,2.02,-1.25,5.99
2024-12-06 13:36:52.100,52.65,566.0,0.65,0.72,-0.13,2.02,-1.25,5.99
2024-12-06 13:36:52.109,55.35,580.0,0.66,0.73,-0.14,2.21,-1.49,5.87
2024-12-06 13:36:52.116,56.47,573.0,0.66,0.73,-0.14,2.02,-0.21,6.11
2024-12-06 13:36:52.124,53.55,575.0,0.65,0.72,-0.14,2.45,-0.94,5.68
2024-12-06 13:36:52.135,40.5,582.0,0.65,0.72,-0.15,2.57,-0.51,5.75
2024-12-06 13:36:52.146,54.22,570.0,0.67,0.73,-0.15,2.39,0.28,6.05
2024-12-06 13:36:52.148,52.65,559.0,0.66,0.74,-0.15,2.39,0.28,6.05
2024-12-06 13:36:52.154,49.05,582.0,0.66,0.73,-0.14,2.82,-0.33,5.56
2024-12-06 13:36:52.164,45.0,588.0,0.68,0.73,-0.15,2.75,0.83,5.62
2024-12-06 13:36:52.172,50.85,568.0,0.66,0.72,-0.14,2.57,1.68,5.87
2024-12-06 13:36:52.178,45.0,569.0,0.66,0.72,-0.14,3.18,-0.27,5.44
2024-12-06 13:36:52.186,46.57,581.0,0.65,0.71,-0.14,3.18,-0.27,5.56
2024-12-06 13:36:52.194,47.02,579.0,0.67,0.72,-0.15,3.18,-0.09,5.56
2024-12-06 13:36:52.202,41.4,581.0,0.65,0.73,-0.15,3.06,0.16,5.81
2024-12-06 13:36:52.210,46.12,567.0,0.66,0.72,-0.14,3.55,-1.31,5.56
2024-12-06 13:36:52.217,45.45,573.0,0.68,0.73,-0.16,3.12,-0.27,5.81
2024-12-06 13:36:52.264,40.27,583.0,0.66,0.73,-0.14,2.75,-0.82,5.07
2024-12-06 13:36:52.266,37.8,595.0,0.66,0.73,-0.14,3.0,-2.22,4.71
2024-12-06 13:36:52.272,39.6,575.0,0.67,0.72,-0.15,3.0,-2.22,4.71
2024-12-06 13:36:52.278,37.58,576.0,0.68,0.73,-0.15,2.63,-0.76,4.95
2024-12-06 13:36:52.297,36.9,570.0,0.66,0.72,-0.14,2.57,-0.82,4.77
2024-12-06 13:36:52.392,28.8,565.0,0.68,0.69,-0.15,3.73,2.11,5.2
2024-12-06 13:36:52.403,26.77,569.0,0.68,0.7,-0.15,3.24,3.03,5.32
2024-12-06 13:36:52.414,28.12,579.0,0.67,0.69,-0.13,3.3,0.89,4.83
2024-12-06 13:36:52.422,27.0,551.0,0.67,0.69,-0.15,3.37,-0.33,4.46
2024-12-06 13:36:52.431,27.22,585.0,0.69,0.69,-0.15,2.94,0.1,4.59
2024-12-06 13:36:52.434,25.65,570.0,0.7,0.7,-0.15,2.94,0.1,4.59
2024-12-06 13:36:52.438,26.55,560.0,0.69,0.69,-0.14,2.82,-1.49,4.65
2024-12-06 13:36:52.446,29.25,559.0,0.69,0.69,-0.15,2.82,-3.02,4.28
2024-12-06 13:36:52.454,29.92,568.0,0.7,0.69,-0.16,2.63,-2.34,4.28
2024-12-06 13:36:52.496,24.75,580.0,0.68,0.68,-0.15,2.51,-2.1,4.65
2024-12-06 13:36:52.503,26.1,557.0,0.68,0.68,-0.16,2.39,-1.18,4.65
2024-12-06 13:36:52.507,22.72,558.0,0.68,0.68,-0.15,2.33,-0.88,4.52
2024-12-06 13:36:52.513,21.82,576.0,0.68,0.68,-0.15,2.45,-1.55,4.28
2024-12-06 13:36:52.517,22.5,574.0,0.67,0.67,-0.15,2.45,-1.55,4.28
2024-12-06 13:36:52.523,22.05,557.0,0.68,0.67,-0.16,2.63,-1.67,4.04
2024-12-06 13:36:52.531,21.6,563.0,0.68,0.68,-0.16,2.45,-0.27,4.1
2024-12-06 13:36:52.546,19.57,559.0,0.68,0.69,-0.16,2.27,-0.03,4.16
2024-12-06 13:36:52.548,20.48,560.0,0.68,0.69,-0.15,2.14,-0.76,3.98
2024-12-06 13:36:52.554,19.57,567.0,0.67,0.68,-0.15,1.96,-1.49,3.55
2024-12-06 13:36:52.587,19.35,569.0,0.68,0.67,-0.16,0.98,-0.51,2.63
2024-12-06 13:36:52.596,17.32,562.0,0.68,0.67,-0.16,0.86,-2.22,2.33
2024-12-06 13:36:52.600,17.77,556.0,0.67,0.67,-0.15,0.86,-2.22,2.33
2024-12-06 13:36:52.609,16.42,570.0,0.68,0.67,-0.17,0.8,-3.26,2.14
2024-12-06 13:36:52.622,18.0,563.0,0.68,0.67,-0.17,0.44,-2.34,2.51
2024-12-06 13:36:52.627,17.77,566.0,0.68,0.68,-0.16,0.31,-1.55,2.88
2024-12-06 13:36:52.632,13.27,532.0,0.67,0.68,-0.16,0.5,-2.34,2.94
2024-12-06 13:36:52.640,13.05,561.0,0.67,0.68,-0.16,0.62,-3.38,2.75
2024-12-06 13:36:52.648,11.47,540.0,0.67,0.68,-0.17,0.62,-3.38,2.63
2024-12-06 13:36:52.660,12.82,542.0,0.68,0.69,-0.17,0.37,-3.02,2.63
2024-12-06 13:36:52.667,12.38,545.0,0.68,0.7,-0.16,0.01,-1.73,2.51
2024-12-06 13:36:52.674,11.92,553.0,0.67,0.7,-0.15,-0.42,-1.37,2.21
2024-12-06 13:36:52.680,12.38,549.0,0.67,0.7,-0.16,-0.42,-1.86,1.53
2024-12-06 13:36:52.711,11.7,559.0,0.7,0.72,-0.17,-0.6,1.74,3.0
2024-12-06 13:36:52.721,9.22,547.0,0.69,0.72,-0.16,-0.42,1.07,3.55
2024-12-06 13:36:52.725,7.65,547.0,0.69,0.72,-0.16,-0.6,1.13,3.98
2024-12-06 13:36:52.741,9.68,538.0,0.7,0.72,-0.16,-0.6,1.13,4.28
2024-12-06 13:36:52.743,4.95,545.0,0.71,0.71,-0.16,-0.79,1.74,4.28
2024-12-06 13:36:52.750,8.1,553.0,0.7,0.69,-0.14,-0.91,1.56,4.1
2024-12-06 13:36:52.756,9.9,541.0,0.69,0.68,-0.15,-0.91,0.4,3.3
2024-12-06 13:36:52.768,7.65,547.0,0.69,0.68,-0.17,-0.85,0.22,2.51
2024-12-06 13:36:52.777,6.3,556.0,0.7,0.67,-0.17,-0.72,1.2,2.27
2024-12-06 13:36:52.781,4.05,581.0,0.7,0.66,-0.17,-0.72,1.2,2.27
2024-12-06 13:36:52.813,6.97,551.0,0.7,0.68,-0.18,0.92,-3.63,3.73
2024-12-06 13:36:52.821,3.15,549.0,0.7,0.68,-0.19,0.92,-3.63,3.73
2024-12-06 13:36:52.828,2.25,558.0,0.7,0.68,-0.18,1.17,-3.75,3.73
2024-12-06 13:36:52.836,2.92,546.0,0.71,0.68,-0.18,1.41,-3.14,3.61
2024-12-06 13:36:52.842,0.67,550.0,0.71,0.68,-0.18,1.41,-2.16,3.49
2024-12-06 13:36:52.853,1.12,540.0,0.71,0.68,-0.18,1.47,-1.73,3.24
2024-12-06 13:36:52.856,-0.67,563.0,0.71,0.68,-0.18,1.6,-1.61,3.18
2024-12-06 13:36:52.868,4.05,562.0,0.7,0.69,-0.18,1.6,-1.61,3.18
2024-12-06 13:36:52.874,-1.12,541.0,0.7,0.68,-0.18,1.78,-1.43,3.3
2024-12-06 13:36:52.880,4.72,548.0,0.69,0.68,-0.17,1.84,-1.06,3.49
2024-12-06 13:36:52.889,-0.67,542.0,0.69,0.69,-0.17,2.02,-0.57,3.67
2024-12-06 13:36:52.923,3.6,540.0,0.65,0.66,-0.18,2.94,-7.23,0.44
2024-12-06 13:36:52.926,-1.35,553.0,0.71,0.68,-0.2,2.51,-2.53,-0.6
2024-12-06 13:36:52.933,1.8,545.0,0.71,0.68,-0.2,3.61,-0.88,-0.85
2024-12-06 13:36:52.944,0.9,558.0,0.71,0.69,-0.16,3.61,-0.88,-0.48
2024-12-06 13:36:52.955,-0.22,553.0,0.71,0.7,-0.17,4.16,0.52,-0.48
2024-12-06 13:36:52.958,-4.95,538.0,0.7,0.71,-0.17,4.16,0.4,0.25
2024-12-06 13:36:52.963,-0.45,539.0,0.69,0.7,-0.16,4.52,-1.0,0.8
2024-12-06 13:36:52.971,-0.67,545.0,0.69,0.7,-0.16,4.65,-1.73,0.8
2024-12-06 13:36:52.986,-4.5,542.0,0.69,0.69,-0.17,4.52,-1.73,0.37
2024-12-06 13:36:52.992,0.22,537.0,0.7,0.68,-0.18,4.52,-1.73,0.37
2024-12-06 13:36:53.1,-2.92,543.0,0.71,0.68,-0.19,4.34,-1.31,-0.11
2024-12-06 13:36:53.4,-3.6,555.0,0.7,0.68,-0.18,3.91,-1.8,-0.48
2024-12-06 13:36:53.11,-4.05,549.0,0.69,0.68,-0.17,3.3,-3.02,-0.66
2024-12-06 13:36:53.38,-0.22,553.0,0.67,0.67,-0.18,1.9,-3.99,-0.66
2024-12-06 13:36:53.42,-1.35,561.0,0.67,0.67,-0.19,1.41,-3.32,-0.6
2024-12-06 13:36:53.49,1.35,556.0,0.67,0.67,-0.19,1.05,-2.71,-0.36
2024-12-06 13:36:53.57,1.57,549.0,0.67,0.67,-0.19,0.8,-1.8,0.07
2024-12-06 13:36:53.63,-1.8,533.0,0.66,0.67,-0.19,0.8,-1.8,0.07
2024-12-06 13:36:53.71,-5.85,542.0,0.66,0.68,-0.19,0.68,-0.7,0.37
2024-12-06 13:36:53.79,1.35,547.0,0.66,0.68,-0.19,0.62,0.4,0.68
2024-12-06 13:36:53.87,-1.57,570.0,0.67,0.68,-0.18,0.62,1.2,0.98
2024-12-06 13:36:53.95,-4.05,537.0,0.68,0.68,-0.18,0.56,1.68,1.17
2024-12-06 13:36:53.102,2.92,550.0,0.68,0.68,-0.18,0.44,1.81,1.11
2024-12-06 13:36:53.112,-4.5,550.0,0.68,0.68,-0.18,0.44,1.81,1.11
2024-12-06 13:36:53.120,-4.95,542.0,0.69,0.68,-0.18,0.25,1.2,0.98
2024-12-06 13:36:53.155,-3.38,545.0,0.7,0.67,-0.18,-0.66,-0.03,-0.36
2024-12-06 13:36:53.157,-1.57,551.0,0.7,0.67,-0.18,-0.72,0.46,-0.36
2024-12-06 13:36:53.163,1.35,537.0,0.7,0.67,-0.18,-0.6,0.52,-0.24
2024-12-06 13:36:53.173,-0.22,550.0,0.69,0.68,-0.17,-0.6,-0.33,-0.11
2024-12-06 13:36:53.179,-0.9,555.0,0.69,0.68,-0.17,-0.6,-1.18,0.13
2024-12-06 13:36:53.187,-2.47,546.0,0.69,0.68,-0.18,-0.54,-1.25,0.31
2024-12-06 13:36:53.195,1.8,543.0,0.69,0.68,-0.18,-0.54,-1.25,0.31
2024-12-06 13:36:53.203,-5.4,546.0,0.69,0.68,-0.19,-0.54,-0.76,0.37
2024-12-06 13:36:53.216,0.0,543.0,0.69,0.68,-0.19,-0.54,-0.21,0.31
2024-12-06 13:36:53.222,1.57,556.0,0.69,0.68,-0.19,-0.48,0.04,0.31
2024-12-06 13:36:53.231,0.45,542.0,0.69,0.68,-0.19,-0.42,-0.09,0.31
2024-12-06 13:36:53.234,-0.9,546.0,0.69,0.68,-0.19,-0.36,-0.76,0.31
2024-12-06 13:36:53.244,-3.6,542.0,0.7,0.68,-0.18,-0.36,-0.76,0.31
2024-12-06 13:36:53.249,-1.8,551.0,0.69,0.68,-0.19,-0.36,-1.25,0.25
2024-12-06 13:36:53.257,-5.4,553.0,0.69,0.69,-0.19,-0.3,-1.25,0.13
2024-12-06 13:36:53.273,-4.72,543.0,0.69,0.69,-0.2,-0.24,-0.76,0.01
2024-12-06 13:36:53.275,-1.35,531.0,0.69,0.69,-0.2,-0.11,0.04,-0.17
2024-12-06 13:36:53.280,-0.67,540.0,0.68,0.69,-0.2,-0.11,0.04,-0.17
2024-12-06 13:36:53.288,-4.28,538.0,0.68,0.69,-0.2,0.01,0.71,-0.17
2024-12-06 13:36:53.296,-1.8,560.0,0.68,0.69,-0.19,0.13,0.77,0.01
2024-12-06 13:36:53.304,-2.7,544.0,0.68,0.69,-0.19,0.19,0.28,0.31
2024-12-06 13:36:53.311,1.8,563.0,0.68,0.69,-0.19,0.25,-0.03,0.56
2024-12-06 13:36:53.319,-0.22,561.0,0.68,0.69,-0.19,0.37,0.34,0.68
2024-12-06 13:36:53.329,-0.9,548.0,0.68,0.69,-0.19,0.37,0.34,0.68
2024-12-06 13:36:53.337,-1.8,559.0,0.68,0.69,-0.19,0.62,0.95,0.62
2024-12-06 13:36:53.343,0.22,561.0,0.69,0.69,-0.2,0.86,1.01,0.62
2024-12-06 13:36:53.452,1.57,579.0,0.68,0.69,-0.19,2.02,0.59,0.86
2024-12-06 13:36:53.461,-0.45,552.0,0.68,0.69,-0.19,1.96,0.95,0.92
2024-12-06 13:36:53.463,2.25,555.0,0.68,0.68,-0.19,1.84,1.38,0.8
2024-12-06 13:36:53.472,-1.8,544.0,0.68,0.68,-0.19,1.78,1.56,0.74
2024-12-06 13:36:53.480,-4.5,542.0,0.69,0.68,-0.19,1.78,1.56,0.68
2024-12-06 13:36:53.487,-0.67,556.0,0.69,0.68,-0.19,1.66,1.44,0.68
2024-12-06 13:36:53.496,-2.25,558.0,0.69,0.68,-0.19,1.66,1.13,0.68
2024-12-06 13:36:53.503,-3.38,544.0,0.69,0.68,-0.19,1.6,0.71,0.74
2024-12-06 13:36:53.510,0.45,541.0,0.69,0.68,-0.19,1.47,0.4,0.74
2024-12-06 13:36:53.518,-4.28,562.0,0.69,0.68,-0.19,1.35,0.34,0.5
2024-12-06 13:36:53.525,1.12,554.0,0.69,0.68,-0.19,1.35,0.34,0.5
2024-12-06 13:36:53.538,-0.9,549.0,0.69,0.68,-0.19,1.29,0.71,0.37
2024-12-06 13:36:53.541,-2.25,556.0,0.69,0.68,-0.19,1.23,0.95,0.37
2024-12-06 13:36:53.549,-1.57,545.0,0.69,0.68,-0.18,1.17,0.95,0.5
2024-12-06 13:36:53.556,1.35,551.0,0.69,0.68,-0.18,1.11,0.71,0.62
2024-12-06 13:36:53.565,-0.9,553.0,0.69,0.68,-0.18,1.05,0.52,0.92
2024-12-06 13:36:53.572,2.02,551.0,0.69,0.68,-0.18,1.05,0.52,0.92
2024-12-06 13:36:53.600,-3.15,547.0,0.69,0.67,-0.19,1.05,1.2,0.62
2024-12-06 13:36:53.608,-3.38,559.0,0.69,0.67,-0.19,1.05,1.68,0.44
2024-12-06 13:36:53.612,1.8,552.0,0.69,0.67,-0.19,1.05,1.68,0.44
2024-12-06 13:36:53.620,0.45,553.0,0.69,0.67,-0.19,1.11,1.62,0.5
2024-12-06 13:36:53.627,4.5,551.0,0.69,0.68,-0.19,1.05,1.01,0.74
2024-12-06 13:36:53.633,0.45,545.0,0.69,0.69,-0.19,0.86,0.4,1.11
2024-12-06 13:36:53.641,-3.82,541.0,0.69,0.69,-0.19,0.68,-0.15,1.35
2024-12-06 13:36:53.648,0.67,539.0,0.7,0.69,-0.19,0.68,-0.15,1.35
2024-12-06 13:36:53.656,-1.35,542.0,0.7,0.68,-0.19,0.62,-0.15,1.53
2024-12-06 13:36:53.664,-2.25,554.0,0.7,0.68,-0.19,0.56,0.28,1.47
2024-12-06 13:36:53.672,-2.25,543.0,0.7,0.67,-0.19,0.56,0.46,1.23
2024-12-06 13:36:53.680,-1.8,553.0,0.7,0.67,-0.19,0.5,0.04,0.98
2024-12-06 13:36:53.693,-2.92,549.0,0.7,0.67,-0.19,0.5,-0.45,0.92
2024-12-06 13:36:53.698,0.9,535.0,0.7,0.68,-0.19,0.5,-0.45,0.92
2024-12-06 13:36:53.704,-0.45,540.0,0.69,0.68,-0.19,0.44,-0.64,1.05
2024-12-06 13:36:53.711,-3.6,537.0,0.69,0.69,-0.19,0.31,-0.64,1.23
2024-12-06 13:36:53.722,0.0,544.0,0.69,0.69,-0.19,0.13,-0.64,1.41
2024-12-06 13:36:53.732,-2.02,546.0,0.69,0.69,-0.22,0.07,-0.39,1.47
2024-12-06 13:36:53.736,-7.65,555.0,0.69,0.68,-0.19,0.13,0.04,1.53
2024-12-06 13:36:53.742,-2.7,545.0,0.69,0.68,-0.19,0.13,0.04,1.53
2024-12-06 13:36:53.750,0.9,536.0,0.68,0.68,-0.19,0.19,0.71,1.47
2024-12-06 13:36:53.760,0.22,537.0,0.68,0.68,-0.19,0.25,1.01,1.41
2024-12-06 13:36:53.766,-0.9,541.0,0.68,0.68,-0.18,0.37,0.95,1.35
2024-12-06 13:36:53.774,0.67,590.0,0.69,0.68,-0.19,0.44,0.71,1.41
2024-12-06 13:36:53.784,1.57,545.0,0.69,0.68,-0.19,0.44,0.34,1.47
2024-12-06 13:36:53.789,-2.25,533.0,0.69,0.68,-0.19,0.44,0.34,1.47
2024-12-06 13:36:53.799,-2.7,560.0,0.69,0.68,-0.19,0.31,0.22,1.35
2024-12-06 13:36:53.830,-4.5,553.0,0.68,0.68,-0.19,-0.11,0.46,0.74
2024-12-06 13:36:53.838,-3.15,553.0,0.68,0.68,-0.19,-0.17,0.34,0.62
2024-12-06 13:36:53.843,-3.6,543.0,0.69,0.69,-0.19,-0.17,0.22,0.68
2024-12-06 13:36:53.854,-2.7,558.0,0.68,0.69,-0.19,-0.05,0.28,0.74
2024-12-06 13:36:53.862,-4.95,555.0,0.68,0.69,-0.19,0.07,0.4,0.68
2024-12-06 13:36:53.866,-4.95,551.0,0.68,0.69,-0.19,0.07,0.52,0.56
2024-12-06 13:36:53.874,-0.22,552.0,0.69,0.69,-0.19,0.07,0.52,0.56
2024-12-06 13:36:53.882,-2.47,565.0,0.69,0.69,-0.19,0.13,0.52,0.5
2024-12-06 13:36:53.889,0.67,541.0,0.69,0.69,-0.19,0.13,0.4,0.44
2024-12-06 13:36:53.899,0.9,545.0,0.69,0.69,-0.19,0.25,0.28,0.5
2024-12-06 13:36:53.906,-0.67,586.0,0.69,0.69,-0.19,0.25,0.22,0.44
2024-12-06 13:36:53.916,-1.12,561.0,0.69,0.69,-0.19,0.25,0.22,0.44
