Timestamp,PosIsDeg,ForceIs,AccX,AccY,AccZ,GyroX,GyroY,GyroZ
2024-12-06 13:34:41.319,41.4,504.0,0.55,0.8,-0.22,0.8,0.52,1.6
2024-12-06 13:34:41.322,32.4,501.0,0.56,0.81,-0.21,0.56,0.71,1.72
2024-12-06 13:34:41.339,33.3,503.0,0.58,0.85,-0.26,-4.02,3.39,10.32
2024-12-06 13:34:41.366,28.12,518.0,0.6,0.82,-0.24,-0.6,-0.15,14.35
2024-12-06 13:34:41.393,27.9,499.0,0.56,0.74,-0.21,-0.66,-0.03,11.91
2024-12-06 13:34:41.435,26.55,499.0,0.52,0.74,-0.21,0.37,-2.95,8.0
2024-12-06 13:34:41.449,26.1,500.0,0.49,0.76,-0.22,1.53,-0.76,6.23
2024-12-06 13:34:41.478,26.32,494.0,0.49,0.75,-0.2,2.27,3.51,3.79
2024-12-06 13:34:41.506,21.38,513.0,0.55,0.77,-0.21,2.82,4.06,-0.42
2024-12-06 13:34:41.541,24.3,494.0,0.59,0.8,-0.23,3.37,1.81,-0.72
2024-12-06 13:34:41.560,17.77,498.0,0.57,0.8,-0.23,2.75,1.01,-0.97
2024-12-06 13:34:41.591,20.02,507.0,0.57,0.79,-0.22,1.66,1.26,0.07
2024-12-06 13:34:41.617,21.38,511.0,0.55,0.77,-0.2,1.41,1.68,0.19
2024-12-06 13:34:41.654,18.45,505.0,0.57,0.76,-0.21,1.29,2.17,0.01
2024-12-06 13:34:41.670,15.97,509.0,0.58,0.77,-0.21,1.47,2.23,0.98
2024-12-06 13:34:41.698,18.9,489.0,0.59,0.77,-0.23,1.66,1.87,2.02
2024-12-06 13:34:41.732,11.47,505.0,0.61,0.77,-0.23,2.27,1.81,4.22
2024-12-06 13:34:41.762,12.6,508.0,0.61,0.78,-0.22,2.57,2.17,7.27
2024-12-06 13:34:41.781,10.57,512.0,0.62,0.8,-0.21,3.0,2.78,9.16
2024-12-06 13:34:41.811,7.88,507.0,0.63,0.82,-0.22,4.22,3.76,11.91
2024-12-06 13:34:41.835,11.92,519.0,0.59,0.8,-0.25,6.91,4.61,12.09
2024-12-06 13:34:41.875,6.07,524.0,0.57,0.78,-0.22,8.37,2.36,10.32
2024-12-06 13:34:41.893,6.07,516.0,0.54,0.76,-0.22,8.13,1.56,8.68
2024-12-06 13:34:41.919,9.45,508.0,0.49,0.73,-0.24,6.84,2.72,7.15
2024-12-06 13:34:41.946,9.45,503.0,0.53,0.74,-0.22,5.14,4.06,4.83
2024-12-06 13:34:41.977,4.5,503.0,0.57,0.75,-0.22,3.79,3.7,4.1
2024-12-06 13:34:42.2,6.07,514.0,0.61,0.75,-0.2,2.14,1.87,3.55
2024-12-06 13:34:42.29,3.15,492.0,0.63,0.75,-0.21,0.5,0.89,4.52
2024-12-06 13:34:42.57,3.38,506.0,0.63,0.74,-0.21,-0.54,0.52,6.72
2024-12-06 13:34:42.108,2.7,506.0,0.61,0.73,-0.22,-0.85,-0.27,6.36
2024-12-06 13:34:42.128,2.92,516.0,0.61,0.73,-0.22,-1.21,-0.33,5.87
2024-12-06 13:34:43.557,-2.25,496.0,0.6,0.75,-0.23,-0.79,4.0,-0.36
2024-12-06 13:34:43.561,0.67,506.0,0.61,0.76,-0.23,-0.91,4.06,0.25
2024-12-06 13:34:43.581,2.02,513.0,0.61,0.76,-0.22,-1.15,4.31,0.92
2024-12-06 13:34:43.584,0.9,503.0,0.61,0.76,-0.22,-1.15,4.31,0.92
2024-12-06 13:34:43.596,-0.45,517.0,0.61,0.76,-0.21,-1.27,4.19,1.05
2024-12-06 13:34:43.601,-5.85,516.0,0.61,0.75,-0.21,-1.4,4.13,1.11
2024-12-06 13:34:43.612,1.57,504.0,0.61,0.75,-0.21,-1.46,3.58,1.11
2024-12-06 13:34:43.620,2.92,501.0,0.61,0.75,-0.21,-1.7,2.72,1.05
2024-12-06 13:34:43.625,-2.7,505.0,0.61,0.75,-0.21,-1.88,1.93,0.86
2024-12-06 13:34:43.643,-0.22,516.0,0.6,0.74,-0.22,-1.82,0.89,0.37
2024-12-06 13:34:43.647,-2.47,507.0,0.61,0.74,-0.22,-1.88,0.65,0.19
2024-12-06 13:34:43.655,-1.35,507.0,0.6,0.74,-0.2,-2.13,0.95,0.37
2024-12-06 13:34:43.689,0.45,499.0,0.59,0.74,-0.21,-1.88,-1.49,-0.97
2024-12-06 13:34:43.692,-1.12,495.0,0.59,0.75,-0.22,-1.82,-1.73,-1.46
2024-12-06 13:34:43.700,-2.02,505.0,0.59,0.75,-0.22,-1.7,-1.31,-1.82
2024-12-06 13:34:43.708,3.6,509.0,0.59,0.75,-0.22,-1.58,-1.61,-2.31
2024-12-06 13:34:43.716,0.9,514.0,0.58,0.75,-0.22,-1.58,-1.61,-2.31
2024-12-06 13:34:43.726,2.25,509.0,0.59,0.75,-0.23,-1.46,-1.25,-2.68
2024-12-06 13:34:43.744,1.57,503.0,0.59,0.75,-0.23,-1.27,-1.12,-2.62
2024-12-06 13:34:43.746,0.0,515.0,0.59,0.76,-0.23,-1.4,0.1,-2.31
2024-12-06 13:34:43.751,-0.9,519.0,0.59,0.76,-0.23,-1.33,1.07,-2.01
2024-12-06 13:34:43.755,2.47,558.0,0.58,0.76,-0.22,-1.33,1.07,-1.7
2024-12-06 13:34:43.763,2.25,515.0,0.58,0.76,-0.22,-1.4,1.2,-1.7
2024-12-06 13:34:43.770,3.82,524.0,0.59,0.76,-0.22,-1.52,1.68,-1.52
2024-12-06 13:34:43.778,3.6,511.0,0.58,0.75,-0.22,-1.4,1.93,-1.52
2024-12-06 13:34:43.789,6.75,507.0,0.59,0.75,-0.22,-1.03,1.99,-1.82
2024-12-06 13:34:43.797,4.5,515.0,0.59,0.75,-0.22,-1.09,2.48,-1.88
2024-12-06 13:34:43.803,2.25,523.0,0.6,0.76,-0.22,-1.09,2.48,-1.82
2024-12-06 13:34:43.810,6.3,516.0,0.6,0.76,-0.21,-0.97,2.6,-1.82
2024-12-06 13:34:43.818,5.85,550.0,0.6,0.76,-0.21,-0.97,2.78,-1.88
2024-12-06 13:34:43.829,5.4,508.0,0.6,0.76,-0.2,-0.97,1.81,-2.07
2024-12-06 13:34:43.834,6.52,522.0,0.59,0.75,-0.21,-1.03,0.71,-2.56
2024-12-06 13:34:43.841,6.52,510.0,0.59,0.75,-0.21,-1.03,-0.03,-2.98
2024-12-06 13:34:43.853,5.17,507.0,0.59,0.75,-0.21,-1.03,0.1,-3.23
2024-12-06 13:34:43.859,8.55,545.0,0.6,0.76,-0.22,-1.03,0.1,-3.23
2024-12-06 13:34:43.865,10.12,511.0,0.6,0.76,-0.22,-1.09,0.52,-3.23
2024-12-06 13:34:43.873,10.12,571.0,0.59,0.76,-0.22,-1.09,0.46,-3.23
2024-12-06 13:34:43.886,7.88,515.0,0.58,0.76,-0.21,-1.27,0.52,-2.98
2024-12-06 13:34:43.889,11.92,511.0,0.58,0.76,-0.21,-1.33,0.71,-2.68
2024-12-06 13:34:43.898,9.0,513.0,0.59,0.76,-0.21,-1.33,0.71,-2.37
2024-12-06 13:34:43.906,11.02,511.0,0.59,0.76,-0.21,-1.4,0.52,-2.37
2024-12-06 13:34:43.912,0.22,530.0,0.59,0.76,-0.21,-1.64,0.95,-2.01
2024-12-06 13:34:43.920,11.7,524.0,0.6,0.76,-0.21,-1.76,1.13,-1.76
2024-12-06 13:34:43.961,10.57,514.0,0.6,0.77,-0.21,-1.7,1.38,-1.03
2024-12-06 13:34:43.963,12.82,520.0,0.6,0.77,-0.22,-1.58,1.13,-0.85
2024-12-06 13:34:43.967,13.27,518.0,0.6,0.78,-0.21,-1.64,1.32,-0.6
2024-12-06 13:34:43.975,9.45,529.0,0.6,0.78,-0.21,-1.82,1.99,-0.3
2024-12-06 13:34:43.982,11.02,533.0,0.6,0.78,-0.21,-1.82,1.99,-0.3
2024-12-06 13:34:43.989,13.27,530.0,0.6,0.77,-0.2,-1.82,2.11,-0.24
2024-12-06 13:34:43.998,13.95,518.0,0.6,0.77,-0.2,-2.01,1.81,-0.05
2024-12-06 13:34:44.11,11.92,522.0,0.6,0.77,-0.2,-2.01,1.56,0.13
2024-12-06 13:34:44.19,15.75,526.0,0.6,0.77,-0.21,-1.82,1.5,0.25
2024-12-06 13:34:44.25,16.88,552.0,0.6,0.77,-0.21,-1.64,1.62,0.5
2024-12-06 13:34:44.29,13.27,532.0,0.6,0.77,-0.21,-1.46,1.68,0.62
2024-12-06 13:34:44.37,15.07,526.0,0.6,0.77,-0.2,-1.46,1.68,0.62
2024-12-06 13:34:44.49,13.5,525.0,0.59,0.77,-0.2,-1.4,1.74,0.8
2024-12-06 13:34:44.59,12.38,533.0,0.59,0.77,-0.2,-1.4,1.62,0.92
2024-12-06 13:34:44.61,13.72,515.0,0.59,0.77,-0.2,-1.33,1.26,1.05
2024-12-06 13:34:44.68,15.07,525.0,0.59,0.77,-0.2,-1.21,0.95,1.11
2024-12-06 13:34:44.76,13.72,530.0,0.59,0.76,-0.2,-1.15,0.52,0.98
2024-12-06 13:34:44.85,14.17,527.0,0.59,0.76,-0.2,-1.15,0.52,0.98
2024-12-06 13:34:44.98,16.2,519.0,0.59,0.76,-0.2,-1.03,0.28,0.8
2024-12-06 13:34:44.101,15.52,526.0,0.59,0.76,-0.21,-0.72,0.1,0.68
2024-12-06 13:34:44.108,20.25,533.0,0.59,0.76,-0.21,-0.66,0.1,0.56
2024-12-06 13:34:44.144,16.65,525.0,0.57,0.76,-0.21,-0.72,-0.39,0.44
2024-12-06 13:34:44.147,18.67,524.0,0.57,0.77,-0.21,-0.91,-0.33,0.37
2024-12-06 13:34:44.162,18.67,527.0,0.58,0.77,-0.21,-1.15,0.04,0.44
2024-12-06 13:34:44.164,21.38,533.0,0.58,0.77,-0.21,-1.27,0.46,0.44
2024-12-06 13:34:44.171,17.77,533.0,0.58,0.77,-0.21,-1.27,0.46,0.44
2024-12-06 13:34:44.178,21.38,523.0,0.58,0.77,-0.21,-1.46,1.01,0.44
2024-12-06 13:34:44.191,16.42,532.0,0.58,0.77,-0.21,-1.58,1.32,0.44
2024-12-06 13:34:44.201,18.23,533.0,0.58,0.77,-0.2,-1.64,1.44,0.5
2024-12-06 13:34:44.205,22.27,537.0,0.58,0.77,-0.2,-1.64,1.68,0.56
2024-12-06 13:34:44.213,24.52,520.0,0.58,0.77,-0.2,-1.76,1.93,0.74
2024-12-06 13:34:44.223,22.72,526.0,0.59,0.77,-0.19,-1.76,1.93,0.74
2024-12-06 13:34:44.228,22.05,545.0,0.59,0.77,-0.19,-1.7,1.74,0.74
2024-12-06 13:34:44.233,18.67,521.0,0.59,0.77,-0.2,-1.7,1.68,0.74
2024-12-06 13:34:44.246,21.82,513.0,0.59,0.78,-0.2,-1.7,1.74,0.68
2024-12-06 13:34:44.254,18.23,521.0,0.6,0.78,-0.2,-1.58,1.68,0.8
2024-12-06 13:34:44.257,22.27,524.0,0.6,0.78,-0.2,-1.58,1.5,0.86
2024-12-06 13:34:44.265,19.8,526.0,0.6,0.78,-0.2,-1.64,1.26,0.86
2024-12-06 13:34:44.273,21.6,520.0,0.6,0.78,-0.2,-1.64,1.26,0.86
2024-12-06 13:34:44.299,18.23,526.0,0.59,0.77,-0.19,-1.4,0.95,0.8
2024-12-06 13:34:44.323,20.02,530.0,0.59,0.77,-0.19,-1.21,0.59,0.62
2024-12-06 13:34:44.329,19.35,567.0,0.59,0.77,-0.2,-0.85,0.83,0.37
2024-12-06 13:34:44.338,23.62,540.0,0.59,0.77,-0.2,-0.79,0.83,0.44
2024-12-06 13:34:44.366,24.52,506.0,0.58,0.77,-0.21,-0.66,0.83,0.68
2024-12-06 13:34:44.374,21.6,541.0,0.58,0.77,-0.21,-0.72,1.13,0.86
2024-12-06 13:34:44.484,23.17,541.0,0.58,0.78,-0.19,-1.58,1.32,1.53
2024-12-06 13:34:44.486,24.75,541.0,0.58,0.77,-0.19,-1.7,1.44,1.41
2024-12-06 13:34:44.494,24.75,543.0,0.58,0.77,-0.18,-1.76,1.38,1.41
2024-12-06 13:34:44.505,29.02,525.0,0.59,0.77,-0.18,-1.88,1.68,1.35
2024-12-06 13:34:44.514,26.77,538.0,0.59,0.77,-0.18,-1.88,1.68,1.35
2024-12-06 13:34:44.518,25.2,538.0,0.59,0.76,-0.19,-1.88,1.56,1.35
2024-12-06 13:34:44.525,28.12,533.0,0.59,0.76,-0.19,-1.94,1.38,1.29
2024-12-06 13:34:44.536,25.42,548.0,0.59,0.76,-0.19,-1.94,1.07,1.29
2024-12-06 13:34:44.543,27.67,542.0,0.59,0.76,-0.2,-1.82,0.83,1.29
2024-12-06 13:34:44.549,30.38,528.0,0.59,0.76,-0.2,-1.76,0.65,1.35
2024-12-06 13:34:44.562,25.88,549.0,0.59,0.76,-0.2,-1.76,0.65,1.35
2024-12-06 13:34:44.591,29.02,529.0,0.59,0.77,-0.2,-1.76,-0.09,1.47
2024-12-06 13:34:44.593,26.1,530.0,0.59,0.77,-0.2,-1.88,-0.15,1.53
2024-12-06 13:34:44.596,27.22,563.0,0.59,0.77,-0.19,-2.01,-0.39,1.47
2024-12-06 13:34:44.605,29.7,525.0,0.59,0.77,-0.19,-2.01,-0.39,1.47
2024-12-06 13:34:44.613,32.62,550.0,0.59,0.77,-0.19,-2.25,-0.27,1.53
2024-12-06 13:34:44.620,32.4,570.0,0.59,0.76,-0.19,-2.31,-0.33,1.53
2024-12-06 13:34:44.627,31.05,539.0,0.58,0.76,-0.19,-2.13,-0.64,1.41
2024-12-06 13:34:44.635,32.62,562.0,0.58,0.76,-0.19,-2.07,-0.88,1.17
2024-12-06 13:34:44.645,28.8,544.0,0.59,0.76,-0.19,-2.07,-0.7,1.17
2024-12-06 13:34:44.659,32.4,551.0,0.59,0.77,-0.19,-2.07,-0.7,1.17
2024-12-06 13:34:44.680,32.4,531.0,0.59,0.78,-0.19,-2.01,-0.03,1.35
2024-12-06 13:34:44.684,31.5,524.0,0.58,0.79,-0.19,-2.01,2.11,2.02
2024-12-06 13:34:44.690,35.33,536.0,0.58,0.78,-0.19,-1.94,2.66,2.08
2024-12-06 13:34:44.697,30.82,528.0,0.58,0.77,-0.19,-1.94,2.66,2.08
2024-12-06 13:34:44.705,30.82,543.0,0.59,0.77,-0.19,-1.82,2.84,2.14
2024-12-06 13:34:44.713,34.65,546.0,0.59,0.77,-0.18,-1.64,2.9,2.14
2024-12-06 13:34:44.721,36.22,545.0,0.6,0.77,-0.18,-1.46,2.66,2.14
2024-12-06 13:34:44.734,33.75,542.0,0.6,0.77,-0.18,-1.46,2.36,2.02
2024-12-06 13:34:44.753,31.95,525.0,0.6,0.76,-0.18,-1.46,1.87,1.96
2024-12-06 13:34:44.766,35.55,549.0,0.59,0.76,-0.18,-1.4,1.2,1.78
2024-12-06 13:34:44.769,36.22,527.0,0.59,0.77,-0.19,-1.03,0.65,1.35
2024-12-06 13:34:44.814,37.58,548.0,0.59,0.78,-0.2,-0.72,1.07,1.78
2024-12-06 13:34:44.822,39.83,533.0,0.59,0.79,-0.2,-0.85,1.44,1.96
2024-12-06 13:34:44.830,41.85,551.0,0.59,0.78,-0.19,-0.85,1.44,1.96
2024-12-06 13:34:44.841,38.02,537.0,0.58,0.77,-0.19,-1.03,2.11,1.78
2024-12-06 13:34:44.846,38.92,537.0,0.59,0.77,-0.19,-1.09,1.99,1.6
2024-12-06 13:34:44.854,41.85,536.0,0.58,0.77,-0.18,-1.21,1.87,1.47
2024-12-06 13:34:44.861,38.92,539.0,0.58,0.77,-0.18,-1.21,1.99,1.41
2024-12-06 13:34:44.882,38.92,547.0,0.59,0.78,-0.18,-1.21,1.99,1.6
2024-12-06 13:34:44.885,33.08,546.0,0.59,0.78,-0.18,-1.15,1.81,1.66
2024-12-06 13:34:44.894,41.85,535.0,0.59,0.78,-0.18,-1.27,2.29,1.78
2024-12-06 13:34:44.901,41.62,555.0,0.6,0.77,-0.17,-1.03,2.42,1.96
2024-12-06 13:34:44.909,41.85,554.0,0.57,0.77,-0.18,-0.91,2.36,2.02
2024-12-06 13:34:44.917,38.47,547.0,0.59,0.77,-0.18,-1.09,2.66,1.84
2024-12-06 13:34:44.925,43.42,544.0,0.59,0.77,-0.17,-1.09,2.66,1.84
2024-12-06 13:34:44.940,37.35,526.0,0.59,0.77,-0.17,-1.15,2.84,1.9
2024-12-06 13:34:44.942,45.22,546.0,0.59,0.77,-0.17,-1.21,3.15,1.96
2024-12-06 13:34:44.948,38.25,562.0,0.59,0.77,-0.17,-1.27,3.39,2.02
2024-12-06 13:34:44.957,38.7,550.0,0.59,0.77,-0.17,-1.4,3.51,2.27
2024-12-06 13:34:44.965,41.4,563.0,0.59,0.78,-0.17,-1.46,3.27,2.39
2024-12-06 13:34:44.972,43.65,549.0,0.59,0.77,-0.17,-1.46,3.27,2.39
2024-12-06 13:34:44.983,44.55,545.0,0.6,0.77,-0.18,-1.15,2.36,2.45
2024-12-06 13:34:44.987,43.65,565.0,0.59,0.76,-0.19,-0.97,2.23,2.02
2024-12-06 13:34:44.997,45.9,554.0,0.59,0.77,-0.18,-0.91,1.99,1.17
2024-12-06 13:34:45.4,47.92,548.0,0.59,0.77,-0.18,-0.72,0.59,0.98
2024-12-06 13:34:45.19,37.8,570.0,0.6,0.77,-0.18,-0.85,0.89,0.98
2024-12-06 13:34:45.22,42.75,553.0,0.6,0.77,-0.19,-0.85,0.89,0.98
2024-12-06 13:34:45.26,43.88,554.0,0.59,0.76,-0.18,-0.79,1.32,1.11
2024-12-06 13:34:45.34,42.75,554.0,0.59,0.77,-0.18,-0.85,1.68,1.47
2024-12-06 13:34:45.42,46.12,548.0,0.58,0.77,-0.18,-0.79,1.99,1.78
2024-12-06 13:34:45.50,47.02,550.0,0.58,0.77,-0.18,-0.54,2.42,1.96
2024-12-06 13:34:45.58,43.42,563.0,0.59,0.77,-0.17,-0.42,2.9,2.14
2024-12-06 13:34:45.66,43.65,569.0,0.59,0.77,-0.17,-0.42,2.9,2.14
2024-12-06 13:34:45.104,43.65,543.0,0.59,0.77,-0.17,-0.24,2.84,2.27
2024-12-06 13:34:45.107,44.1,569.0,0.6,0.78,-0.17,0.13,2.54,2.21
2024-12-06 13:34:45.112,45.67,555.0,0.6,0.78,-0.18,0.31,2.6,1.96
2024-12-06 13:34:45.120,48.38,546.0,0.61,0.78,-0.18,0.56,2.6,1.84
2024-12-06 13:34:45.127,50.4,552.0,0.61,0.77,-0.17,0.56,2.05,1.72
2024-12-06 13:34:45.136,46.8,561.0,0.61,0.77,-0.17,0.37,1.87,1.6
2024-12-06 13:34:45.143,48.15,562.0,0.6,0.77,-0.17,0.13,2.11,1.6
2024-12-06 13:34:45.155,45.9,552.0,0.6,0.77,-0.16,0.13,2.11,1.6
2024-12-06 13:34:45.160,50.62,549.0,0.6,0.77,-0.16,-0.11,2.36,1.78
2024-12-06 13:34:45.167,51.97,547.0,0.59,0.77,-0.16,-0.3,2.23,1.96
2024-12-06 13:34:45.179,48.82,552.0,0.6,0.77,-0.17,-0.48,2.11,2.14
2024-12-06 13:34:45.188,50.4,544.0,0.6,0.77,-0.17,-0.54,2.36,2.33
2024-12-06 13:34:45.193,51.97,566.0,0.6,0.77,-0.17,-0.54,2.36,2.39
2024-12-06 13:34:45.201,50.4,561.0,0.6,0.77,-0.17,-0.54,2.36,2.39
2024-12-06 13:34:45.221,51.07,562.0,0.6,0.77,-0.17,-0.6,2.42,2.39
2024-12-06 13:34:45.229,51.97,551.0,0.59,0.77,-0.17,-0.6,2.05,2.08
2024-12-06 13:34:45.232,52.65,567.0,0.59,0.77,-0.17,-0.79,2.29,2.14
2024-12-06 13:34:45.237,50.17,550.0,0.59,0.76,-0.17,-0.91,2.29,2.27
2024-12-06 13:34:45.265,54.0,541.0,0.6,0.75,-0.17,-0.72,2.48,2.51
2024-12-06 13:34:45.268,51.3,549.0,0.6,0.75,-0.17,-0.6,2.23,2.45
2024-12-06 13:34:45.276,53.55,551.0,0.6,0.74,-0.17,-0.6,2.05,2.08
2024-12-06 13:34:45.284,49.27,568.0,0.6,0.75,-0.16,-0.6,2.05,2.08
2024-12-06 13:34:45.293,55.8,547.0,0.6,0.76,-0.16,-0.54,1.87,1.78
2024-12-06 13:34:45.301,54.67,566.0,0.6,0.77,-0.17,-0.72,1.99,1.6
2024-12-06 13:34:45.307,51.75,554.0,0.59,0.77,-0.16,-0.85,1.81,1.29
2024-12-06 13:34:45.315,52.2,551.0,0.59,0.77,-0.16,-0.97,1.68,1.11
2024-12-06 13:34:45.326,53.77,560.0,0.59,0.77,-0.16,-0.91,1.2,0.86
2024-12-06 13:34:45.334,54.67,571.0,0.59,0.77,-0.16,-0.91,1.2,0.86
2024-12-06 13:34:45.341,53.32,552.0,0.6,0.77,-0.17,-0.85,1.32,0.92
2024-12-06 13:34:45.356,53.77,548.0,0.6,0.76,-0.16,-0.97,1.87,1.23
2024-12-06 13:34:45.363,51.75,556.0,0.6,0.77,-0.16,-0.97,2.05,1.35
2024-12-06 13:34:45.370,54.45,569.0,0.61,0.77,-0.16,-1.15,1.81,1.53
2024-12-06 13:34:45.381,51.97,549.0,0.6,0.78,-0.16,-1.15,1.81,1.53
2024-12-06 13:34:45.392,55.12,566.0,0.6,0.78,-0.16,-1.21,1.62,1.6
2024-12-06 13:34:45.400,52.65,579.0,0.61,0.78,-0.16,-1.46,1.44,1.9
2024-12-06 13:34:45.413,56.7,578.0,0.61,0.77,-0.16,-1.88,1.87,2.27
2024-12-06 13:34:45.420,59.85,569.0,0.61,0.77,-0.16,-2.01,1.74,2.27
2024-12-06 13:34:45.513,56.92,534.0,0.61,0.77,-0.16,-2.01,1.74,2.27
2024-12-06 13:34:45.522,57.82,574.0,0.6,0.76,-0.15,-1.76,0.89,2.21
2024-12-06 13:34:45.532,62.55,565.0,0.6,0.76,-0.15,-1.33,0.83,1.9
2024-12-06 13:34:45.540,59.62,576.0,0.61,0.76,-0.15,-1.33,0.83,1.9
2024-12-06 13:34:45.546,63.45,581.0,0.6,0.77,-0.15,-1.21,0.77,1.9
2024-12-06 13:34:45.554,59.4,545.0,0.6,0.78,-0.16,-0.91,0.46,1.66
2024-12-06 13:34:45.562,53.55,553.0,0.6,0.78,-0.16,-0.6,0.59,1.9
2024-12-06 13:34:45.571,61.65,551.0,0.6,0.77,-0.16,-0.42,0.4,1.96
2024-12-06 13:34:45.578,57.15,557.0,0.6,0.77,-0.16,-0.42,0.71,1.78
2024-12-06 13:34:45.586,64.35,573.0,0.6,0.77,-0.16,-0.42,1.13,1.84
2024-12-06 13:34:45.607,63.67,564.0,0.61,0.77,-0.16,-0.3,1.13,1.84
2024-12-06 13:34:45.608,59.85,606.0,0.61,0.76,-0.16,-0.24,1.32,1.78
2024-12-06 13:34:45.610,64.57,549.0,0.61,0.77,-0.16,-0.3,1.5,1.72
2024-12-06 13:34:45.620,60.3,551.0,0.6,0.78,-0.16,-0.42,1.38,2.02
2024-12-06 13:34:45.627,60.97,578.0,0.6,0.78,-0.16,-0.36,1.62,2.21
2024-12-06 13:34:45.634,61.42,562.0,0.6,0.78,-0.16,-0.36,1.26,2.63
2024-12-06 13:34:45.646,66.82,562.0,0.61,0.78,-0.16,-0.36,1.26,2.63
2024-12-06 13:34:45.651,64.12,551.0,0.61,0.78,-0.16,-0.66,1.2,3.0
2024-12-06 13:34:45.657,63.0,556.0,0.61,0.78,-0.16,-0.85,1.62,3.43
2024-12-06 13:34:45.665,61.2,558.0,0.61,0.77,-0.16,-0.79,1.87,3.61
2024-12-06 13:34:45.674,63.45,567.0,0.61,0.76,-0.17,-0.85,2.05,3.73
2024-12-06 13:34:45.684,59.4,550.0,0.61,0.76,-0.17,-0.66,1.93,3.61
2024-12-06 13:34:45.689,64.8,556.0,0.62,0.75,-0.16,-0.66,1.93,3.61
2024-12-06 13:34:45.725,63.22,565.0,0.61,0.77,-0.14,-0.36,1.07,4.46
2024-12-06 13:34:45.748,67.95,556.0,0.62,0.77,-0.14,-0.36,1.01,5.26
2024-12-06 13:34:45.750,65.03,549.0,0.63,0.77,-0.14,-0.11,-0.27,5.44
2024-12-06 13:34:45.758,64.57,564.0,0.63,0.77,-0.16,-0.05,0.1,5.2
2024-12-06 13:34:45.766,64.8,566.0,0.63,0.76,-0.16,-0.42,1.5,4.52
2024-12-06 13:34:45.775,65.92,561.0,0.62,0.74,-0.15,-0.42,1.5,4.52
2024-12-06 13:34:45.785,66.82,569.0,0.61,0.74,-0.13,-0.24,1.5,3.91
2024-12-06 13:34:45.790,63.0,576.0,0.6,0.75,-0.13,-0.24,1.99,3.37
2024-12-06 13:34:45.802,68.4,560.0,0.61,0.76,-0.13,0.07,1.38,3.18
2024-12-06 13:34:45.810,67.28,592.0,0.62,0.77,-0.14,0.19,0.89,3.37
2024-12-06 13:34:45.814,66.6,560.0,0.62,0.77,-0.14,0.19,0.83,3.55
2024-12-06 13:34:45.825,63.45,554.0,0.61,0.76,-0.14,0.13,0.65,3.37
2024-12-06 13:34:45.839,65.92,564.0,0.6,0.76,-0.14,0.13,0.65,3.37
2024-12-06 13:34:45.852,69.07,551.0,0.61,0.76,-0.14,-0.11,0.4,3.12
2024-12-06 13:34:45.860,67.95,579.0,0.62,0.75,-0.14,-0.91,-0.76,2.45
2024-12-06 13:34:45.862,68.62,571.0,0.61,0.75,-0.14,-1.27,-0.64,2.08
2024-12-06 13:34:45.869,69.3,560.0,0.61,0.75,-0.15,-1.27,-0.64,2.08
2024-12-06 13:34:45.879,69.07,559.0,0.61,0.76,-0.15,-1.52,-0.15,2.08
2024-12-06 13:34:45.886,65.47,563.0,0.6,0.76,-0.15,-1.58,0.65,2.08
2024-12-06 13:34:45.897,69.97,561.0,0.6,0.76,-0.14,-1.58,1.01,2.08
2024-12-06 13:34:45.942,71.32,578.0,0.61,0.76,-0.15,-2.13,0.65,2.33
2024-12-06 13:34:45.945,66.82,568.0,0.62,0.76,-0.15,-2.43,1.07,2.33
2024-12-06 13:34:45.958,71.32,560.0,0.62,0.75,-0.15,-2.43,1.07,2.33
2024-12-06 13:34:45.962,71.1,573.0,0.61,0.75,-0.15,-2.56,0.77,2.21
2024-12-06 13:34:45.969,69.07,578.0,0.62,0.75,-0.15,-2.74,0.95,2.08
2024-12-06 13:34:45.979,68.62,561.0,0.61,0.75,-0.15,-2.74,1.2,2.14
2024-12-06 13:34:45.984,70.42,575.0,0.61,0.75,-0.14,-2.62,0.89,1.96
2024-12-06 13:34:45.992,70.42,565.0,0.6,0.75,-0.14,-2.43,0.59,1.78
2024-12-06 13:34:46.4,71.1,571.0,0.61,0.75,-0.14,-2.43,0.59,1.78
2024-12-06 13:34:46.10,68.85,593.0,0.62,0.76,-0.14,-2.25,-0.39,1.9
2024-12-06 13:34:46.17,70.2,579.0,0.62,0.76,-0.15,-2.49,-0.27,1.96
2024-12-06 13:34:46.25,70.42,567.0,0.63,0.77,-0.14,-2.62,0.89,2.21
2024-12-06 13:34:46.33,76.5,574.0,0.62,0.77,-0.14,-2.68,1.38,2.57
2024-12-06 13:34:46.42,74.03,578.0,0.62,0.77,-0.14,-2.56,1.68,2.69
2024-12-06 13:34:46.49,72.0,556.0,0.61,0.76,-0.15,-2.56,2.17,2.88
2024-12-06 13:34:46.57,72.9,578.0,0.62,0.76,-0.15,-2.56,2.17,2.88
2024-12-06 13:34:46.66,75.15,562.0,0.62,0.76,-0.15,-2.68,2.29,3.0
2024-12-06 13:34:46.72,71.32,581.0,0.61,0.76,-0.15,-2.37,1.81,2.88
2024-12-06 13:34:46.80,64.57,572.0,0.62,0.75,-0.15,-1.94,1.13,2.69
2024-12-06 13:34:46.88,71.1,571.0,0.62,0.75,-0.15,-1.88,0.77,2.57
2024-12-06 13:34:46.132,73.57,571.0,0.63,0.76,-0.13,-1.82,1.07,2.82
2024-12-06 13:34:46.135,78.07,568.0,0.63,0.76,-0.13,-1.76,1.2,3.0
2024-12-06 13:34:46.142,72.9,581.0,0.62,0.76,-0.14,-1.76,1.2,3.0
2024-12-06 13:34:46.181,73.12,571.0,0.62,0.76,-0.14,-1.64,1.26,3.18
2024-12-06 13:34:46.187,78.07,565.0,0.63,0.75,-0.15,-1.27,0.77,3.06
2024-12-06 13:34:46.192,75.82,574.0,0.63,0.75,-0.14,-1.21,0.04,2.88
2024-12-06 13:34:46.200,75.82,580.0,0.62,0.75,-0.14,-1.21,-0.7,2.51
2024-12-06 13:34:46.204,78.3,592.0,0.62,0.76,-0.15,-1.21,-1.0,2.08
2024-12-06 13:34:46.211,76.5,599.0,0.62,0.76,-0.15,-1.27,-1.06,2.02
2024-12-06 13:34:46.221,79.42,581.0,0.62,0.76,-0.15,-1.46,-1.25,2.21
2024-12-06 13:34:46.227,77.62,588.0,0.62,0.76,-0.14,-1.46,-1.25,2.21
2024-12-06 13:34:46.235,80.32,592.0,0.61,0.76,-0.14,-1.76,-1.0,2.45
2024-12-06 13:34:46.249,77.85,594.0,0.61,0.76,-0.14,-2.01,-0.45,2.75
2024-12-06 13:34:46.280,78.3,584.0,0.62,0.76,-0.14,-2.25,0.1,3.12
2024-12-06 13:34:46.284,82.8,599.0,0.62,0.75,-0.14,-2.37,1.26,3.73
2024-12-06 13:34:46.292,78.97,610.0,0.63,0.76,-0.14,-2.43,1.32,3.98
2024-12-06 13:34:46.298,78.97,577.0,0.63,0.76,-0.13,-2.43,1.13,3.98
2024-12-06 13:34:46.307,78.53,649.0,0.63,0.76,-0.13,-2.49,0.71,3.91
2024-12-06 13:34:46.314,77.62,581.0,0.64,0.76,-0.13,-2.49,0.71,3.91
2024-12-06 13:34:46.320,78.97,586.0,0.64,0.75,-0.13,-2.56,0.22,3.85
2024-12-06 13:34:46.333,79.2,587.0,0.64,0.75,-0.12,-2.68,-0.15,3.67
2024-12-06 13:34:46.336,80.78,589.0,0.63,0.75,-0.13,-2.68,-0.7,3.37
2024-12-06 13:34:46.345,79.65,602.0,0.63,0.75,-0.13,-2.56,-1.12,3.37
2024-12-06 13:34:46.394,81.0,583.0,0.63,0.74,-0.12,-2.31,-0.82,3.43
2024-12-06 13:34:46.397,80.78,582.0,0.63,0.74,-0.12,-2.31,-0.82,3.43
2024-12-06 13:34:46.405,83.92,598.0,0.63,0.75,-0.13,-2.01,-0.76,3.37
2024-12-06 13:34:46.414,81.9,592.0,0.63,0.74,-0.13,-1.64,-0.51,3.18
2024-12-06 13:34:46.426,79.42,600.0,0.64,0.75,-0.13,-1.33,-0.51,3.12
2024-12-06 13:34:46.429,84.38,601.0,0.64,0.75,-0.13,-1.15,-0.39,3.0
2024-12-06 13:34:46.436,79.42,590.0,0.63,0.75,-0.13,-0.91,-0.03,3.0
2024-12-06 13:34:46.448,78.97,598.0,0.63,0.76,-0.12,-0.91,-0.03,3.0
2024-12-06 13:34:46.459,83.25,592.0,0.63,0.76,-0.12,-0.91,0.04,2.94
2024-12-06 13:34:46.461,80.32,602.0,0.63,0.75,-0.13,-0.79,-0.21,2.69
2024-12-06 13:34:46.471,79.88,594.0,0.63,0.75,-0.12,-0.79,-0.33,2.51
2024-12-06 13:34:46.568,80.78,617.0,0.63,0.75,-0.13,-2.86,2.36,3.06
2024-12-06 13:34:46.575,81.9,600.0,0.64,0.74,-0.12,-2.74,2.84,3.06
2024-12-06 13:34:46.597,82.8,631.0,0.64,0.75,-0.13,-3.1,2.84,3.43
2024-12-06 13:34:46.620,82.35,603.0,0.63,0.76,-0.13,-4.08,2.36,4.34
2024-12-06 13:34:46.624,85.5,601.0,0.63,0.73,-0.13,-3.84,2.9,4.1
2024-12-06 13:34:46.629,82.8,627.0,0.65,0.74,-0.13,-3.84,2.29,4.04
2024-12-06 13:34:46.639,83.47,677.0,0.65,0.78,-0.13,-4.51,1.68,4.46
2024-12-06 13:34:46.645,85.72,599.0,0.65,0.75,-0.13,-4.26,1.93,4.22
2024-12-06 13:34:46.652,83.7,612.0,0.64,0.74,-0.12,-4.26,1.93,4.22
2024-12-06 13:34:46.659,85.28,599.0,0.64,0.74,-0.12,-3.71,1.2,4.04
2024-12-06 13:34:46.667,85.5,618.0,0.65,0.74,-0.13,-3.59,1.38,3.85
2024-12-06 13:34:46.682,81.0,613.0,0.64,0.75,-0.11,-3.29,0.65,3.91
2024-12-06 13:34:46.693,84.82,603.0,0.64,0.76,-0.11,-2.37,-0.27,3.67
2024-12-06 13:34:46.706,87.97,620.0,0.65,0.76,-0.11,-2.37,-0.27,3.67
2024-12-06 13:34:46.709,86.4,609.0,0.64,0.76,-0.12,-2.13,-0.39,3.49
2024-12-06 13:34:46.740,83.92,625.0,0.65,0.75,-0.12,-1.64,-0.39,3.12
2024-12-06 13:34:46.744,83.92,635.0,0.64,0.76,-0.12,-1.09,-0.21,2.75
2024-12-06 13:34:46.756,88.42,603.0,0.64,0.75,-0.12,-0.48,0.04,2.75
2024-12-06 13:34:46.760,90.45,615.0,0.64,0.76,-0.12,-0.54,-0.82,3.24
2024-12-06 13:34:46.772,84.82,613.0,0.64,0.76,-0.12,-0.79,-0.51,3.3
2024-12-06 13:34:46.778,86.17,656.0,0.62,0.74,-0.13,-0.36,-0.03,2.82
2024-12-06 13:34:46.783,84.38,624.0,0.63,0.73,-0.12,-0.36,-0.03,2.82
2024-12-06 13:34:46.792,87.97,625.0,0.65,0.74,-0.13,-0.66,-0.21,3.18
2024-12-06 13:34:46.813,85.28,620.0,0.63,0.74,-0.13,-1.03,0.28,3.0
2024-12-06 13:34:46.815,83.03,608.0,0.64,0.76,-0.12,-1.4,-0.57,4.04
2024-12-06 13:34:46.845,84.6,623.0,0.63,0.78,-0.12,-2.01,-0.27,4.71
2024-12-06 13:34:46.847,88.65,604.0,0.61,0.73,-0.12,-2.37,0.65,5.81
2024-12-06 13:34:46.853,88.65,619.0,0.61,0.73,-0.12,-2.68,0.77,6.84
2024-12-06 13:34:46.861,84.82,625.0,0.59,0.73,-0.12,-2.62,0.95,8.68
2024-12-06 13:34:46.869,87.52,621.0,0.59,0.73,-0.11,-2.62,0.95,8.68
2024-12-06 13:34:46.876,87.3,621.0,0.61,0.73,-0.1,-2.25,0.83,10.26
2024-12-06 13:34:46.895,84.82,617.0,0.64,0.73,-0.09,-2.13,0.77,11.18
2024-12-06 13:34:46.898,85.72,615.0,0.67,0.72,-0.08,-1.88,0.46,11.06
2024-12-06 13:34:46.905,88.65,614.0,0.67,0.72,-0.08,-1.82,0.52,10.32
2024-12-06 13:34:46.910,87.07,608.0,0.68,0.73,-0.08,-1.82,0.95,9.35
2024-12-06 13:34:46.915,84.15,622.0,0.67,0.74,-0.08,-1.82,0.95,9.35
2024-12-06 13:34:46.924,82.57,605.0,0.68,0.74,-0.1,-2.01,1.2,8.37
2024-12-06 13:34:46.932,88.65,610.0,0.68,0.73,-0.11,-2.31,1.01,7.33
2024-12-06 13:34:46.940,89.55,609.0,0.68,0.72,-0.11,-2.62,0.59,6.23
2024-12-06 13:34:46.949,88.65,621.0,0.68,0.72,-0.11,-2.98,-0.27,5.26
2024-12-06 13:34:46.955,85.28,619.0,0.68,0.72,-0.11,-3.29,-1.06,4.22
2024-12-06 13:34:46.964,87.52,604.0,0.68,0.72,-0.11,-3.29,-1.06,2.57
2024-12-06 13:34:46.977,86.62,619.0,0.69,0.72,-0.11,-3.53,-2.04,2.57
2024-12-06 13:34:46.984,86.85,629.0,0.67,0.72,-0.1,-4.02,-2.34,1.84
2024-12-06 13:34:46.990,88.88,614.0,0.65,0.72,-0.1,-3.9,-2.41,1.78
2024-12-06 13:34:46.998,88.88,602.0,0.65,0.71,-0.11,-3.78,-2.71,1.6
2024-12-06 13:34:47.3,88.88,607.0,0.65,0.71,-0.11,-3.71,-2.77,1.53
2024-12-06 13:34:47.13,88.2,593.0,0.65,0.71,-0.11,-3.17,-3.02,1.47
2024-12-06 13:34:47.19,85.95,608.0,0.65,0.72,-0.11,-3.17,-3.02,1.47
2024-12-06 13:34:47.30,86.62,591.0,0.66,0.72,-0.11,-2.74,-2.95,1.29
2024-12-06 13:34:47.39,89.55,611.0,0.66,0.73,-0.11,-2.19,-2.71,1.23
2024-12-06 13:34:47.44,86.62,595.0,0.67,0.73,-0.11,-1.64,-2.53,0.92
2024-12-06 13:34:47.56,86.85,611.0,0.66,0.73,-0.11,-1.09,-2.22,0.56
2024-12-06 13:34:47.62,88.2,612.0,0.66,0.73,-0.11,-0.42,-1.55,0.13
2024-12-06 13:34:47.71,83.03,604.0,0.67,0.73,-0.1,-0.42,-1.55,0.13
2024-12-06 13:34:47.95,83.47,586.0,0.66,0.73,-0.1,1.6,-0.15,-1.21
2024-12-06 13:34:47.97,84.82,608.0,0.66,0.73,-0.1,2.14,0.04,-1.52
2024-12-06 13:34:47.105,86.17,587.0,0.66,0.73,-0.11,2.14,0.16,-1.88
2024-12-06 13:34:47.114,88.88,586.0,0.65,0.73,-0.12,2.57,0.16,-1.88
2024-12-06 13:34:47.121,88.42,598.0,0.65,0.74,-0.12,2.82,0.28,-2.07
2024-12-06 13:34:47.130,84.15,617.0,0.65,0.75,-0.13,2.75,0.46,-2.19
2024-12-06 13:34:47.137,88.88,597.0,0.65,0.75,-0.13,2.82,0.4,-2.19
2024-12-06 13:34:47.145,84.82,594.0,0.65,0.75,-0.13,2.94,0.4,-2.07
2024-12-06 13:34:47.156,85.72,593.0,0.65,0.76,-0.13,2.94,0.46,-2.07
2024-12-06 13:34:47.160,84.15,588.0,0.65,0.76,-0.13,2.94,0.46,-2.07
2024-12-06 13:34:47.172,89.55,601.0,0.65,0.76,-0.13,3.0,0.46,-1.94
2024-12-06 13:34:47.177,85.95,601.0,0.65,0.75,-0.12,3.18,0.34,-2.01
2024-12-06 13:34:47.185,85.5,595.0,0.65,0.74,-0.12,3.49,0.16,-2.31
2024-12-06 13:34:47.193,85.95,614.0,0.65,0.74,-0.11,3.79,-0.15,-2.8
2024-12-06 13:34:47.204,83.47,602.0,0.65,0.74,-0.11,4.34,-0.76,-3.41
2024-12-06 13:34:47.208,89.32,600.0,0.65,0.74,-0.11,4.34,-0.76,-3.41
2024-12-06 13:34:47.217,87.3,600.0,0.65,0.74,-0.11,4.95,-1.49,-4.14
2024-12-06 13:34:47.225,83.92,610.0,0.64,0.74,-0.11,5.62,-2.16,-5.0
2024-12-06 13:34:47.236,92.25,600.0,0.64,0.74,-0.12,6.29,-3.26,-5.79
2024-12-06 13:34:47.245,85.5,603.0,0.64,0.74,-0.12,6.66,-3.32,-6.22
2024-12-06 13:34:47.255,87.07,593.0,0.64,0.74,-0.12,6.84,-3.38,-6.4
2024-12-06 13:34:47.262,85.72,653.0,0.64,0.73,-0.11,6.84,-3.38,-6.4
2024-12-06 13:34:47.265,88.2,592.0,0.63,0.74,-0.12,6.97,-3.44,-6.64
2024-12-06 13:34:47.296,87.3,595.0,0.63,0.75,-0.13,6.97,-3.57,-6.77
2024-12-06 13:34:47.299,86.62,587.0,0.66,0.75,-0.12,6.11,-0.7,-5.24
2024-12-06 13:34:47.305,82.57,578.0,0.64,0.74,-0.12,6.11,-0.7,-5.24
2024-12-06 13:34:47.311,85.28,563.0,0.64,0.74,-0.14,6.29,-0.7,-5.55
2024-12-06 13:34:47.320,85.5,605.0,0.68,0.74,-0.13,5.26,0.28,-4.69
2024-12-06 13:34:47.326,85.5,587.0,0.69,0.74,-0.11,5.07,1.68,-3.04
2024-12-06 13:34:47.336,85.5,588.0,0.69,0.74,-0.11,4.83,3.27,-1.82
2024-12-06 13:34:47.342,85.72,569.0,0.67,0.74,-0.12,4.28,4.31,-0.72
2024-12-06 13:34:47.350,87.52,585.0,0.67,0.75,-0.12,4.28,4.31,-0.72
2024-12-06 13:34:47.358,83.03,568.0,0.67,0.75,-0.13,3.79,4.8,0.5
2024-12-06 13:34:47.370,84.38,595.0,0.66,0.74,-0.13,3.85,4.67,1.41
2024-12-06 13:34:47.376,88.42,581.0,0.66,0.74,-0.13,4.04,4.25,2.02
2024-12-06 13:34:47.382,85.28,575.0,0.66,0.75,-0.15,3.55,3.39,2.33
2024-12-06 13:34:47.393,85.5,582.0,0.66,0.75,-0.15,3.49,2.17,2.45
2024-12-06 13:34:47.398,89.1,570.0,0.65,0.75,-0.15,3.49,2.17,2.39
2024-12-06 13:34:47.406,87.07,581.0,0.65,0.75,-0.15,3.37,1.38,2.39
2024-12-06 13:34:47.427,89.32,583.0,0.65,0.74,-0.15,3.06,1.44,2.33
2024-12-06 13:34:47.430,87.75,581.0,0.63,0.74,-0.15,2.82,1.74,2.39
2024-12-06 13:34:47.437,84.82,585.0,0.63,0.74,-0.15,3.0,1.74,2.57
2024-12-06 13:34:47.448,81.67,594.0,0.61,0.74,-0.14,3.0,1.74,2.51
2024-12-06 13:34:47.455,86.17,594.0,0.6,0.74,-0.13,3.37,1.5,2.51
2024-12-06 13:34:47.463,83.92,585.0,0.6,0.74,-0.13,3.79,1.13,2.39
2024-12-06 13:34:47.468,84.15,596.0,0.61,0.74,-0.13,4.04,0.89,2.21
2024-12-06 13:34:47.481,83.47,585.0,0.61,0.74,-0.13,4.1,0.77,1.84
2024-12-06 13:34:47.487,85.95,574.0,0.61,0.74,-0.13,3.91,0.4,1.17
2024-12-06 13:34:47.492,76.5,595.0,0.61,0.73,-0.13,3.91,0.4,1.17
2024-12-06 13:34:47.619,86.17,582.0,0.64,0.74,-0.15,1.9,-0.57,-1.27
2024-12-06 13:34:47.628,88.2,575.0,0.67,0.74,-0.13,0.92,0.71,-0.91
2024-12-06 13:34:47.637,84.82,574.0,0.67,0.74,-0.13,0.31,2.6,0.07
2024-12-06 13:34:47.643,83.92,550.0,0.67,0.74,-0.13,0.31,3.7,0.62
2024-12-06 13:34:47.651,86.62,576.0,0.65,0.75,-0.14,0.13,3.7,0.62
2024-12-06 13:34:47.659,83.03,565.0,0.63,0.76,-0.15,0.25,3.15,1.05
2024-12-06 13:34:47.669,83.47,586.0,0.63,0.76,-0.15,0.8,1.87,1.29
2024-12-06 13:34:47.678,85.72,580.0,0.64,0.75,-0.15,1.41,0.77,1.53
2024-12-06 13:34:47.682,86.4,569.0,0.64,0.75,-0.15,1.11,1.38,1.9
2024-12-06 13:34:47.690,85.95,571.0,0.66,0.75,-0.14,1.11,1.81,2.21
2024-12-06 13:34:47.702,85.05,569.0,0.66,0.75,-0.14,0.98,1.74,2.08
2024-12-06 13:34:47.709,89.1,577.0,0.65,0.74,-0.14,0.86,1.74,2.08
2024-12-06 13:34:47.715,84.82,577.0,0.65,0.74,-0.14,0.92,0.89,1.6
2024-12-06 13:34:47.725,86.17,563.0,0.64,0.73,-0.14,1.11,-0.39,1.05
2024-12-06 13:34:47.731,84.82,585.0,0.64,0.72,-0.13,1.35,-1.25,0.5
2024-12-06 13:34:47.767,84.15,563.0,0.65,0.71,-0.12,1.17,-1.06,0.25
2024-12-06 13:34:47.771,85.28,565.0,0.65,0.72,-0.13,1.11,0.16,0.62
2024-12-06 13:34:47.778,83.7,583.0,0.65,0.72,-0.13,0.98,0.71,1.17
2024-12-06 13:34:47.787,83.03,579.0,0.64,0.74,-0.15,1.11,1.44,1.53
2024-12-06 13:34:47.792,86.4,579.0,0.63,0.75,-0.16,1.11,1.44,1.53
2024-12-06 13:34:47.805,89.32,558.0,0.63,0.75,-0.16,1.53,1.87,1.96
2024-12-06 13:34:47.812,85.05,555.0,0.64,0.74,-0.14,1.96,1.01,2.08
2024-12-06 13:34:47.817,82.8,580.0,0.66,0.74,-0.14,1.84,0.71,2.21
2024-12-06 13:34:47.824,88.88,581.0,0.66,0.74,-0.14,1.41,0.71,2.21
2024-12-06 13:34:47.836,85.95,571.0,0.67,0.72,-0.12,1.41,-0.09,1.29
2024-12-06 13:34:47.840,85.05,560.0,0.65,0.72,-0.12,1.29,-0.09,1.29
2024-12-06 13:34:47.848,85.72,565.0,0.65,0.73,-0.13,0.92,-0.94,0.56
2024-12-06 13:34:47.859,84.82,615.0,0.66,0.74,-0.13,0.74,-1.06,0.5
2024-12-06 13:34:47.868,83.92,575.0,0.64,0.75,-0.13,0.92,-0.76,0.8
2024-12-06 13:34:47.871,87.97,573.0,0.64,0.75,-0.13,1.11,-0.82,0.86
2024-12-06 13:34:47.879,87.75,566.0,0.63,0.76,-0.14,1.23,-1.18,1.05
2024-12-06 13:34:47.888,84.82,556.0,0.62,0.76,-0.15,1.23,-1.18,1.05
2024-12-06 13:34:47.897,89.1,568.0,0.63,0.76,-0.15,1.41,-1.37,1.17
2024-12-06 13:34:47.913,84.6,558.0,0.64,0.75,-0.15,1.23,-0.64,1.23
2024-12-06 13:34:47.918,89.1,561.0,0.64,0.75,-0.15,1.11,-0.27,0.92
2024-12-06 13:34:47.926,88.42,559.0,0.64,0.74,-0.15,1.11,-0.27,0.92
2024-12-06 13:34:47.937,88.2,556.0,0.64,0.74,-0.15,1.11,-0.39,0.68
2024-12-06 13:34:47.942,88.88,561.0,0.64,0.74,-0.15,1.17,-0.82,0.37
2024-12-06 13:34:47.976,88.42,551.0,0.64,0.74,-0.14,1.78,-1.06,-0.42
2024-12-06 13:34:47.984,87.3,554.0,0.63,0.73,-0.14,1.9,-0.7,-0.54
2024-12-06 13:34:47.989,88.65,549.0,0.63,0.73,-0.14,2.08,-0.33,-0.72
2024-12-06 13:34:47.997,87.97,544.0,0.63,0.73,-0.14,2.08,-0.39,-0.79
2024-12-06 13:34:48.2,89.1,564.0,0.63,0.73,-0.14,2.08,-0.7,-0.72
2024-12-06 13:34:48.14,88.42,564.0,0.62,0.74,-0.14,2.08,-0.7,-0.72
2024-12-06 13:34:48.18,81.67,548.0,0.62,0.74,-0.15,1.9,-0.7,-0.85
2024-12-06 13:34:48.26,85.05,569.0,0.62,0.75,-0.15,1.66,-0.7,-0.91
2024-12-06 13:34:48.36,85.05,548.0,0.62,0.75,-0.15,1.41,-0.64,-0.97
2024-12-06 13:34:48.48,87.3,560.0,0.62,0.75,-0.15,1.11,-0.39,-0.97
2024-12-06 13:34:48.53,88.88,566.0,0.62,0.75,-0.15,0.92,-0.21,-1.21
2024-12-06 13:34:48.59,86.62,549.0,0.62,0.75,-0.15,0.92,-0.09,-1.46
2024-12-06 13:34:48.67,86.85,548.0,0.62,0.75,-0.15,0.74,-0.09,-1.46
2024-12-06 13:34:48.76,81.0,567.0,0.62,0.75,-0.15,0.56,0.04,-1.64
2024-12-06 13:34:48.92,88.42,551.0,0.61,0.74,-0.15,0.56,0.89,-2.31
2024-12-06 13:34:48.98,86.85,565.0,0.61,0.74,-0.15,0.68,1.26,-2.68
2024-12-06 13:34:48.116,85.95,561.0,0.61,0.74,-0.15,0.74,1.74,-2.98
2024-12-06 13:34:48.119,86.62,549.0,0.61,0.74,-0.15,0.74,1.74,-2.98
2024-12-06 13:34:48.124,84.82,544.0,0.61,0.74,-0.15,0.98,2.11,-3.29
2024-12-06 13:34:48.130,84.38,559.0,0.62,0.74,-0.15,1.23,2.17,-3.53
2024-12-06 13:34:48.137,85.5,568.0,0.62,0.74,-0.15,1.29,2.42,-3.71
2024-12-06 13:34:48.146,85.05,550.0,0.62,0.74,-0.15,1.53,2.17,-3.78
2024-12-06 13:34:48.159,85.28,593.0,0.62,0.74,-0.15,1.66,1.93,-3.9
2024-12-06 13:34:48.162,83.47,569.0,0.62,0.74,-0.15,1.66,1.93,-3.9
2024-12-06 13:34:48.169,86.62,545.0,0.63,0.74,-0.15,1.6,1.99,-4.2
2024-12-06 13:34:48.178,83.92,554.0,0.64,0.74,-0.14,1.29,1.74,-4.26
2024-12-06 13:34:48.209,83.7,559.0,0.62,0.75,-0.16,1.35,0.95,-3.84
2024-12-06 13:34:48.218,88.2,546.0,0.62,0.76,-0.16,1.41,1.13,-3.71
2024-12-06 13:34:48.227,85.72,537.0,0.63,0.77,-0.17,1.78,1.13,-3.47
2024-12-06 13:34:48.232,88.65,542.0,0.63,0.77,-0.17,2.14,1.2,-3.17
2024-12-06 13:34:48.238,83.92,551.0,0.63,0.76,-0.17,2.27,1.2,-2.92
2024-12-06 13:34:48.247,82.57,543.0,0.63,0.76,-0.17,2.27,1.2,-2.92
2024-12-06 13:34:48.258,85.72,539.0,0.62,0.75,-0.16,2.33,1.26,-2.92
2024-12-06 13:34:48.263,88.2,563.0,0.62,0.75,-0.16,2.33,1.44,-3.04
2024-12-06 13:34:48.270,89.55,531.0,0.62,0.76,-0.16,2.27,1.5,-3.23
2024-12-06 13:34:48.278,82.8,536.0,0.62,0.76,-0.16,2.27,1.56,-3.29
2024-12-06 13:34:48.286,87.52,536.0,0.62,0.76,-0.16,2.45,1.68,-3.04
2024-12-06 13:34:48.296,85.28,541.0,0.63,0.77,-0.16,2.45,1.81,-2.68
2024-12-06 13:34:48.302,90.0,542.0,0.63,0.76,-0.16,2.57,1.81,-2.68
2024-12-06 13:34:48.321,81.67,531.0,0.62,0.75,-0.15,2.75,2.29,-2.56
2024-12-06 13:34:48.326,84.38,537.0,0.61,0.76,-0.15,2.69,2.66,-2.62
2024-12-06 13:34:48.353,88.2,544.0,0.61,0.76,-0.15,2.75,3.03,-2.68
2024-12-06 13:34:48.369,86.17,524.0,0.62,0.77,-0.16,3.49,3.03,-2.98
2024-12-06 13:34:48.372,85.95,547.0,0.62,0.77,-0.16,3.91,3.09,-3.1
2024-12-06 13:34:48.385,83.7,524.0,0.62,0.77,-0.16,4.34,2.9,-3.47
2024-12-06 13:34:48.389,85.05,539.0,0.61,0.76,-0.16,4.34,2.9,-3.47
2024-12-06 13:34:48.398,82.8,522.0,0.61,0.77,-0.16,4.65,2.66,-4.14
2024-12-06 13:34:48.429,87.52,527.0,0.61,0.77,-0.16,5.93,2.9,-5.55
2024-12-06 13:34:48.438,85.28,523.0,0.6,0.77,-0.16,6.36,3.45,-5.79
2024-12-06 13:34:48.443,86.85,524.0,0.6,0.77,-0.17,6.91,3.76,-5.85
2024-12-06 13:34:48.449,88.88,521.0,0.6,0.77,-0.17,7.27,4.13,-5.91
2024-12-06 13:34:48.456,86.62,520.0,0.6,0.77,-0.17,7.45,5.04,-5.67
2024-12-06 13:34:48.470,87.07,543.0,0.6,0.77,-0.17,7.58,6.26,-5.3
2024-12-06 13:34:48.474,86.62,576.0,0.59,0.77,-0.17,7.58,6.26,-5.3
2024-12-06 13:34:48.482,83.92,544.0,0.59,0.78,-0.18,7.7,7.24,-4.87
2024-12-06 13:34:48.488,88.88,522.0,0.6,0.78,-0.18,7.7,8.28,-4.33
2024-12-06 13:34:48.496,85.28,517.0,0.6,0.79,-0.18,7.64,9.25,-3.71
2024-12-06 13:34:48.509,85.05,530.0,0.6,0.79,-0.18,7.58,9.68,-2.98
2024-12-06 13:34:48.514,85.72,519.0,0.6,0.79,-0.18,7.52,9.86,-2.25
2024-12-06 13:34:48.526,84.38,529.0,0.61,0.8,-0.19,7.52,9.86,-2.25
2024-12-06 13:34:48.531,87.52,509.0,0.62,0.8,-0.19,7.27,10.41,-1.33
2024-12-06 13:34:48.536,83.25,512.0,0.62,0.8,-0.18,6.97,10.53,-0.54
2024-12-06 13:34:48.554,87.07,511.0,0.62,0.8,-0.17,6.54,10.78,0.37
2024-12-06 13:34:48.662,85.28,537.0,0.62,0.8,-0.16,6.17,10.6,0.92
2024-12-06 13:34:48.673,83.25,524.0,0.59,0.76,-0.16,8.37,2.72,-3.47
2024-12-06 13:34:48.684,84.6,502.0,0.59,0.77,-0.16,8.37,2.72,-3.47
2024-12-06 13:34:48.693,82.8,497.0,0.59,0.77,-0.17,7.64,3.39,-3.23
2024-12-06 13:34:48.698,80.32,517.0,0.59,0.78,-0.17,6.78,4.13,-3.17
2024-12-06 13:34:48.704,88.2,515.0,0.6,0.78,-0.17,5.99,4.37,-3.17
2024-12-06 13:34:48.714,83.03,507.0,0.6,0.78,-0.17,5.38,4.13,-3.1
2024-12-06 13:34:48.720,85.95,506.0,0.61,0.78,-0.17,4.71,2.78,-2.86
2024-12-06 13:34:48.729,85.28,508.0,0.61,0.79,-0.16,4.71,2.78,-2.86
2024-12-06 13:34:48.735,83.7,505.0,0.62,0.81,-0.16,3.43,-0.09,-2.19
2024-12-06 13:34:48.744,82.12,512.0,0.61,0.81,-0.17,2.27,1.93,-1.64
2024-12-06 13:34:48.753,86.4,505.0,0.6,0.81,-0.17,1.78,3.09,-0.91
2024-12-06 13:34:48.758,87.3,523.0,0.6,0.81,-0.17,1.29,2.6,-0.17
2024-12-06 13:34:48.770,83.03,519.0,0.6,0.81,-0.17,0.68,1.99,0.19
2024-12-06 13:34:48.780,83.47,497.0,0.6,0.79,-0.16,0.68,1.99,0.19
2024-12-06 13:34:48.785,86.17,571.0,0.61,0.78,-0.15,0.62,1.44,0.5
2024-12-06 13:34:48.792,78.53,515.0,0.62,0.77,-0.14,0.5,0.83,0.74
2024-12-06 13:34:48.807,83.47,499.0,0.62,0.77,-0.15,-0.11,-0.15,0.92
2024-12-06 13:34:48.817,83.92,485.0,0.62,0.77,-0.15,-0.54,1.07,0.98
2024-12-06 13:34:48.820,79.42,513.0,0.61,0.77,-0.17,-0.54,1.07,0.74
2024-12-06 13:34:48.822,79.42,523.0,0.6,0.76,-0.17,-0.11,2.84,0.74
2024-12-06 13:34:48.832,73.35,532.0,0.6,0.76,-0.17,0.68,1.38,0.37
2024-12-06 13:34:48.836,84.15,514.0,0.6,0.75,-0.17,0.92,-0.88,0.01
2024-12-06 13:34:48.847,84.15,509.0,0.6,0.76,-0.16,0.62,-1.43,-0.11
2024-12-06 13:34:48.878,82.35,514.0,0.6,0.74,-0.17,0.92,-1.43,-0.05
2024-12-06 13:34:48.882,78.07,504.0,0.61,0.75,-0.19,1.05,-1.61,-0.05
2024-12-06 13:34:48.890,81.9,516.0,0.61,0.75,-0.19,1.53,-1.37,0.07
2024-12-06 13:34:48.899,73.35,513.0,0.6,0.76,-0.19,1.53,-1.73,0.13
2024-12-06 13:34:48.906,78.3,504.0,0.6,0.77,-0.18,1.9,-1.73,0.13
2024-12-06 13:34:48.914,78.07,510.0,0.59,0.77,-0.19,2.14,-0.94,0.01
2024-12-06 13:34:48.922,77.62,501.0,0.6,0.77,-0.18,2.57,-0.51,-0.11
2024-12-06 13:34:48.933,77.62,498.0,0.6,0.77,-0.18,2.94,-0.09,-0.11
2024-12-06 13:34:48.938,69.53,524.0,0.6,0.77,-0.18,3.24,0.28,-0.17
2024-12-06 13:34:48.947,78.3,524.0,0.6,0.77,-0.17,3.49,0.16,-0.42
2024-12-06 13:34:48.961,73.57,511.0,0.6,0.77,-0.16,3.49,0.16,-0.42
2024-12-06 13:34:48.963,80.1,496.0,0.59,0.77,-0.17,3.67,-0.45,-0.66
2024-12-06 13:34:48.969,72.45,502.0,0.6,0.76,-0.19,4.04,0.71,-1.03
2024-12-06 13:34:48.978,72.67,550.0,0.6,0.76,-0.18,4.46,0.71,-1.21
2024-12-06 13:34:48.985,73.8,511.0,0.6,0.76,-0.18,4.71,-0.03,-1.4
2024-12-06 13:34:48.995,75.38,518.0,0.6,0.76,-0.17,4.71,-0.45,-1.7
2024-12-06 13:34:49.4,73.57,521.0,0.59,0.76,-0.17,4.77,-0.45,-1.7
2024-12-06 13:34:49.14,73.8,502.0,0.59,0.77,-0.18,4.83,-0.7,-1.94
2024-12-06 13:34:49.20,70.65,540.0,0.59,0.78,-0.18,4.71,-0.57,-1.88
2024-12-06 13:34:49.28,69.3,502.0,0.59,0.79,-0.18,4.52,-0.27,-1.82
2024-12-06 13:34:49.55,73.57,534.0,0.59,0.77,-0.18,4.16,0.22,-1.76
2024-12-06 13:34:49.60,73.12,515.0,0.59,0.76,-0.18,3.91,-0.21,-1.94
2024-12-06 13:34:49.64,75.15,512.0,0.59,0.76,-0.18,3.61,-0.57,-2.25
2024-12-06 13:34:49.75,71.78,505.0,0.59,0.76,-0.18,3.49,-1.06,-2.43
2024-12-06 13:34:49.117,69.97,532.0,0.59,0.77,-0.18,3.0,-0.7,-2.43
2024-12-06 13:34:49.120,67.95,474.0,0.59,0.77,-0.18,2.88,-0.15,-2.25
2024-12-06 13:34:49.124,68.85,517.0,0.58,0.77,-0.18,2.88,-0.15,-2.25
2024-12-06 13:34:49.148,68.85,509.0,0.58,0.76,-0.17,2.69,-0.09,-2.19
2024-12-06 13:34:49.151,68.62,555.0,0.58,0.76,-0.17,2.14,0.16,-2.43
2024-12-06 13:34:49.156,65.7,501.0,0.58,0.76,-0.17,1.84,0.34,-2.56
2024-12-06 13:34:49.164,67.28,516.0,0.59,0.76,-0.18,1.53,0.46,-2.68
2024-12-06 13:34:49.175,68.62,507.0,0.59,0.76,-0.18,1.53,0.46,-2.68
2024-12-06 13:34:49.179,67.05,505.0,0.59,0.77,-0.18,1.17,0.34,-2.62
2024-12-06 13:34:49.191,65.25,491.0,0.58,0.77,-0.18,0.98,0.4,-2.62
2024-12-06 13:34:49.195,68.17,513.0,0.59,0.77,-0.19,0.92,0.28,-2.62
2024-12-06 13:34:49.205,68.85,504.0,0.59,0.77,-0.19,0.8,-0.39,-2.74
2024-12-06 13:34:49.212,68.62,512.0,0.59,0.77,-0.19,0.68,-0.64,-2.86
2024-12-06 13:34:49.218,67.72,497.0,0.59,0.76,-0.19,0.68,-0.64,-2.86
2024-12-06 13:34:49.226,67.72,507.0,0.59,0.76,-0.18,0.56,-0.94,-2.86
2024-12-06 13:34:49.234,67.5,503.0,0.59,0.76,-0.18,0.37,-0.94,-2.98
2024-12-06 13:34:49.253,69.07,494.0,0.59,0.77,-0.18,0.07,-1.18,-2.68
2024-12-06 13:34:49.270,65.92,516.0,0.58,0.77,-0.19,0.19,-0.57,-2.68
2024-12-06 13:34:49.272,62.1,513.0,0.58,0.77,-0.19,0.19,-0.57,-2.68
2024-12-06 13:34:49.282,67.28,500.0,0.58,0.77,-0.19,0.5,-0.64,-2.62
2024-12-06 13:34:49.286,64.8,510.0,0.57,0.77,-0.2,0.56,-0.82,-2.62
2024-12-06 13:34:49.288,65.25,512.0,0.57,0.77,-0.2,0.68,-0.94,-2.68
2024-12-06 13:34:49.296,61.88,516.0,0.57,0.78,-0.2,0.8,-1.12,-2.62
2024-12-06 13:34:49.330,62.32,505.0,0.58,0.79,-0.2,0.8,-0.88,-2.31
2024-12-06 13:34:49.336,66.6,492.0,0.58,0.79,-0.2,0.68,-0.64,-1.76
2024-12-06 13:34:49.340,63.22,510.0,0.58,0.79,-0.2,0.74,-0.64,-1.94
2024-12-06 13:34:49.342,60.07,521.0,0.58,0.78,-0.2,0.8,-0.94,-2.01
2024-12-06 13:34:49.350,62.55,492.0,0.58,0.78,-0.2,0.8,-0.94,-2.01
2024-12-06 13:34:49.358,61.65,495.0,0.58,0.79,-0.2,0.74,-0.64,-1.94
2024-12-06 13:34:49.372,58.95,508.0,0.58,0.79,-0.19,0.8,-0.39,-1.82
2024-12-06 13:34:49.375,62.32,503.0,0.57,0.79,-0.19,0.8,-0.09,-1.58
2024-12-06 13:34:49.389,55.57,513.0,0.57,0.79,-0.19,0.74,-0.03,-1.27
2024-12-06 13:34:49.391,60.97,502.0,0.57,0.79,-0.19,0.86,0.04,-1.15
2024-12-06 13:34:49.405,59.85,504.0,0.56,0.78,-0.19,0.86,0.04,-1.15
2024-12-06 13:34:49.419,62.77,497.0,0.56,0.77,-0.2,1.11,-0.15,-1.33
2024-12-06 13:34:49.423,60.07,490.0,0.57,0.78,-0.2,1.23,-0.88,-1.64
2024-12-06 13:34:49.427,56.25,495.0,0.57,0.78,-0.2,1.05,-0.64,-1.58
2024-12-06 13:34:49.437,56.92,510.0,0.58,0.79,-0.19,1.05,-0.64,-1.58
2024-12-06 13:34:49.443,56.7,513.0,0.57,0.79,-0.2,0.92,-0.33,-1.4
2024-12-06 13:34:49.452,54.45,499.0,0.56,0.79,-0.2,1.11,-0.33,-1.46
2024-12-06 13:34:49.460,53.77,503.0,0.57,0.79,-0.2,1.41,-0.94,-1.52
2024-12-06 13:34:49.466,57.15,501.0,0.57,0.79,-0.2,1.47,-1.25,-1.4
2024-12-06 13:34:49.474,59.62,512.0,0.57,0.8,-0.2,1.35,-0.94,-1.15
2024-12-06 13:34:49.485,55.57,504.0,0.57,0.8,-0.2,1.35,-0.94,-1.15
2024-12-06 13:34:49.491,55.35,507.0,0.57,0.8,-0.2,1.17,-0.33,-0.97
2024-12-06 13:34:49.498,53.1,505.0,0.56,0.8,-0.2,1.11,0.4,-1.03
2024-12-06 13:34:49.507,57.82,500.0,0.57,0.79,-0.2,1.23,0.4,-1.15
2024-12-06 13:34:49.515,55.12,508.0,0.57,0.79,-0.2,1.35,0.28,-1.15
2024-12-06 13:34:49.522,57.6,518.0,0.57,0.79,-0.2,1.47,0.59,-0.91
2024-12-06 13:34:49.559,51.75,486.0,0.57,0.78,-0.21,2.51,0.89,-0.72
2024-12-06 13:34:49.574,54.0,503.0,0.57,0.79,-0.21,2.69,0.4,-0.85
2024-12-06 13:34:49.583,49.27,504.0,0.57,0.79,-0.2,2.63,0.4,-0.91
2024-12-06 13:34:49.585,53.55,508.0,0.57,0.79,-0.2,2.51,1.07,-0.79
2024-12-06 13:34:49.592,51.3,504.0,0.56,0.79,-0.21,2.51,1.56,-0.66
2024-12-06 13:34:49.598,49.95,502.0,0.56,0.79,-0.21,2.88,1.5,-0.54
2024-12-06 13:34:49.605,52.88,492.0,0.57,0.78,-0.22,2.88,1.5,-0.54
2024-12-06 13:34:49.615,47.25,498.0,0.58,0.78,-0.22,3.18,0.95,-0.24
2024-12-06 13:34:49.718,42.97,496.0,0.55,0.77,-0.19,2.63,-1.37,-0.85
2024-12-06 13:34:49.720,41.62,523.0,0.55,0.78,-0.2,2.63,-1.37,-0.85
2024-12-06 13:34:49.727,43.88,504.0,0.55,0.79,-0.2,2.57,-0.45,-0.85
2024-12-06 13:34:49.736,43.65,511.0,0.55,0.79,-0.2,2.51,0.65,-0.79
2024-12-06 13:34:49.743,45.67,510.0,0.56,0.79,-0.2,2.33,1.44,-0.6
2024-12-06 13:34:49.751,43.42,505.0,0.55,0.78,-0.21,2.27,1.99,-0.72
2024-12-06 13:34:49.766,42.97,493.0,0.55,0.78,-0.21,2.21,1.62,-0.97
2024-12-06 13:34:49.768,43.2,501.0,0.55,0.78,-0.21,2.21,1.62,-1.21
2024-12-06 13:34:49.779,40.05,502.0,0.56,0.78,-0.21,1.96,0.89,-1.21
2024-12-06 13:34:49.783,42.08,518.0,0.56,0.78,-0.21,1.66,0.28,-1.4
2024-12-06 13:34:49.815,44.55,500.0,0.56,0.78,-0.21,1.29,0.22,-1.27
2024-12-06 13:34:49.818,43.42,502.0,0.55,0.78,-0.21,1.17,-0.7,-1.64
2024-12-06 13:34:49.820,40.27,491.0,0.56,0.79,-0.21,1.11,-1.43,-1.76
2024-12-06 13:34:49.831,39.6,502.0,0.56,0.8,-0.2,0.86,-1.55,-1.76
2024-12-06 13:34:49.841,43.2,502.0,0.56,0.8,-0.2,0.68,-0.94,-1.46
2024-12-06 13:34:49.844,42.08,506.0,0.56,0.8,-0.2,0.68,-0.39,-1.33
2024-12-06 13:34:49.854,36.45,492.0,0.55,0.8,-0.21,0.86,-0.27,-1.27
2024-12-06 13:34:49.860,38.02,487.0,0.56,0.8,-0.21,0.86,-0.27,-1.27
2024-12-06 13:34:49.869,40.27,498.0,0.57,0.8,-0.22,1.11,-0.33,-1.03
2024-12-06 13:34:49.876,34.65,513.0,0.57,0.8,-0.21,1.17,-0.27,-0.72
2024-12-06 13:34:49.883,35.77,482.0,0.57,0.8,-0.2,1.11,0.04,-0.48
2024-12-06 13:34:49.892,36.45,485.0,0.57,0.8,-0.2,0.8,0.59,0.01
2024-12-06 13:34:49.912,38.92,484.0,0.57,0.78,-0.19,0.62,0.65,0.07
2024-12-06 13:34:49.914,34.65,492.0,0.57,0.77,-0.2,0.5,-0.15,0.07
2024-12-06 13:34:49.929,37.12,510.0,0.57,0.77,-0.2,0.37,-0.88,0.13
2024-12-06 13:34:49.931,35.55,486.0,0.57,0.77,-0.2,0.37,-1.25,0.25
2024-12-06 13:34:49.937,32.85,492.0,0.57,0.77,-0.2,0.5,-1.31,0.31
2024-12-06 13:34:49.946,33.08,496.0,0.57,0.77,-0.2,0.5,-1.31,0.07
2024-12-06 13:34:49.953,32.62,494.0,0.56,0.77,-0.21,0.74,-1.37,0.07
2024-12-06 13:34:49.961,29.47,500.0,0.56,0.78,-0.21,0.86,-1.73,0.01
2024-12-06 13:34:49.970,32.85,495.0,0.56,0.79,-0.21,0.92,-1.86,-0.11
2024-12-06 13:34:49.978,35.1,493.0,0.56,0.79,-0.21,0.86,-1.37,0.07
2024-12-06 13:34:49.987,27.67,495.0,0.56,0.79,-0.21,0.86,-0.7,0.31
2024-12-06 13:34:50.22,29.47,475.0,0.56,0.79,-0.22,1.05,-0.39,0.5
2024-12-06 13:34:50.25,29.92,483.0,0.56,0.79,-0.22,0.92,0.1,0.68
2024-12-06 13:34:50.35,30.6,492.0,0.56,0.79,-0.21,0.98,0.34,0.56
2024-12-06 13:34:50.41,29.02,479.0,0.55,0.78,-0.21,0.98,0.34,0.56
2024-12-06 13:34:50.48,27.22,494.0,0.55,0.78,-0.22,1.29,-0.15,0.19
2024-12-06 13:34:50.60,28.12,505.0,0.56,0.78,-0.23,1.41,-0.51,0.01
2024-12-06 13:34:50.70,25.2,482.0,0.56,0.79,-0.22,1.47,-0.64,0.01
2024-12-06 13:34:50.72,26.1,482.0,0.56,0.79,-0.21,1.53,-0.45,0.19
2024-12-06 13:34:50.79,26.1,495.0,0.55,0.8,-0.21,1.53,-0.57,0.13
2024-12-06 13:34:50.92,29.92,481.0,0.55,0.79,-0.21,1.53,-0.57,0.13
2024-12-06 13:34:50.96,27.67,497.0,0.55,0.78,-0.22,1.6,-0.88,-0.17
2024-12-06 13:34:50.104,29.02,499.0,0.56,0.78,-0.22,1.47,-0.82,-0.3
2024-12-06 13:34:50.111,24.07,497.0,0.56,0.79,-0.22,1.35,-0.27,-0.24
2024-12-06 13:34:50.119,22.05,502.0,0.56,0.79,-0.22,1.35,0.1,-0.11
2024-12-06 13:34:50.126,25.88,492.0,0.55,0.79,-0.21,1.53,0.16,-0.11
2024-12-06 13:34:50.134,24.75,495.0,0.54,0.79,-0.22,1.53,0.16,-0.11
2024-12-06 13:34:50.143,27.0,488.0,0.54,0.79,-0.22,1.72,-0.21,-0.3
2024-12-06 13:34:50.151,27.67,493.0,0.55,0.79,-0.22,1.84,-0.64,-0.36
2024-12-06 13:34:50.157,26.32,483.0,0.55,0.79,-0.22,1.66,-0.33,-0.24
2024-12-06 13:34:50.168,25.88,485.0,0.55,0.79,-0.22,1.6,0.59,-0.05
2024-12-06 13:34:50.178,25.2,473.0,0.55,0.79,-0.21,1.47,0.77,0.07
2024-12-06 13:34:50.182,22.95,492.0,0.54,0.78,-0.21,1.47,0.77,0.07
2024-12-06 13:34:50.188,22.72,476.0,0.55,0.78,-0.22,1.6,0.77,-0.05
2024-12-06 13:34:50.198,21.15,483.0,0.56,0.78,-0.22,1.78,0.52,0.01
2024-12-06 13:34:50.209,24.3,475.0,0.56,0.79,-0.22,1.72,0.1,0.07
2024-12-06 13:34:50.214,22.95,475.0,0.56,0.79,-0.22,1.66,0.1,0.13
2024-12-06 13:34:50.246,20.48,469.0,0.56,0.78,-0.21,1.05,-0.45,0.13
2024-12-06 13:34:50.250,19.57,491.0,0.56,0.78,-0.21,0.98,-0.51,0.19
2024-12-06 13:34:50.258,18.9,489.0,0.56,0.78,-0.21,0.86,-0.27,0.31
2024-12-06 13:34:50.274,15.75,544.0,0.56,0.79,-0.21,0.86,-0.27,0.31
2024-12-06 13:34:50.279,15.75,467.0,0.56,0.79,-0.21,0.74,-0.09,0.44
2024-12-06 13:34:50.286,17.1,468.0,0.56,0.79,-0.21,0.56,0.28,0.74
2024-12-06 13:34:50.296,17.55,482.0,0.55,0.79,-0.21,0.37,0.34,1.05
2024-12-06 13:34:50.308,17.55,471.0,0.55,0.79,-0.21,0.44,-0.21,0.86
2024-12-06 13:34:50.310,20.48,470.0,0.54,0.79,-0.21,0.44,-0.21,0.74
2024-12-06 13:34:50.312,13.72,517.0,0.55,0.78,-0.22,0.62,-0.51,0.74
2024-12-06 13:34:50.322,14.85,479.0,0.56,0.79,-0.22,0.56,0.1,0.74
2024-12-06 13:34:50.330,14.4,483.0,0.55,0.79,-0.21,0.56,0.22,0.8
2024-12-06 13:34:50.335,15.07,463.0,0.55,0.79,-0.22,0.68,0.04,0.86
2024-12-06 13:34:50.343,13.5,482.0,0.55,0.79,-0.22,0.62,-0.09,0.92
2024-12-06 13:34:50.351,15.3,483.0,0.55,0.79,-0.22,0.62,-0.09,0.92
2024-12-06 13:34:50.362,16.65,478.0,0.55,0.79,-0.22,0.62,-1.18,0.62
2024-12-06 13:34:50.368,15.3,466.0,0.55,0.78,-0.23,0.56,-1.67,0.25
2024-12-06 13:34:50.376,17.77,460.0,0.55,0.78,-0.22,0.44,-2.04,-0.17
2024-12-06 13:34:50.385,15.3,471.0,0.55,0.78,-0.22,0.13,-2.1,-0.42
2024-12-06 13:34:50.391,13.5,465.0,0.55,0.79,-0.22,-0.11,-2.41,-0.6
2024-12-06 13:34:50.398,16.88,454.0,0.54,0.79,-0.22,-0.11,-2.41,-0.6
2024-12-06 13:34:50.410,13.95,459.0,0.54,0.79,-0.22,-0.17,-2.41,-0.48
2024-12-06 13:34:50.419,10.57,491.0,0.54,0.8,-0.21,-0.3,-3.32,-0.3
2024-12-06 13:34:50.432,9.68,460.0,0.53,0.8,-0.23,0.01,-4.42,-0.3
2024-12-06 13:34:50.462,13.5,457.0,0.53,0.79,-0.22,0.37,-1.18,-1.15
2024-12-06 13:34:50.467,11.25,474.0,0.53,0.79,-0.22,0.25,-1.49,-1.52
2024-12-06 13:34:50.475,9.9,465.0,0.53,0.78,-0.21,0.31,-4.11,-1.64
2024-12-06 13:34:50.484,6.3,454.0,0.55,0.78,-0.21,0.31,-4.11,-1.64
2024-12-06 13:34:50.493,8.32,460.0,0.55,0.78,-0.24,0.31,-3.26,-1.46
2024-12-06 13:34:50.499,9.9,455.0,0.54,0.79,-0.24,0.44,-1.73,-1.52
2024-12-06 13:34:50.511,6.52,473.0,0.54,0.8,-0.22,0.44,-1.67,-1.7
2024-12-06 13:34:50.515,10.8,497.0,0.54,0.8,-0.22,0.5,-1.18,-1.52
2024-12-06 13:34:50.525,6.75,483.0,0.54,0.8,-0.23,0.62,-0.09,-1.27
2024-12-06 13:34:50.534,6.3,454.0,0.55,0.81,-0.23,0.62,-0.09,-1.27
2024-12-06 13:34:50.549,7.42,448.0,0.54,0.8,-0.23,1.23,-0.09,-0.42
2024-12-06 13:34:50.555,6.75,450.0,0.54,0.8,-0.23,1.41,0.28,-0.17
2024-12-06 13:34:50.559,7.65,457.0,0.54,0.8,-0.24,1.66,0.71,0.01
2024-12-06 13:34:50.570,-0.67,462.0,0.54,0.8,-0.23,1.66,0.71,0.01
2024-12-06 13:34:50.576,3.82,464.0,0.55,0.8,-0.23,1.72,0.95,0.19
2024-12-06 13:34:50.583,5.4,461.0,0.56,0.8,-0.23,1.66,1.56,0.5
2024-12-06 13:34:50.592,8.1,461.0,0.56,0.79,-0.24,1.72,1.99,0.98
2024-12-06 13:34:50.601,2.25,458.0,0.56,0.79,-0.24,2.08,1.32,0.86
2024-12-06 13:34:50.623,3.15,458.0,0.54,0.79,-0.24,2.08,1.32,0.62
2024-12-06 13:34:50.628,1.8,442.0,0.54,0.8,-0.23,2.51,0.28,0.5
2024-12-06 13:34:50.630,3.82,459.0,0.54,0.81,-0.23,2.75,0.04,0.56
2024-12-06 13:34:50.637,3.82,447.0,0.54,0.81,-0.23,2.94,0.4,0.62
2024-12-06 13:34:50.650,3.6,438.0,0.54,0.81,-0.24,3.12,1.07,0.62
2024-12-06 13:34:50.656,2.25,458.0,0.53,0.81,-0.24,3.12,1.07,0.62
2024-12-06 13:34:50.765,-2.7,457.0,0.53,0.81,-0.21,6.54,-4.05,-4.63
2024-12-06 13:34:50.773,-1.57,441.0,0.52,0.8,-0.2,5.87,-5.76,-4.51
2024-12-06 13:34:50.785,-1.8,440.0,0.52,0.78,-0.21,5.68,-4.79,-4.33
2024-12-06 13:34:50.792,-3.38,459.0,0.52,0.75,-0.2,5.38,-3.69,-4.02
2024-12-06 13:34:50.797,-2.7,445.0,0.52,0.78,-0.2,4.83,-3.63,-4.08
2024-12-06 13:34:50.805,-0.9,445.0,0.5,0.78,-0.21,4.83,-3.63,-4.57
2024-12-06 13:34:50.814,-4.72,452.0,0.5,0.77,-0.21,4.1,-4.11,-4.57
2024-12-06 13:34:50.822,-2.47,481.0,0.52,0.77,-0.23,3.73,-4.42,-4.87
2024-12-06 13:34:50.833,-1.57,456.0,0.53,0.77,-0.24,3.61,-2.83,-4.87
2024-12-06 13:34:50.835,-5.62,454.0,0.53,0.77,-0.25,3.55,-0.82,-4.57
2024-12-06 13:34:50.843,-2.02,457.0,0.53,0.78,-0.25,3.37,1.07,-3.96
2024-12-06 13:34:50.856,-2.02,450.0,0.52,0.8,-0.25,3.37,1.07,-3.96
2024-12-06 13:34:50.866,-3.82,456.0,0.5,0.8,-0.25,2.94,2.72,-3.47
2024-12-06 13:34:50.868,-1.8,443.0,0.5,0.79,-0.24,2.51,3.15,-3.04
2024-12-06 13:34:50.875,-2.02,447.0,0.51,0.8,-0.24,2.14,3.15,-2.13
2024-12-06 13:34:50.910,1.35,457.0,0.51,0.8,-0.25,1.66,3.82,-1.33
2024-12-06 13:34:50.919,1.35,453.0,0.54,0.78,-0.24,0.31,4.19,-0.54
2024-12-06 13:34:50.922,-3.82,451.0,0.54,0.78,-0.24,0.07,4.0,-0.6
2024-12-06 13:34:50.927,-1.35,455.0,0.54,0.78,-0.24,-0.11,3.58,-0.66
2024-12-06 13:34:50.935,-0.67,469.0,0.54,0.78,-0.24,-0.11,3.58,-0.66
2024-12-06 13:34:50.949,-1.12,449.0,0.54,0.78,-0.23,-0.17,2.78,-0.72
2024-12-06 13:34:50.952,-2.02,459.0,0.54,0.78,-0.23,-0.24,1.87,-0.72
2024-12-06 13:34:50.959,0.67,458.0,0.54,0.79,-0.23,-0.42,1.56,-0.6
2024-12-06 13:34:50.967,0.67,481.0,0.54,0.79,-0.23,-0.54,1.5,-0.48
2024-12-06 13:34:50.975,-5.4,450.0,0.54,0.79,-0.24,-0.66,1.32,-0.3
2024-12-06 13:34:50.984,1.12,448.0,0.54,0.8,-0.24,-0.66,1.32,-0.3
2024-12-06 13:34:50.991,-1.35,462.0,0.54,0.8,-0.24,-0.91,1.68,-0.05
2024-12-06 13:34:50.998,1.35,454.0,0.53,0.8,-0.24,-1.09,1.99,0.13
2024-12-06 13:34:51.6,-0.22,463.0,0.53,0.8,-0.24,-1.21,1.93,0.31
2024-12-06 13:34:51.14,-2.92,450.0,0.53,0.8,-0.24,-1.33,1.81,0.56
2024-12-06 13:34:51.22,-2.47,428.0,0.53,0.8,-0.24,-1.46,2.05,0.86
2024-12-06 13:34:51.30,-5.4,445.0,0.53,0.8,-0.24,-1.46,2.05,0.86
2024-12-06 13:34:51.38,-0.22,466.0,0.53,0.8,-0.24,-1.52,2.17,1.05
2024-12-06 13:34:51.46,-4.28,468.0,0.53,0.8,-0.25,-1.58,2.17,1.11
2024-12-06 13:34:51.54,-2.25,446.0,0.53,0.8,-0.24,-1.7,2.05,1.29
2024-12-06 13:34:51.63,-4.5,449.0,0.53,0.8,-0.24,-1.76,1.93,1.47
2024-12-06 13:34:51.70,0.22,459.0,0.53,0.8,-0.24,-1.76,2.17,1.6
2024-12-06 13:34:51.77,-4.28,449.0,0.53,0.8,-0.24,-1.76,2.17,1.6
2024-12-06 13:34:51.87,-0.9,468.0,0.53,0.8,-0.24,-1.7,2.29,1.72
2024-12-06 13:34:51.94,-4.05,470.0,0.53,0.8,-0.24,-1.58,2.29,1.84
2024-12-06 13:34:51.101,-4.72,464.0,0.53,0.8,-0.24,-1.46,2.48,1.96
2024-12-06 13:34:51.135,-4.28,460.0,0.53,0.8,-0.24,-0.91,2.6,2.27
2024-12-06 13:34:51.139,0.0,455.0,0.53,0.81,-0.25,-0.79,2.9,2.33
2024-12-06 13:34:51.149,-2.02,468.0,0.53,0.81,-0.25,-0.66,3.15,2.27
2024-12-06 13:34:51.155,1.12,462.0,0.53,0.81,-0.25,-0.42,2.84,2.21
2024-12-06 13:34:51.163,-1.12,430.0,0.53,0.81,-0.25,-0.42,2.84,2.21
2024-12-06 13:34:51.170,-4.28,462.0,0.52,0.81,-0.25,-0.05,2.23,1.96
2024-12-06 13:34:51.178,-0.67,425.0,0.53,0.81,-0.26,0.25,2.48,1.9
2024-12-06 13:34:51.186,-5.4,449.0,0.52,0.81,-0.25,0.56,2.6,1.9
2024-12-06 13:34:51.194,0.0,464.0,0.52,0.8,-0.25,0.86,2.54,1.66
2024-12-06 13:34:51.202,-4.72,448.0,0.52,0.8,-0.25,1.23,2.6,1.41
2024-12-06 13:34:51.210,-0.45,467.0,0.52,0.8,-0.25,1.23,2.6,1.41
2024-12-06 13:34:51.219,-4.28,455.0,0.52,0.79,-0.25,1.47,2.17,1.11
2024-12-06 13:34:51.226,-0.22,472.0,0.52,0.79,-0.25,1.78,1.99,0.8
2024-12-06 13:34:51.234,-3.6,457.0,0.51,0.8,-0.24,1.96,1.62,0.5
2024-12-06 13:34:51.244,-4.72,524.0,0.51,0.8,-0.24,1.9,0.95,0.19
2024-12-06 13:34:51.260,-4.72,460.0,0.51,0.8,-0.24,1.66,0.59,-0.11
2024-12-06 13:34:51.266,-1.35,487.0,0.51,0.8,-0.24,1.66,0.59,-0.11
2024-12-06 13:34:51.272,-3.6,487.0,0.51,0.81,-0.24,1.6,0.59,-0.36
2024-12-06 13:34:51.274,2.25,456.0,0.52,0.81,-0.25,1.66,1.5,-0.3
2024-12-06 13:34:51.282,-4.5,475.0,0.52,0.81,-0.25,2.02,3.03,0.01
2024-12-06 13:34:51.287,-2.25,452.0,0.52,0.81,-0.25,2.02,3.27,0.31
2024-12-06 13:34:51.295,-4.28,459.0,0.52,0.81,-0.24,2.02,3.27,0.5
2024-12-06 13:34:51.304,-2.7,459.0,0.52,0.81,-0.23,1.96,3.09,0.5
2024-12-06 13:34:51.311,-4.72,491.0,0.52,0.81,-0.23,2.02,3.15,0.5
2024-12-06 13:34:51.321,-2.92,459.0,0.52,0.81,-0.23,2.08,3.39,0.44
2024-12-06 13:34:51.327,-0.67,466.0,0.54,0.81,-0.24,2.02,3.88,0.5
2024-12-06 13:34:51.362,1.12,465.0,0.54,0.81,-0.24,2.14,4.74,0.86
2024-12-06 13:34:51.370,0.0,469.0,0.54,0.79,-0.22,2.08,5.04,2.02
2024-12-06 13:34:51.374,-2.47,480.0,0.54,0.79,-0.22,2.27,6.14,2.02
2024-12-06 13:34:51.380,-3.6,475.0,0.5,0.78,-0.31,2.27,6.14,-13.6
2024-12-06 13:34:51.395,-1.8,472.0,0.51,0.81,-0.22,1.84,14.81,1.35
2024-12-06 13:34:51.397,-2.47,483.0,0.55,0.83,-0.1,2.08,-0.21,3.24
2024-12-06 13:34:51.405,0.45,478.0,0.56,0.8,-0.26,1.11,-1.0,4.46
2024-12-06 13:34:51.411,-2.47,472.0,0.56,0.8,-0.26,0.98,5.22,4.65
2024-12-06 13:34:51.418,-4.05,482.0,0.57,0.78,-0.26,1.23,0.22,4.83
2024-12-06 13:34:51.428,-3.82,466.0,0.57,0.77,-0.21,1.23,0.22,4.83
2024-12-06 13:34:51.436,-1.12,462.0,0.56,0.75,-0.25,0.62,-0.76,4.28
2024-12-06 13:34:51.445,-4.95,475.0,0.56,0.75,-0.24,-0.24,-0.39,3.24
2024-12-06 13:34:51.454,-4.05,466.0,0.55,0.76,-0.23,-0.97,-1.8,2.45
2024-12-06 13:34:51.460,-1.57,470.0,0.55,0.76,-0.24,-1.76,-1.67,1.84
2024-12-06 13:34:51.470,-1.12,455.0,0.53,0.77,-0.24,-2.19,-1.37,1.47
2024-12-06 13:34:51.476,-1.8,474.0,0.51,0.79,-0.23,-2.19,-1.37,1.47
2024-12-06 13:34:51.484,1.12,477.0,0.5,0.8,-0.22,-2.25,-1.8,1.47
2024-12-06 13:34:51.489,-2.47,466.0,0.5,0.8,-0.22,-2.13,-0.94,1.78
2024-12-06 13:34:51.497,-1.8,472.0,0.5,0.8,-0.22,-1.94,0.4,2.39
2024-12-06 13:34:51.507,-4.5,479.0,0.5,0.8,-0.22,-1.7,2.05,2.88
2024-12-06 13:34:51.513,-0.67,476.0,0.51,0.8,-0.22,-1.33,3.94,2.88
2024-12-06 13:34:51.520,0.22,482.0,0.51,0.79,-0.22,-1.33,3.94,2.88
2024-12-06 13:34:51.528,-1.12,464.0,0.52,0.78,-0.22,-1.15,4.74,2.57
2024-12-06 13:34:51.537,-2.7,495.0,0.54,0.78,-0.23,-1.03,4.37,2.02
2024-12-06 13:34:51.545,-1.35,477.0,0.54,0.78,-0.23,-1.03,3.94,1.29
2024-12-06 13:34:51.558,-1.57,477.0,0.54,0.78,-0.23,-1.15,2.6,0.44
2024-12-06 13:34:51.588,-0.9,484.0,0.53,0.78,-0.24,-2.31,-3.38,-2.62
2024-12-06 13:34:51.595,0.45,470.0,0.53,0.78,-0.24,-2.56,-4.72,-3.35
2024-12-06 13:34:51.603,1.35,476.0,0.53,0.79,-0.24,-2.74,-5.58,-3.84
2024-12-06 13:34:51.606,-5.17,480.0,0.52,0.79,-0.24,-2.74,-5.58,-3.84
2024-12-06 13:34:51.613,-2.92,470.0,0.53,0.8,-0.25,-2.74,-5.58,-3.84
2024-12-06 13:34:51.621,-4.5,467.0,0.53,0.81,-0.25,-2.86,-4.18,-3.35
2024-12-06 13:34:51.631,-0.45,441.0,0.52,0.83,-0.24,-2.37,-2.83,-2.25
2024-12-06 13:34:51.637,-0.22,479.0,0.52,0.83,-0.24,-1.64,-1.55,-1.33
2024-12-06 13:34:51.647,-1.35,471.0,0.51,0.83,-0.24,-0.97,0.34,-0.48
2024-12-06 13:34:51.652,-2.7,473.0,0.52,0.84,-0.25,-0.97,0.34,-0.48
2024-12-06 13:34:51.662,-3.38,470.0,0.54,0.83,-0.24,-0.3,2.48,0.44
2024-12-06 13:34:51.668,-1.12,470.0,0.54,0.82,-0.24,0.25,4.43,1.11
2024-12-06 13:34:51.679,-4.05,482.0,0.55,0.81,-0.23,0.74,5.53,1.47
2024-12-06 13:34:51.684,-4.5,465.0,0.55,0.81,-0.23,1.05,5.29,1.47
2024-12-06 13:34:51.692,-1.35,466.0,0.55,0.81,-0.23,1.29,4.43,1.35
2024-12-06 13:34:51.702,-3.82,480.0,0.55,0.8,-0.23,1.29,4.43,1.35
2024-12-06 13:34:51.708,-4.5,490.0,0.55,0.8,-0.24,1.47,3.51,1.17
2024-12-06 13:34:51.813,-2.7,474.0,0.54,0.8,-0.24,1.66,2.97,0.92
2024-12-06 13:34:51.827,-0.22,475.0,0.53,0.8,-0.23,3.3,4.19,1.78
2024-12-06 13:34:51.835,2.02,484.0,0.53,0.8,-0.23,3.3,4.43,1.9
2024-12-06 13:34:51.854,-0.45,477.0,0.53,0.8,-0.23,3.3,4.74,2.02
2024-12-06 13:34:51.858,-4.05,482.0,0.53,0.8,-0.23,3.3,4.74,2.02
2024-12-06 13:34:51.860,0.45,479.0,0.54,0.81,-0.24,3.12,5.16,2.33
2024-12-06 13:34:51.866,-3.6,496.0,0.54,0.81,-0.24,3.0,5.9,2.82
2024-12-06 13:34:51.874,-4.28,476.0,0.55,0.81,-0.23,2.75,6.63,3.49
2024-12-06 13:34:51.883,0.67,488.0,0.55,0.81,-0.23,2.57,6.99,4.22
2024-12-06 13:34:51.889,-0.45,497.0,0.54,0.81,-0.23,2.57,6.99,4.77
2024-12-06 13:34:51.905,-1.35,484.0,0.54,0.8,-0.23,2.27,7.24,4.77
2024-12-06 13:34:51.907,1.8,479.0,0.54,0.79,-0.22,1.96,7.06,5.14
2024-12-06 13:34:51.914,-2.25,491.0,0.54,0.79,-0.22,1.66,6.57,5.26
2024-12-06 13:34:51.922,-3.6,481.0,0.54,0.79,-0.19,1.29,5.9,5.07
2024-12-06 13:34:51.929,1.57,516.0,0.54,0.78,-0.22,0.86,5.22,4.89
2024-12-06 13:34:51.944,0.9,484.0,0.55,0.77,-0.22,0.86,5.22,4.89
2024-12-06 13:34:51.947,-2.47,476.0,0.55,0.77,-0.22,0.44,4.86,4.65
2024-12-06 13:34:51.962,-1.8,514.0,0.54,0.77,-0.22,0.07,4.43,4.46
2024-12-06 13:34:51.979,0.22,494.0,0.54,0.77,-0.22,-0.54,3.76,4.16
2024-12-06 13:34:51.983,1.35,493.0,0.54,0.78,-0.23,-0.54,3.76,4.16
2024-12-06 13:34:51.986,-0.45,473.0,0.54,0.77,-0.23,-0.79,4.49,4.34
2024-12-06 13:34:51.992,-2.02,474.0,0.53,0.77,-0.22,-0.97,5.29,4.59
2024-12-06 13:34:52.3,2.25,496.0,0.52,0.77,-0.22,-1.15,5.65,4.89
2024-12-06 13:34:52.6,-0.22,492.0,0.52,0.77,-0.22,-1.33,6.08,5.07
2024-12-06 13:34:52.44,-3.82,484.0,0.52,0.77,-0.22,-1.52,6.75,5.2
2024-12-06 13:34:52.55,-1.12,475.0,0.55,0.79,-0.22,-2.01,10.23,6.11
2024-12-06 13:34:52.58,-4.28,496.0,0.56,0.79,-0.22,-2.31,11.45,6.48
2024-12-06 13:34:52.67,1.12,480.0,0.56,0.79,-0.21,-2.31,11.45,6.48
2024-12-06 13:34:52.69,0.67,483.0,0.56,0.79,-0.21,-2.37,11.33,6.6
2024-12-06 13:34:52.74,-3.82,506.0,0.57,0.79,-0.2,-2.31,9.74,6.54
2024-12-06 13:34:52.87,-1.57,500.0,0.58,0.79,-0.21,-2.49,8.03,6.48
2024-12-06 13:34:52.97,-2.7,495.0,0.58,0.79,-0.21,-2.43,5.47,5.81
2024-12-06 13:34:52.101,-5.17,508.0,0.56,0.77,-0.2,-2.43,1.74,3.98
2024-12-06 13:34:52.107,-0.67,496.0,0.56,0.76,-0.2,-2.25,1.74,3.98
2024-12-06 13:34:52.113,-0.67,503.0,0.57,0.75,-0.21,-2.25,-0.7,2.21
2024-12-06 13:34:52.128,-2.7,490.0,0.57,0.76,-0.21,-2.19,-2.22,0.74
2024-12-06 13:34:52.130,3.6,493.0,0.56,0.77,-0.22,-1.88,-3.38,-0.42
2024-12-06 13:34:52.136,-2.92,505.0,0.56,0.77,-0.22,-1.64,-3.87,-1.03
2024-12-06 13:34:52.144,2.02,498.0,0.54,0.78,-0.21,-1.64,-3.87,-1.03
2024-12-06 13:34:52.154,3.6,511.0,0.51,0.79,-0.21,-1.27,-4.3,-1.33
2024-12-06 13:34:52.160,1.57,500.0,0.5,0.79,-0.22,-0.85,-4.42,-1.7
2024-12-06 13:34:52.169,5.62,501.0,0.51,0.8,-0.22,-0.54,-3.02,-1.7
2024-12-06 13:34:52.178,6.75,514.0,0.51,0.8,-0.21,-0.36,-1.25,-1.76
2024-12-06 13:34:52.186,4.28,511.0,0.51,0.8,-0.21,-0.17,0.16,-2.01
2024-12-06 13:34:52.192,5.17,512.0,0.51,0.79,-0.21,-0.17,0.16,-2.01
2024-12-06 13:34:52.202,3.15,507.0,0.53,0.79,-0.21,0.19,0.71,-2.74
2024-12-06 13:34:52.207,4.28,504.0,0.55,0.79,-0.22,0.31,1.13,-3.23
2024-12-06 13:34:52.217,4.95,507.0,0.54,0.79,-0.21,0.19,1.26,-3.78
2024-12-06 13:34:52.223,8.55,507.0,0.54,0.79,-0.2,0.13,0.28,-4.63
2024-12-06 13:34:52.235,8.55,513.0,0.54,0.79,-0.2,-0.05,0.52,-5.12
2024-12-06 13:34:52.240,2.7,513.0,0.56,0.79,-0.21,-0.05,0.52,-5.12
2024-12-06 13:34:52.247,10.35,512.0,0.56,0.79,-0.21,-0.3,0.46,-5.18
2024-12-06 13:34:52.254,6.3,502.0,0.55,0.79,-0.21,-0.36,-0.39,-5.36
2024-12-06 13:34:52.263,10.8,517.0,0.56,0.79,-0.22,-0.42,-0.57,-5.12
2024-12-06 13:34:52.269,3.15,517.0,0.56,0.79,-0.22,-0.66,0.28,-4.33
2024-12-06 13:34:52.277,12.15,540.0,0.57,0.79,-0.21,-0.79,0.04,-3.59
2024-12-06 13:34:52.285,15.3,504.0,0.56,0.78,-0.2,-0.79,0.04,-3.59
2024-12-06 13:34:52.293,13.5,507.0,0.55,0.78,-0.2,-0.85,-0.21,-3.35
2024-12-06 13:34:52.301,16.42,531.0,0.57,0.78,-0.21,-1.09,0.4,-2.8
2024-12-06 13:34:52.309,15.3,529.0,0.56,0.79,-0.2,-1.33,0.77,-2.19
2024-12-06 13:34:52.343,13.05,507.0,0.57,0.79,-0.2,-1.94,-0.27,-1.4
2024-12-06 13:34:52.347,13.72,522.0,0.56,0.79,-0.2,-2.07,-0.57,-1.15
2024-12-06 13:34:52.355,17.55,519.0,0.56,0.79,-0.2,-2.25,-1.06,-1.15
2024-12-06 13:34:52.366,19.12,528.0,0.55,0.8,-0.2,-2.68,-1.31,-1.27
2024-12-06 13:34:52.377,20.02,522.0,0.55,0.8,-0.2,-2.68,-1.31,-1.27
2024-12-06 13:34:52.382,16.88,519.0,0.56,0.8,-0.19,-3.1,-0.82,-1.03
2024-12-06 13:34:52.386,17.32,525.0,0.55,0.8,-0.19,-3.47,-0.03,-0.72
2024-12-06 13:34:52.401,17.77,518.0,0.55,0.79,-0.2,-3.71,0.46,-0.3
2024-12-06 13:34:52.403,21.15,513.0,0.55,0.79,-0.2,-3.65,0.34,0.01
2024-12-06 13:34:52.409,17.1,534.0,0.54,0.79,-0.2,-3.53,0.04,0.25
2024-12-06 13:34:52.417,18.45,518.0,0.54,0.79,-0.21,-3.53,0.04,0.25
2024-12-06 13:34:52.426,20.48,529.0,0.54,0.8,-0.21,-3.65,0.46,0.68
2024-12-06 13:34:52.438,23.4,520.0,0.54,0.8,-0.2,-3.78,1.5,0.98
2024-12-06 13:34:52.444,20.02,523.0,0.54,0.81,-0.2,-4.02,2.11,1.41
2024-12-06 13:34:52.448,23.85,489.0,0.54,0.81,-0.2,-4.14,2.11,1.66
2024-12-06 13:34:52.457,18.67,516.0,0.54,0.81,-0.21,-4.2,1.68,1.78
2024-12-06 13:34:52.495,22.05,526.0,0.55,0.81,-0.21,-4.45,0.4,2.21
2024-12-06 13:34:52.502,21.82,519.0,0.55,0.82,-0.21,-4.45,0.4,2.21
2024-12-06 13:34:52.512,22.72,524.0,0.54,0.82,-0.21,-4.45,0.22,2.33
2024-12-06 13:34:52.518,26.55,544.0,0.55,0.81,-0.21,-4.2,-0.15,2.27
2024-12-06 13:34:52.534,27.9,537.0,0.55,0.81,-0.21,-4.14,0.04,2.51
2024-12-06 13:34:52.536,24.52,524.0,0.55,0.81,-0.21,-3.9,0.22,2.88
2024-12-06 13:34:52.542,26.32,526.0,0.55,0.81,-0.21,-3.78,0.22,3.3
2024-12-06 13:34:52.562,25.88,536.0,0.55,0.81,-0.2,-3.78,0.22,3.3
2024-12-06 13:34:52.568,25.42,547.0,0.54,0.81,-0.21,-3.53,0.34,3.61
2024-12-06 13:34:52.571,29.7,540.0,0.54,0.81,-0.21,-3.23,0.28,3.73
2024-12-06 13:34:52.577,27.0,540.0,0.54,0.81,-0.21,-2.92,0.04,3.79
2024-12-06 13:34:52.582,30.15,526.0,0.54,0.81,-0.21,-2.74,-0.03,3.91
2024-12-06 13:34:52.591,25.88,534.0,0.55,0.81,-0.21,-2.74,-0.03,3.98
2024-12-06 13:34:52.598,30.38,521.0,0.54,0.81,-0.21,-2.68,0.4,3.98
2024-12-06 13:34:52.605,27.45,526.0,0.54,0.81,-0.21,-2.62,0.71,3.98
2024-12-06 13:34:52.615,32.85,528.0,0.54,0.81,-0.21,-2.43,0.59,3.79
2024-12-06 13:34:52.621,27.67,528.0,0.54,0.81,-0.21,-2.19,0.59,3.67
2024-12-06 13:34:52.631,30.15,546.0,0.54,0.81,-0.21,-2.07,1.01,3.85
2024-12-06 13:34:52.640,31.27,534.0,0.55,0.81,-0.21,-1.82,1.32,3.91
2024-12-06 13:34:52.662,29.47,544.0,0.53,0.8,-0.2,-1.46,1.07,3.61
2024-12-06 13:34:52.676,34.2,534.0,0.53,0.79,-0.2,-1.15,0.52,3.06
2024-12-06 13:34:52.678,31.27,520.0,0.54,0.79,-0.2,-1.09,0.59,2.57
2024-12-06 13:34:52.682,33.97,535.0,0.54,0.79,-0.2,-1.09,0.59,2.57
2024-12-06 13:34:52.714,30.15,538.0,0.54,0.8,-0.2,-1.33,0.83,1.78
2024-12-06 13:34:52.720,32.4,526.0,0.53,0.8,-0.19,-1.33,0.83,1.78
2024-12-06 13:34:52.732,36.9,529.0,0.53,0.79,-0.19,-1.21,0.71,1.53
2024-12-06 13:34:52.737,36.9,536.0,0.53,0.79,-0.19,-1.4,0.71,1.29
2024-12-06 13:34:52.743,33.97,534.0,0.54,0.8,-0.19,-1.76,0.95,1.29
2024-12-06 13:34:52.760,40.72,539.0,0.54,0.8,-0.18,-1.88,0.77,1.05
2024-12-06 13:34:52.765,38.25,539.0,0.53,0.79,-0.18,-1.88,0.1,0.68
2024-12-06 13:34:52.867,45.0,554.0,0.56,0.8,-0.19,-1.58,0.46,2.21
2024-12-06 13:34:52.876,45.9,548.0,0.56,0.8,-0.19,-1.58,0.71,2.51
2024-12-06 13:34:52.880,44.1,564.0,0.56,0.8,-0.19,-1.58,0.71,2.51
2024-12-06 13:34:52.891,48.15,544.0,0.56,0.81,-0.19,-1.82,0.77,2.75
2024-12-06 13:34:52.897,45.67,551.0,0.56,0.81,-0.19,-2.01,1.13,3.0
2024-12-06 13:34:52.905,45.45,563.0,0.55,0.8,-0.18,-2.13,1.38,3.12
2024-12-06 13:34:52.913,47.92,540.0,0.56,0.8,-0.19,-2.19,1.32,3.24
2024-12-06 13:34:52.957,46.12,563.0,0.56,0.8,-0.18,-2.43,1.07,4.34
2024-12-06 13:34:52.980,53.77,550.0,0.55,0.79,-0.18,-2.56,1.07,4.28
2024-12-06 13:34:52.986,47.47,578.0,0.56,0.79,-0.18,-2.43,0.95,3.85
2024-12-06 13:34:52.989,53.77,557.0,0.56,0.79,-0.18,-2.31,1.01,3.73
2024-12-06 13:34:52.997,50.85,551.0,0.56,0.8,-0.18,-2.13,1.2,3.91
2024-12-06 13:34:53.8,49.27,553.0,0.56,0.8,-0.18,-1.94,1.2,4.04
2024-12-06 13:34:53.13,54.22,538.0,0.55,0.8,-0.18,-1.94,1.2,4.04
2024-12-06 13:34:53.21,51.97,551.0,0.55,0.8,-0.18,-1.82,1.2,4.04
2024-12-06 13:34:53.30,50.62,549.0,0.55,0.79,-0.18,-1.76,1.5,3.91
2024-12-06 13:34:53.36,52.65,563.0,0.55,0.79,-0.18,-1.7,1.74,3.73
2024-12-06 13:34:53.45,52.42,539.0,0.55,0.79,-0.18,-1.64,1.81,3.43
2024-12-06 13:34:53.52,54.22,552.0,0.55,0.79,-0.18,-1.64,1.74,3.0
2024-12-06 13:34:53.60,49.72,549.0,0.54,0.79,-0.18,-1.58,1.62,2.75
2024-12-06 13:34:53.70,50.17,539.0,0.55,0.79,-0.18,-1.58,1.62,2.75
2024-12-06 13:34:53.80,56.25,542.0,0.55,0.8,-0.18,-1.64,1.68,2.82
2024-12-06 13:34:53.84,51.97,554.0,0.55,0.8,-0.18,-1.76,1.62,2.88
2024-12-06 13:34:53.93,54.0,555.0,0.55,0.79,-0.18,-1.94,1.38,2.75
2024-12-06 13:34:53.104,51.3,542.0,0.55,0.79,-0.18,-2.07,1.13,2.57
2024-12-06 13:34:53.109,54.9,550.0,0.55,0.79,-0.18,-2.07,1.13,2.57
2024-12-06 13:34:53.128,56.47,552.0,0.56,0.79,-0.19,-2.13,1.01,2.21
2024-12-06 13:34:53.130,57.82,581.0,0.56,0.8,-0.19,-2.07,1.13,2.27
2024-12-06 13:34:53.138,55.8,601.0,0.56,0.8,-0.18,-2.07,1.38,2.45
2024-12-06 13:34:53.170,58.5,559.0,0.56,0.81,-0.18,-2.19,1.81,3.0
2024-12-06 13:34:53.174,56.92,556.0,0.55,0.81,-0.17,-2.19,2.17,3.12
2024-12-06 13:34:53.176,56.47,592.0,0.56,0.81,-0.17,-2.13,2.42,3.12
2024-12-06 13:34:53.184,49.95,552.0,0.56,0.81,-0.17,-2.13,2.78,3.12
2024-12-06 13:34:53.192,60.97,543.0,0.56,0.81,-0.17,-2.13,2.78,3.06
2024-12-06 13:34:53.200,58.05,560.0,0.56,0.81,-0.17,-2.13,3.03,3.06
2024-12-06 13:34:53.210,55.8,549.0,0.56,0.8,-0.17,-2.01,3.09,2.88
2024-12-06 13:34:53.216,60.52,570.0,0.57,0.8,-0.17,-1.82,2.9,2.88
2024-12-06 13:34:53.224,60.52,569.0,0.57,0.8,-0.17,-1.7,2.54,2.82
2024-12-06 13:34:53.232,57.82,563.0,0.57,0.8,-0.17,-1.52,2.05,2.69
2024-12-06 13:34:53.239,62.1,578.0,0.57,0.79,-0.17,-1.52,1.68,2.45
2024-12-06 13:34:53.247,59.4,566.0,0.56,0.79,-0.17,-1.33,1.68,2.45
2024-12-06 13:34:53.256,58.5,567.0,0.56,0.78,-0.17,-1.15,1.32,2.14
2024-12-06 13:34:53.263,58.95,569.0,0.56,0.78,-0.17,-1.03,1.07,1.9
2024-12-06 13:34:53.271,59.62,559.0,0.56,0.78,-0.17,-0.97,1.01,1.78
2024-12-06 13:34:53.279,56.25,577.0,0.56,0.78,-0.17,-0.85,0.83,1.78
2024-12-06 13:34:53.287,61.2,570.0,0.56,0.78,-0.17,-0.79,0.77,1.78
2024-12-06 13:34:53.295,60.75,562.0,0.56,0.77,-0.17,-0.79,0.77,1.78
2024-12-06 13:34:53.307,62.32,563.0,0.56,0.77,-0.17,-0.66,0.28,1.66
2024-12-06 13:34:53.315,62.55,558.0,0.56,0.77,-0.17,-0.6,-0.51,1.29
2024-12-06 13:34:53.320,62.77,556.0,0.56,0.77,-0.17,-0.72,-0.76,1.17
2024-12-06 13:34:53.328,59.85,557.0,0.56,0.77,-0.17,-1.21,-0.51,1.17
2024-12-06 13:34:53.334,60.3,560.0,0.56,0.79,-0.16,-1.7,0.04,1.35
2024-12-06 13:34:53.342,64.35,560.0,0.56,0.81,-0.16,-1.7,0.04,1.35
2024-12-06 13:34:53.352,66.38,553.0,0.55,0.82,-0.17,-2.25,0.71,1.6
2024-12-06 13:34:53.358,63.0,548.0,0.55,0.82,-0.17,-2.31,1.13,1.72
2024-12-06 13:34:53.366,62.32,570.0,0.56,0.81,-0.17,-2.13,0.77,1.6
2024-12-06 13:34:53.403,65.03,569.0,0.57,0.81,-0.15,-2.98,0.16,1.66
2024-12-06 13:34:53.406,67.95,572.0,0.57,0.81,-0.15,-3.41,0.16,1.66
2024-12-06 13:34:53.416,67.28,570.0,0.57,0.81,-0.15,-3.71,0.28,1.6
2024-12-06 13:34:53.421,64.35,553.0,0.56,0.8,-0.15,-3.71,0.04,1.53
2024-12-06 13:34:53.427,70.42,563.0,0.56,0.78,-0.15,-3.71,0.04,1.53
2024-12-06 13:34:53.435,59.17,565.0,0.56,0.77,-0.15,-3.53,-0.51,1.29
2024-12-06 13:34:53.444,66.15,564.0,0.56,0.77,-0.15,-3.53,-0.94,1.23
2024-12-06 13:34:53.451,65.92,571.0,0.56,0.78,-0.15,-3.65,-0.82,1.35
2024-12-06 13:34:53.461,66.6,566.0,0.56,0.78,-0.15,-3.78,-0.76,1.53
2024-12-06 13:34:53.466,65.7,552.0,0.56,0.79,-0.15,-3.96,-0.57,1.66
2024-12-06 13:34:53.475,65.7,584.0,0.56,0.79,-0.15,-3.96,-0.57,1.66
2024-12-06 13:34:53.487,67.28,613.0,0.57,0.79,-0.15,-4.02,-0.64,1.78
2024-12-06 13:34:53.497,68.4,570.0,0.56,0.78,-0.16,-3.96,-1.12,1.47
2024-12-06 13:34:53.499,69.75,563.0,0.57,0.77,-0.15,-3.9,-2.04,0.8
2024-12-06 13:34:53.507,68.62,586.0,0.57,0.79,-0.15,-4.08,-2.65,0.44
2024-12-06 13:34:53.520,71.78,570.0,0.57,0.79,-0.15,-4.45,-2.77,0.44
2024-12-06 13:34:53.536,72.67,576.0,0.56,0.81,-0.15,-4.51,-2.59,0.62
2024-12-06 13:34:53.542,70.2,575.0,0.56,0.81,-0.16,-4.57,-2.22,0.86
2024-12-06 13:34:53.545,70.42,572.0,0.56,0.79,-0.16,-4.57,-1.92,0.74
2024-12-06 13:34:53.553,73.8,586.0,0.57,0.79,-0.15,-4.63,-1.8,0.74
2024-12-06 13:34:53.568,65.03,587.0,0.57,0.79,-0.15,-4.81,-1.8,0.74
2024-12-06 13:34:53.571,71.78,584.0,0.56,0.8,-0.15,-4.81,-1.8,0.74
2024-12-06 13:34:53.577,74.25,588.0,0.57,0.82,-0.15,-5.12,-1.12,0.98
2024-12-06 13:34:53.622,73.35,581.0,0.59,0.79,-0.15,-5.06,-0.39,1.53
2024-12-06 13:34:53.624,72.9,582.0,0.58,0.79,-0.15,-4.94,-1.06,1.47
2024-12-06 13:34:53.631,75.15,569.0,0.58,0.8,-0.14,-4.94,-1.18,1.47
2024-12-06 13:34:53.638,77.85,591.0,0.58,0.8,-0.14,-4.87,-1.06,1.84
2024-12-06 13:34:53.646,72.9,583.0,0.58,0.81,-0.14,-4.87,-0.94,2.02
2024-12-06 13:34:53.654,74.03,581.0,0.57,0.81,-0.14,-4.87,-0.94,2.02
2024-12-06 13:34:53.662,74.25,582.0,0.57,0.8,-0.15,-4.75,-0.64,2.14
2024-12-06 13:34:53.670,74.7,592.0,0.58,0.79,-0.15,-4.39,-0.45,2.21
2024-12-06 13:34:53.678,73.35,572.0,0.58,0.78,-0.15,-4.2,-0.57,2.08
2024-12-06 13:34:53.686,74.47,581.0,0.58,0.78,-0.15,-4.08,-0.27,1.96
2024-12-06 13:34:53.710,77.62,571.0,0.57,0.79,-0.15,-3.71,0.1,2.08
2024-12-06 13:34:53.713,80.55,588.0,0.56,0.81,-0.15,-3.35,0.46,2.39
2024-12-06 13:34:53.716,81.67,579.0,0.57,0.81,-0.16,-2.92,0.46,2.57
2024-12-06 13:34:53.724,77.4,579.0,0.57,0.8,-0.16,-2.68,0.22,2.88
2024-12-06 13:34:53.735,77.17,587.0,0.57,0.8,-0.16,-2.37,1.01,2.94
2024-12-06 13:34:53.741,81.0,578.0,0.57,0.8,-0.17,-1.94,1.62,2.82
2024-12-06 13:34:53.753,77.85,582.0,0.57,0.8,-0.16,-1.94,1.62,2.82
2024-12-06 13:34:53.756,81.45,585.0,0.57,0.8,-0.16,-1.7,1.68,2.88
2024-12-06 13:34:53.765,83.47,586.0,0.56,0.81,-0.16,-1.58,1.93,2.88
2024-12-06 13:34:53.776,81.22,582.0,0.56,0.8,-0.15,-1.21,1.99,2.88
2024-12-06 13:34:53.784,82.8,587.0,0.56,0.8,-0.15,-1.09,2.11,2.82
2024-12-06 13:34:53.794,80.32,572.0,0.56,0.8,-0.15,-1.09,1.99,2.88
2024-12-06 13:34:53.797,84.38,584.0,0.57,0.8,-0.15,-1.09,1.99,2.88
2024-12-06 13:34:53.806,78.97,586.0,0.56,0.8,-0.15,-1.15,1.87,2.94
2024-12-06 13:34:53.811,83.92,587.0,0.56,0.81,-0.15,-1.27,1.87,2.88
2024-12-06 13:34:53.915,84.82,586.0,0.57,0.79,-0.14,-1.46,1.26,2.63
2024-12-06 13:34:53.917,84.38,593.0,0.57,0.78,-0.14,-1.64,1.2,2.45
2024-12-06 13:34:53.926,83.47,595.0,0.58,0.77,-0.14,-1.82,1.13,2.51
2024-12-06 13:34:53.932,84.38,593.0,0.58,0.77,-0.14,-1.88,0.89,2.51
2024-12-06 13:34:53.940,84.6,589.0,0.58,0.78,-0.14,-2.01,0.77,2.63
2024-12-06 13:34:53.949,85.5,580.0,0.57,0.78,-0.14,-2.37,1.32,2.82
2024-12-06 13:34:53.959,87.3,614.0,0.57,0.79,-0.14,-2.37,1.32,2.82
2024-12-06 13:34:53.965,86.4,591.0,0.57,0.79,-0.13,-2.74,2.42,3.18
2024-12-06 13:34:53.976,89.32,610.0,0.56,0.78,-0.13,-2.98,3.03,3.37
2024-12-06 13:34:53.980,83.7,616.0,0.56,0.78,-0.13,-3.23,3.33,3.37
2024-12-06 13:34:53.993,87.75,568.0,0.57,0.78,-0.12,-3.41,3.15,3.37
2024-12-06 13:34:53.998,87.52,602.0,0.57,0.78,-0.12,-3.53,2.66,3.24
2024-12-06 13:34:54.4,86.4,592.0,0.58,0.77,-0.12,-3.53,1.87,2.94
2024-12-06 13:34:54.13,88.2,590.0,0.59,0.77,-0.12,-3.53,1.87,2.94
2024-12-06 13:34:54.24,87.97,576.0,0.59,0.77,-0.12,-3.65,0.89,2.63
2024-12-06 13:34:54.31,86.17,585.0,0.59,0.77,-0.12,-3.78,-0.09,2.27
2024-12-06 13:34:54.35,85.28,593.0,0.59,0.78,-0.12,-3.9,-0.76,2.02
2024-12-06 13:34:54.45,88.42,580.0,0.59,0.78,-0.12,-4.08,-1.0,1.9
2024-12-06 13:34:54.51,85.5,585.0,0.59,0.79,-0.12,-4.08,-0.94,2.08
2024-12-06 13:34:54.60,87.97,582.0,0.58,0.8,-0.12,-4.26,-0.94,2.08
2024-12-06 13:34:54.71,86.4,592.0,0.58,0.8,-0.13,-4.33,-0.76,2.39
2024-12-06 13:34:54.77,90.67,615.0,0.58,0.8,-0.13,-4.39,-1.18,2.69
2024-12-06 13:34:54.83,93.6,573.0,0.58,0.8,-0.13,-4.39,-1.31,2.88
2024-12-06 13:34:54.118,92.92,583.0,0.59,0.82,-0.13,-4.39,-0.94,3.24
2024-12-06 13:34:54.121,89.1,581.0,0.59,0.83,-0.13,-4.39,-0.94,3.43
2024-12-06 13:34:54.135,94.27,575.0,0.59,0.83,-0.13,-4.2,-1.0,3.61
2024-12-06 13:34:54.138,90.45,580.0,0.58,0.83,-0.13,-4.14,-0.94,3.85
2024-12-06 13:34:54.144,89.77,589.0,0.58,0.82,-0.13,-4.14,-0.94,3.85
2024-12-06 13:34:54.152,95.17,579.0,0.58,0.81,-0.13,-4.08,-0.64,3.91
2024-12-06 13:34:54.160,90.22,590.0,0.58,0.8,-0.12,-3.84,-0.21,3.98
2024-12-06 13:34:54.176,92.7,574.0,0.57,0.79,-0.12,-3.41,0.1,3.98
2024-12-06 13:34:54.181,92.02,557.0,0.57,0.79,-0.12,-2.98,0.65,3.79
2024-12-06 13:34:54.183,96.07,593.0,0.57,0.79,-0.13,-2.98,0.59,3.73
2024-12-06 13:34:54.191,90.67,600.0,0.57,0.8,-0.12,-2.56,0.59,3.73
2024-12-06 13:34:54.203,87.97,611.0,0.57,0.8,-0.12,-2.07,0.52,3.73
2024-12-06 13:34:54.223,92.7,574.0,0.57,0.81,-0.12,-1.76,0.59,3.79
2024-12-06 13:34:54.227,91.35,613.0,0.57,0.81,-0.12,-1.76,0.95,3.73
2024-12-06 13:34:54.230,92.7,603.0,0.57,0.8,-0.12,-1.76,0.95,3.73
2024-12-06 13:34:54.244,92.47,579.0,0.58,0.79,-0.13,-1.76,1.01,3.49
2024-12-06 13:34:54.247,94.95,578.0,0.58,0.79,-0.13,-1.7,0.65,3.06
2024-12-06 13:34:54.258,96.75,588.0,0.58,0.78,-0.13,-1.64,0.22,2.57
2024-12-06 13:34:54.263,95.4,585.0,0.58,0.78,-0.12,-1.58,-0.45,2.02
2024-12-06 13:34:54.313,88.88,581.0,0.58,0.78,-0.12,-1.46,-0.94,1.9
2024-12-06 13:34:54.316,93.6,598.0,0.57,0.8,-0.12,-1.52,-1.06,2.94
2024-12-06 13:34:54.325,93.82,556.0,0.58,0.8,-0.13,-1.7,-0.88,3.18
2024-12-06 13:34:54.330,97.88,576.0,0.58,0.79,-0.12,-1.76,-0.64,3.18
2024-12-06 13:34:54.338,97.88,582.0,0.59,0.78,-0.12,-1.76,-0.7,3.12
2024-12-06 13:34:54.347,100.8,580.0,0.59,0.78,-0.12,-2.01,-0.51,3.18
2024-12-06 13:34:54.359,98.1,597.0,0.6,0.78,-0.12,-2.25,-0.7,3.12
2024-12-06 13:34:54.362,101.02,581.0,0.59,0.78,-0.11,-2.25,-0.7,3.12
2024-12-06 13:34:54.371,100.12,589.0,0.59,0.78,-0.11,-2.37,-0.57,3.06
2024-12-06 13:34:54.388,95.17,590.0,0.59,0.79,-0.1,-2.62,-0.33,3.3
2024-12-06 13:34:54.390,100.12,598.0,0.59,0.79,-0.09,-2.86,-0.45,3.49
2024-12-06 13:34:54.393,98.32,597.0,0.59,0.79,-0.09,-2.86,-0.64,3.55
2024-12-06 13:34:54.401,96.75,596.0,0.58,0.79,-0.09,-2.98,-0.82,3.49
2024-12-06 13:34:54.409,98.77,584.0,0.59,0.78,-0.1,-2.98,-0.82,3.49
2024-12-06 13:34:54.420,100.35,587.0,0.59,0.78,-0.1,-3.1,-1.12,3.55
2024-12-06 13:34:54.425,94.95,591.0,0.6,0.77,-0.09,-3.23,-1.0,3.49
2024-12-06 13:34:54.444,98.77,576.0,0.6,0.77,-0.09,-3.35,-1.12,3.24
2024-12-06 13:34:54.452,99.22,573.0,0.6,0.77,-0.1,-3.53,-1.12,2.75
2024-12-06 13:34:54.457,100.35,579.0,0.6,0.76,-0.1,-3.65,-1.37,2.39
2024-12-06 13:34:54.464,100.35,593.0,0.59,0.76,-0.1,-3.59,-1.31,2.02
2024-12-06 13:34:54.474,98.55,604.0,0.58,0.77,-0.09,-3.65,-1.37,1.78
2024-12-06 13:34:54.483,100.12,577.0,0.58,0.79,-0.1,-3.71,-1.49,1.78
2024-12-06 13:34:54.487,99.45,614.0,0.58,0.79,-0.1,-3.84,-1.49,2.02
2024-12-06 13:34:54.526,102.15,594.0,0.6,0.78,-0.12,-4.87,-1.73,2.94
2024-12-06 13:34:54.533,104.17,598.0,0.59,0.77,-0.12,-5.42,-1.67,2.82
2024-12-06 13:34:54.541,104.85,609.0,0.59,0.78,-0.12,-5.42,-1.67,2.82
2024-12-06 13:34:54.550,103.5,605.0,0.59,0.79,-0.12,-5.91,-1.67,2.88
2024-12-06 13:34:54.558,97.65,584.0,0.59,0.79,-0.12,-6.28,-2.16,3.06
2024-12-06 13:34:54.565,102.6,607.0,0.59,0.8,-0.12,-6.83,-2.77,3.3
2024-12-06 13:34:54.578,101.7,597.0,0.58,0.8,-0.12,-7.19,-2.89,3.49
2024-12-06 13:34:54.587,101.25,612.0,0.58,0.8,-0.12,-7.32,-2.89,3.85
2024-12-06 13:34:54.590,105.97,592.0,0.59,0.8,-0.12,-7.56,-2.34,4.65
2024-12-06 13:34:54.597,100.35,602.0,0.59,0.79,-0.11,-7.56,-2.34,4.65
2024-12-06 13:34:54.605,101.25,604.0,0.58,0.79,-0.1,-7.68,-2.95,4.46
2024-12-06 13:34:54.623,105.3,611.0,0.59,0.78,-0.11,-7.8,-2.41,4.4
2024-12-06 13:34:54.627,104.17,602.0,0.6,0.78,-0.11,-7.68,-1.73,4.59
2024-12-06 13:34:54.630,104.4,610.0,0.6,0.78,-0.11,-7.26,-0.64,4.71
2024-12-06 13:34:54.639,103.72,606.0,0.58,0.79,-0.12,-7.26,-0.7,4.52
2024-12-06 13:34:54.645,105.07,599.0,0.57,0.79,-0.11,-7.07,-0.7,4.52
2024-12-06 13:34:54.652,106.88,602.0,0.58,0.79,-0.1,-6.46,-0.88,4.65
2024-12-06 13:34:54.663,103.5,590.0,0.59,0.78,-0.09,-6.1,-0.88,4.77
2024-12-06 13:34:54.668,101.25,606.0,0.59,0.78,-0.09,-5.67,-1.31,4.52
2024-12-06 13:34:54.677,102.82,605.0,0.59,0.78,-0.09,-5.73,-1.0,4.22
2024-12-06 13:34:54.685,104.17,610.0,0.6,0.79,-0.09,-5.73,-1.0,3.85
2024-12-06 13:34:54.692,107.32,600.0,0.61,0.79,-0.09,-5.73,-1.0,3.85
2024-12-06 13:34:54.700,104.4,592.0,0.61,0.79,-0.09,-5.24,-0.94,3.49
2024-12-06 13:34:54.709,103.72,597.0,0.61,0.79,-0.1,-4.87,-1.49,3.06
2024-12-06 13:34:54.715,104.85,595.0,0.61,0.78,-0.1,-4.26,-1.73,2.45
2024-12-06 13:34:54.745,105.07,587.0,0.6,0.79,-0.09,-3.1,-2.71,1.78
2024-12-06 13:34:54.750,102.15,590.0,0.61,0.79,-0.09,-2.62,-2.16,1.78
2024-12-06 13:34:54.757,101.92,588.0,0.61,0.77,-0.1,-1.88,-1.18,1.84
2024-12-06 13:34:54.769,102.82,603.0,0.61,0.76,-0.1,-1.15,-0.7,1.78
2024-12-06 13:34:54.772,102.15,596.0,0.61,0.76,-0.1,-0.54,-0.27,1.53
2024-12-06 13:34:54.777,107.77,605.0,0.61,0.75,-0.1,-0.54,-0.27,1.53
2024-12-06 13:34:54.785,102.6,597.0,0.6,0.76,-0.1,0.07,0.28,1.35
2024-12-06 13:34:54.794,105.07,586.0,0.6,0.76,-0.09,0.74,0.95,1.05
2024-12-06 13:34:54.801,104.4,595.0,0.59,0.77,-0.09,1.47,1.44,0.62
2024-12-06 13:34:54.821,105.97,609.0,0.6,0.78,-0.1,2.08,1.56,0.25
2024-12-06 13:34:54.824,105.07,601.0,0.6,0.78,-0.1,2.51,1.38,-0.11
2024-12-06 13:34:54.826,105.97,607.0,0.6,0.78,-0.1,2.51,1.38,-0.11
2024-12-06 13:34:54.832,108.0,603.0,0.6,0.78,-0.1,2.82,1.07,-0.48
2024-12-06 13:34:54.855,102.38,603.0,0.6,0.77,-0.1,3.0,0.65,-0.91
2024-12-06 13:34:54.858,106.42,619.0,0.6,0.78,-0.1,2.88,-0.76,-1.7
2024-12-06 13:34:54.863,106.65,586.0,0.59,0.78,-0.11,2.63,-1.55,-2.01
2024-12-06 13:34:54.983,103.27,575.0,0.6,0.79,-0.09,1.6,0.59,-1.88
2024-12-06 13:34:54.991,104.85,583.0,0.6,0.79,-0.09,1.6,0.59,-1.88
2024-12-06 13:34:55.0,105.75,586.0,0.6,0.79,-0.09,1.66,0.65,-1.88
2024-12-06 13:34:55.4,105.07,586.0,0.6,0.79,-0.1,1.72,0.71,-1.94
2024-12-06 13:34:55.10,105.3,585.0,0.6,0.79,-0.1,1.72,0.77,-2.07
2024-12-06 13:34:55.18,103.05,590.0,0.59,0.78,-0.1,1.72,0.52,-2.19
2024-12-06 13:34:55.22,101.25,579.0,0.59,0.78,-0.1,1.72,0.52,-2.19
2024-12-06 13:34:55.31,108.22,583.0,0.59,0.79,-0.1,1.84,0.4,-2.25
2024-12-06 13:34:55.38,108.67,587.0,0.59,0.79,-0.1,2.02,0.34,-2.19
2024-12-06 13:34:55.46,107.55,596.0,0.59,0.8,-0.1,2.08,0.22,-2.13
2024-12-06 13:34:55.55,103.05,570.0,0.59,0.8,-0.1,2.14,0.16,-2.13
2024-12-06 13:34:55.62,107.77,575.0,0.59,0.8,-0.1,2.33,0.04,-2.01
2024-12-06 13:34:55.72,99.67,581.0,0.59,0.79,-0.11,2.33,-0.21,-2.07
2024-12-06 13:34:55.79,102.82,585.0,0.59,0.79,-0.11,2.51,-0.21,-2.07
2024-12-06 13:34:55.86,107.55,578.0,0.59,0.79,-0.11,2.75,-0.39,-2.25
2024-12-06 13:34:55.97,102.15,568.0,0.59,0.79,-0.11,3.0,-0.39,-2.43
2024-12-06 13:34:55.104,106.65,570.0,0.59,0.79,-0.11,3.37,-0.27,-2.56
2024-12-06 13:34:55.145,100.12,572.0,0.59,0.79,-0.11,3.85,-0.45,-2.56
2024-12-06 13:34:55.148,105.97,584.0,0.6,0.8,-0.11,5.26,-0.7,-2.37
2024-12-06 13:34:55.155,105.3,575.0,0.6,0.8,-0.11,5.68,-0.57,-2.25
2024-12-06 13:34:55.158,104.85,586.0,0.6,0.8,-0.11,6.05,-0.33,-2.31
2024-12-06 13:34:55.163,108.67,584.0,0.6,0.79,-0.11,6.05,-0.33,-2.31
2024-12-06 13:34:55.202,106.65,590.0,0.59,0.79,-0.12,6.36,-0.39,-2.49
2024-12-06 13:34:55.209,100.35,563.0,0.56,0.8,-0.12,6.66,-0.88,-3.17
2024-12-06 13:34:55.212,106.88,588.0,0.56,0.8,-0.12,6.54,-1.0,-3.17
2024-12-06 13:34:55.217,103.95,568.0,0.55,0.81,-0.12,6.23,-0.82,-3.17
2024-12-06 13:34:55.225,105.07,591.0,0.55,0.81,-0.12,5.87,-0.7,-3.04
2024-12-06 13:34:55.233,108.22,584.0,0.55,0.81,-0.12,5.44,-0.57,-2.8
2024-12-06 13:34:55.242,103.72,576.0,0.55,0.8,-0.11,4.83,-0.39,-2.56
2024-12-06 13:34:55.250,107.32,576.0,0.56,0.8,-0.11,4.83,-0.39,-2.56
2024-12-06 13:34:55.257,106.2,567.0,0.56,0.8,-0.11,4.22,-0.15,-2.31
2024-12-06 13:34:55.265,101.92,573.0,0.57,0.78,-0.11,3.49,0.71,-2.13
2024-12-06 13:34:55.273,103.05,561.0,0.57,0.76,-0.11,3.12,2.23,-2.25
2024-12-06 13:34:55.281,106.42,557.0,0.57,0.76,-0.11,3.0,2.23,-2.37
2024-12-06 13:34:55.319,104.4,565.0,0.56,0.79,-0.1,2.45,2.78,-2.43
2024-12-06 13:34:55.324,105.07,555.0,0.56,0.8,-0.11,2.51,3.33,-2.43
2024-12-06 13:34:55.327,106.2,596.0,0.56,0.8,-0.11,2.39,3.64,-2.37
2024-12-06 13:34:55.334,105.97,567.0,0.57,0.81,-0.11,2.39,3.64,-2.25
2024-12-06 13:34:55.344,103.05,574.0,0.58,0.8,-0.11,2.33,3.64,-2.25
2024-12-06 13:34:55.357,103.05,557.0,0.59,0.81,-0.12,2.39,3.33,-2.07
2024-12-06 13:34:55.362,101.92,596.0,0.59,0.81,-0.12,2.51,2.78,-1.76
2024-12-06 13:34:55.366,104.4,547.0,0.58,0.8,-0.12,2.02,2.84,-1.76
2024-12-06 13:34:55.376,105.52,554.0,0.58,0.8,-0.12,1.6,2.72,-1.88
2024-12-06 13:34:55.388,102.6,557.0,0.58,0.79,-0.12,1.53,2.36,-1.88
2024-12-06 13:34:55.391,108.0,583.0,0.58,0.78,-0.12,1.53,2.36,-1.88
2024-12-06 13:34:55.397,108.0,549.0,0.58,0.78,-0.13,1.47,1.87,-1.7
2024-12-06 13:34:55.406,102.6,550.0,0.57,0.79,-0.13,1.41,1.2,-1.27
2024-12-06 13:34:55.413,103.72,573.0,0.56,0.8,-0.13,0.98,1.62,-1.09
2024-12-06 13:34:55.421,102.38,564.0,0.56,0.8,-0.13,1.23,1.26,-0.85
2024-12-06 13:34:55.429,105.3,579.0,0.56,0.8,-0.13,1.23,1.38,-0.42
2024-12-06 13:34:55.440,106.2,562.0,0.57,0.8,-0.13,1.23,1.38,-0.42
2024-12-06 13:34:55.446,106.65,559.0,0.57,0.8,-0.13,1.11,1.38,-0.05
2024-12-06 13:34:55.491,105.07,547.0,0.58,0.8,-0.13,0.5,0.89,0.19
2024-12-06 13:34:55.494,105.52,523.0,0.58,0.8,-0.13,0.56,0.71,0.25
2024-12-06 13:34:55.499,103.05,546.0,0.57,0.81,-0.13,0.8,0.77,0.37
2024-12-06 13:34:55.512,107.1,554.0,0.57,0.81,-0.13,1.05,0.65,0.31
2024-12-06 13:34:55.517,108.22,558.0,0.57,0.81,-0.13,1.23,0.59,0.19
2024-12-06 13:34:55.549,102.15,534.0,0.57,0.8,-0.12,1.23,0.59,0.19
2024-12-06 13:34:55.551,103.05,544.0,0.56,0.8,-0.11,1.23,0.77,-0.24
2024-12-06 13:34:55.553,105.3,553.0,0.56,0.8,-0.11,1.35,0.89,-0.42
2024-12-06 13:34:55.562,105.07,542.0,0.56,0.8,-0.12,1.35,0.89,-0.42
2024-12-06 13:34:55.569,105.3,536.0,0.56,0.79,-0.12,1.41,1.01,-0.66
2024-12-06 13:34:55.579,105.75,532.0,0.56,0.79,-0.12,1.47,1.2,-0.91
2024-12-06 13:34:55.584,107.1,546.0,0.55,0.8,-0.12,1.6,1.44,-1.15
2024-12-06 13:34:55.596,101.7,524.0,0.55,0.8,-0.12,1.6,1.44,-1.33
2024-12-06 13:34:55.606,105.3,544.0,0.55,0.8,-0.12,1.47,1.32,-1.46
2024-12-06 13:34:55.614,105.3,526.0,0.55,0.8,-0.12,1.47,1.13,-1.7
2024-12-06 13:34:55.618,103.95,555.0,0.55,0.81,-0.13,1.35,1.13,-1.7
2024-12-06 13:34:55.654,108.22,529.0,0.56,0.8,-0.13,1.29,1.56,-1.58
2024-12-06 13:34:55.664,103.5,523.0,0.56,0.8,-0.13,1.9,1.56,-1.94
2024-12-06 13:34:55.669,109.8,533.0,0.57,0.81,-0.13,2.08,1.68,-1.94
2024-12-06 13:34:55.678,105.52,519.0,0.57,0.81,-0.13,2.27,1.81,-1.88
2024-12-06 13:34:55.687,106.88,532.0,0.56,0.81,-0.13,2.45,1.81,-1.82
2024-12-06 13:34:55.695,102.15,516.0,0.56,0.82,-0.13,2.45,1.81,-1.82
2024-12-06 13:34:55.700,103.27,529.0,0.57,0.82,-0.13,2.75,1.81,-1.64
2024-12-06 13:34:55.708,100.12,510.0,0.57,0.81,-0.13,3.06,1.87,-1.52
2024-12-06 13:34:55.718,106.2,523.0,0.56,0.81,-0.12,3.3,1.93,-1.52
2024-12-06 13:34:55.725,104.17,503.0,0.56,0.81,-0.13,3.55,1.93,-1.52
2024-12-06 13:34:55.736,103.95,524.0,0.56,0.81,-0.13,3.79,1.99,-1.46
2024-12-06 13:34:55.768,107.32,526.0,0.55,0.81,-0.13,3.98,2.11,-1.33
2024-12-06 13:34:55.773,108.45,500.0,0.55,0.81,-0.13,3.79,2.48,-1.33
2024-12-06 13:34:55.780,106.2,512.0,0.55,0.81,-0.13,3.79,2.54,-1.33
2024-12-06 13:34:55.788,104.85,519.0,0.55,0.81,-0.13,3.85,2.54,-1.33
2024-12-06 13:34:55.801,103.27,526.0,0.55,0.81,-0.13,3.79,2.23,-1.46
2024-12-06 13:34:55.804,102.82,548.0,0.55,0.81,-0.13,3.61,1.99,-1.52
2024-12-06 13:34:55.809,105.3,516.0,0.56,0.81,-0.13,3.61,1.93,-1.58
2024-12-06 13:34:55.823,104.85,511.0,0.56,0.81,-0.13,3.49,1.81,-1.7
2024-12-06 13:34:55.826,104.85,517.0,0.56,0.81,-0.12,3.49,1.81,-1.7
2024-12-06 13:34:55.834,107.77,524.0,0.56,0.81,-0.12,3.24,1.62,-1.88
2024-12-06 13:34:55.854,107.1,504.0,0.55,0.82,-0.11,3.0,0.4,-2.07
2024-12-06 13:34:55.876,105.07,505.0,0.54,0.86,-0.13,1.53,1.01,-0.97
2024-12-06 13:34:55.879,104.62,508.0,0.54,0.85,-0.14,0.98,1.87,-0.42
2024-12-06 13:34:55.886,100.57,498.0,0.54,0.83,-0.14,0.74,1.93,-0.11
2024-12-06 13:34:55.894,103.05,505.0,0.54,0.83,-0.14,0.62,1.62,0.07
2024-12-06 13:34:55.901,108.22,524.0,0.55,0.82,-0.13,0.25,1.81,0.13
2024-12-06 13:34:55.909,99.67,504.0,0.56,0.81,-0.12,0.25,1.81,0.13
2024-12-06 13:34:56.7,96.07,499.0,0.56,0.8,-0.14,3.73,1.07,-2.19
2024-12-06 13:34:56.15,96.52,485.0,0.56,0.8,-0.14,3.98,1.26,-2.01
2024-12-06 13:34:56.25,100.35,482.0,0.55,0.8,-0.14,3.98,1.26,-2.01
2024-12-06 13:34:56.35,96.07,484.0,0.53,0.8,-0.14,4.71,0.4,-2.25
2024-12-06 13:34:56.42,97.65,484.0,0.55,0.8,-0.14,5.07,-0.15,-2.37
2024-12-06 13:34:56.49,99.22,480.0,0.56,0.8,-0.13,5.01,0.22,-2.31
2024-12-06 13:34:56.54,99.9,471.0,0.56,0.79,-0.13,5.01,0.71,-2.31
2024-12-06 13:34:56.63,94.72,471.0,0.56,0.79,-0.13,5.07,0.77,-2.56
2024-12-06 13:34:56.71,97.88,494.0,0.56,0.8,-0.13,4.95,0.89,-2.92
2024-12-06 13:34:56.79,98.32,473.0,0.55,0.8,-0.13,4.95,0.89,-2.92
2024-12-06 13:34:56.88,97.2,497.0,0.55,0.81,-0.13,5.01,0.22,-3.35
2024-12-06 13:34:56.94,98.1,479.0,0.55,0.82,-0.13,5.14,-0.39,-3.47
2024-12-06 13:34:56.105,96.07,498.0,0.55,0.82,-0.14,5.38,-0.88,-3.41
2024-12-06 13:34:56.110,98.77,474.0,0.55,0.82,-0.14,5.26,-0.94,-3.35
2024-12-06 13:34:56.118,93.82,466.0,0.55,0.83,-0.14,4.95,-0.33,-3.35
2024-12-06 13:34:56.130,93.38,471.0,0.54,0.83,-0.15,4.95,-0.33,-3.35
2024-12-06 13:34:56.161,91.8,484.0,0.55,0.8,-0.14,4.34,-0.33,-3.65
2024-12-06 13:34:56.164,89.55,493.0,0.55,0.8,-0.13,4.34,-0.33,-3.65
2024-12-06 13:34:56.172,90.45,480.0,0.54,0.8,-0.12,3.79,-0.15,-3.78
2024-12-06 13:34:56.181,93.6,476.0,0.53,0.81,-0.12,3.43,0.65,-3.84
2024-12-06 13:34:56.188,96.52,496.0,0.52,0.81,-0.12,3.18,0.77,-3.71
2024-12-06 13:34:56.195,91.35,500.0,0.52,0.81,-0.15,3.12,0.89,-3.53
2024-12-06 13:34:56.205,90.45,489.0,0.53,0.81,-0.13,3.49,1.01,-3.41
2024-12-06 13:34:56.211,92.7,495.0,0.53,0.8,-0.14,3.49,1.01,-3.41
2024-12-06 13:34:56.219,91.35,481.0,0.54,0.8,-0.14,3.91,0.04,-3.53
2024-12-06 13:34:56.227,93.15,495.0,0.55,0.79,-0.14,3.73,-0.39,-3.71
2024-12-06 13:34:56.236,92.92,500.0,0.55,0.79,-0.14,3.67,-0.57,-4.08
2024-12-06 13:34:56.244,87.07,506.0,0.55,0.81,-0.15,3.37,-0.39,-4.87
2024-12-06 13:34:56.251,89.55,506.0,0.54,0.81,-0.15,2.94,-0.15,-5.55
2024-12-06 13:34:56.262,91.35,508.0,0.53,0.82,-0.15,2.94,-0.15,-5.55
2024-12-06 13:34:56.269,89.77,507.0,0.53,0.83,-0.15,2.57,-0.09,-5.91
2024-12-06 13:34:56.274,87.07,501.0,0.53,0.81,-0.15,2.51,-0.21,-5.97
2024-12-06 13:34:56.282,89.1,515.0,0.52,0.8,-0.16,2.75,-0.27,-6.1
2024-12-06 13:34:56.290,88.65,506.0,0.52,0.81,-0.16,3.06,-0.82,-6.03
2024-12-06 13:34:56.298,88.2,503.0,0.52,0.81,-0.16,3.24,-0.88,-5.91
2024-12-06 13:34:56.327,88.88,514.0,0.52,0.83,-0.16,3.43,-0.64,-5.67
2024-12-06 13:34:56.329,86.85,509.0,0.52,0.83,-0.16,3.18,-0.33,-5.36
2024-12-06 13:34:56.337,88.2,519.0,0.52,0.83,-0.16,3.12,0.1,-5.06
2024-12-06 13:34:56.348,87.97,498.0,0.52,0.83,-0.17,2.94,0.89,-4.75
2024-12-06 13:34:56.357,84.82,513.0,0.52,0.83,-0.17,2.94,0.89,-4.75
2024-12-06 13:34:56.366,86.62,490.0,0.53,0.83,-0.17,2.75,1.2,-4.14
2024-12-06 13:34:56.371,84.6,516.0,0.53,0.82,-0.17,2.69,1.2,-3.59
2024-12-06 13:34:56.377,83.47,504.0,0.52,0.82,-0.17,2.57,0.83,-3.35
2024-12-06 13:34:56.387,83.03,505.0,0.52,0.82,-0.18,2.33,0.77,-3.17
2024-12-06 13:34:56.392,79.88,496.0,0.52,0.84,-0.18,1.96,1.07,-2.62
2024-12-06 13:34:56.400,82.12,516.0,0.52,0.85,-0.18,1.96,1.07,-2.62
2024-12-06 13:34:56.408,83.25,513.0,0.51,0.85,-0.18,1.6,2.05,-2.13
2024-12-06 13:34:56.417,83.92,515.0,0.51,0.84,-0.18,1.66,3.15,-1.82
2024-12-06 13:34:56.426,86.85,517.0,0.52,0.83,-0.17,1.78,2.9,-1.46
2024-12-06 13:34:56.432,84.82,517.0,0.52,0.83,-0.16,1.84,2.36,-0.97
2024-12-06 13:34:56.440,85.5,513.0,0.53,0.83,-0.16,1.9,1.81,-0.36
2024-12-06 13:34:56.448,80.32,513.0,0.53,0.83,-0.15,1.9,1.81,-0.36
2024-12-06 13:34:56.461,83.7,512.0,0.52,0.84,-0.15,2.02,1.13,0.01
2024-12-06 13:34:56.464,80.32,512.0,0.51,0.84,-0.16,1.84,1.5,-0.11
2024-12-06 13:34:56.471,81.67,516.0,0.5,0.84,-0.16,2.08,1.74,-0.72
2024-12-06 13:34:56.479,79.88,513.0,0.5,0.84,-0.16,2.21,1.44,-1.03
2024-12-06 13:34:56.487,83.25,506.0,0.51,0.85,-0.16,2.08,1.38,-1.03
2024-12-06 13:34:56.494,82.35,517.0,0.51,0.86,-0.16,2.08,1.38,-1.03
2024-12-06 13:34:56.506,76.72,505.0,0.51,0.86,-0.16,2.02,1.74,-0.79
2024-12-06 13:34:56.510,79.65,512.0,0.51,0.84,-0.16,1.9,2.23,-0.66
2024-12-06 13:34:56.519,82.12,516.0,0.51,0.81,-0.16,1.84,2.29,-1.09
2024-12-06 13:34:56.529,78.07,508.0,0.52,0.82,-0.15,1.6,1.74,-1.46
2024-12-06 13:34:56.539,78.97,531.0,0.52,0.82,-0.15,1.17,1.13,-1.58
2024-12-06 13:34:56.543,77.85,508.0,0.51,0.83,-0.14,1.17,1.13,-1.58
2024-12-06 13:34:56.581,78.97,513.0,0.5,0.83,-0.17,1.6,0.16,-1.46
2024-12-06 13:34:56.584,74.92,501.0,0.52,0.83,-0.17,1.6,0.16,-1.15
2024-12-06 13:34:56.588,75.15,509.0,0.52,0.83,-0.16,1.6,-0.15,-1.15
2024-12-06 13:34:56.596,71.55,516.0,0.52,0.82,-0.16,1.72,0.28,-1.21
2024-12-06 13:34:56.604,74.47,504.0,0.51,0.82,-0.16,2.02,-0.09,-1.7
2024-12-06 13:34:56.612,75.82,508.0,0.52,0.83,-0.17,2.14,-0.64,-2.01
2024-12-06 13:34:56.629,71.32,509.0,0.52,0.83,-0.16,2.14,-0.82,-1.64
2024-12-06 13:34:56.636,72.45,516.0,0.51,0.84,-0.17,2.39,-0.82,-1.64
2024-12-06 13:34:56.645,68.62,505.0,0.51,0.83,-0.18,2.69,-0.21,-1.64
2024-12-06 13:34:56.655,70.88,514.0,0.5,0.83,-0.18,2.94,0.16,-1.7
2024-12-06 13:34:56.662,68.85,533.0,0.5,0.84,-0.17,2.94,0.59,-1.7
2024-12-06 13:34:56.666,72.45,503.0,0.5,0.84,-0.17,2.94,1.2,-1.27
2024-12-06 13:34:56.674,72.45,512.0,0.51,0.84,-0.16,2.94,1.2,-1.27
2024-12-06 13:34:56.682,70.42,498.0,0.5,0.84,-0.16,3.06,2.11,-0.91
2024-12-06 13:34:56.692,66.38,509.0,0.5,0.83,-0.16,3.24,2.17,-0.85
2024-12-06 13:34:56.697,72.0,505.0,0.51,0.83,-0.16,3.43,1.81,-0.72
2024-12-06 13:34:56.706,71.55,513.0,0.51,0.83,-0.16,3.49,1.44,-0.6
2024-12-06 13:34:56.714,68.4,516.0,0.52,0.83,-0.16,3.3,1.2,-0.48
2024-12-06 13:34:56.721,66.15,518.0,0.52,0.83,-0.16,3.3,1.2,-0.48
2024-12-06 13:34:56.729,70.42,500.0,0.51,0.82,-0.17,3.18,1.56,-0.66
2024-12-06 13:34:56.737,68.17,511.0,0.51,0.82,-0.17,3.24,1.62,-1.03
2024-12-06 13:34:56.745,69.75,510.0,0.51,0.82,-0.17,3.24,1.32,-1.33
2024-12-06 13:34:56.779,68.62,505.0,0.5,0.82,-0.18,3.49,2.66,-1.64
2024-12-06 13:34:56.788,65.47,508.0,0.5,0.82,-0.16,3.73,2.78,-1.58
2024-12-06 13:34:56.794,63.45,509.0,0.5,0.82,-0.16,3.79,2.54,-1.58
2024-12-06 13:34:56.798,63.0,509.0,0.5,0.82,-0.16,3.61,2.48,-1.4
2024-12-06 13:34:56.806,63.45,501.0,0.51,0.83,-0.16,3.61,2.48,-1.4
2024-12-06 13:34:56.814,62.32,488.0,0.5,0.82,-0.16,3.3,2.78,-1.15
2024-12-06 13:34:56.822,61.88,478.0,0.5,0.82,-0.16,3.24,3.27,-1.4
2024-12-06 13:34:56.830,59.17,494.0,0.51,0.82,-0.17,3.37,3.33,-1.76
2024-12-06 13:34:56.838,60.52,497.0,0.52,0.83,-0.17,3.24,2.97,-1.64
2024-12-06 13:34:56.846,58.05,511.0,0.52,0.83,-0.17,3.24,2.36,-1.46
2024-12-06 13:34:56.855,61.2,497.0,0.51,0.83,-0.16,3.24,2.36,-1.27
2024-12-06 13:34:56.872,58.05,543.0,0.51,0.84,-0.17,3.18,2.05,-1.27
2024-12-06 13:34:56.880,63.45,527.0,0.5,0.83,-0.18,3.12,2.48,-1.52
2024-12-06 13:34:56.883,58.05,496.0,0.5,0.84,-0.17,3.12,1.99,-1.76
2024-12-06 13:34:56.886,58.27,550.0,0.5,0.84,-0.17,2.94,1.74,-1.58
2024-12-06 13:34:56.894,55.57,506.0,0.51,0.85,-0.17,2.63,2.17,-1.09
2024-12-06 13:34:56.904,55.8,501.0,0.51,0.85,-0.17,2.63,2.17,-1.09
2024-12-06 13:34:56.907,58.72,494.0,0.5,0.83,-0.17,2.75,2.29,-0.91
2024-12-06 13:34:56.917,57.15,498.0,0.5,0.82,-0.17,3.0,1.32,-1.27
2024-12-06 13:34:56.924,56.47,494.0,0.51,0.83,-0.17,2.88,0.28,-1.52
2024-12-06 13:34:56.935,53.32,508.0,0.51,0.83,-0.17,2.63,-0.15,-1.33
2024-12-06 13:34:56.945,57.15,507.0,0.51,0.84,-0.17,2.63,-0.15,-1.33
2024-12-06 13:34:56.947,54.67,505.0,0.5,0.84,-0.17,2.45,-0.27,-1.15
2024-12-06 13:34:57.50,54.67,487.0,0.49,0.82,-0.17,2.45,0.22,-1.46
2024-12-06 13:34:57.64,47.7,498.0,0.51,0.85,-0.18,1.84,1.5,-0.05
2024-12-06 13:34:57.68,46.35,510.0,0.5,0.84,-0.18,1.84,1.81,0.37
2024-12-06 13:34:57.75,47.47,510.0,0.49,0.83,-0.18,2.14,1.62,0.31
2024-12-06 13:34:57.90,47.47,515.0,0.5,0.83,-0.19,2.39,0.83,0.19
2024-12-06 13:34:57.103,48.15,489.0,0.5,0.83,-0.19,2.45,0.52,0.44
2024-12-06 13:34:57.107,47.92,508.0,0.51,0.84,-0.19,2.45,0.52,0.44
2024-12-06 13:34:57.112,47.47,515.0,0.5,0.84,-0.18,2.39,0.83,0.86
2024-12-06 13:34:57.117,44.77,491.0,0.49,0.83,-0.18,2.57,0.95,0.8
2024-12-06 13:34:57.123,47.92,495.0,0.5,0.83,-0.18,2.75,0.59,0.62
2024-12-06 13:34:57.135,47.92,501.0,0.5,0.83,-0.18,2.75,0.46,0.86
2024-12-06 13:34:57.145,37.8,483.0,0.5,0.84,-0.18,2.63,0.59,1.05
2024-12-06 13:34:57.147,41.85,503.0,0.5,0.84,-0.18,2.63,0.59,1.05
2024-12-06 13:34:57.153,42.52,489.0,0.49,0.83,-0.18,2.75,0.65,1.17
2024-12-06 13:34:57.162,39.83,481.0,0.49,0.82,-0.18,3.0,0.89,0.92
2024-12-06 13:34:57.169,43.42,528.0,0.49,0.82,-0.18,3.18,0.4,0.56
2024-12-06 13:34:57.178,41.85,488.0,0.49,0.82,-0.18,3.3,0.34,0.25
2024-12-06 13:34:57.189,42.3,487.0,0.49,0.82,-0.18,3.37,0.28,0.13
2024-12-06 13:34:57.192,38.25,503.0,0.5,0.83,-0.18,3.37,0.28,0.13
2024-12-06 13:34:57.203,39.6,504.0,0.49,0.83,-0.18,3.3,0.34,0.01
2024-12-06 13:34:57.234,41.85,491.0,0.5,0.84,-0.18,3.43,1.26,-0.6
2024-12-06 13:34:57.238,38.7,525.0,0.5,0.85,-0.18,3.37,1.74,-0.36
2024-12-06 13:34:57.246,36.45,502.0,0.5,0.85,-0.19,3.24,2.54,0.13
2024-12-06 13:34:57.253,37.8,500.0,0.49,0.85,-0.19,3.3,3.27,0.31
2024-12-06 13:34:57.269,38.25,501.0,0.49,0.85,-0.19,3.43,3.27,0.37
2024-12-06 13:34:57.271,32.62,481.0,0.5,0.85,-0.19,3.3,3.39,0.5
2024-12-06 13:34:57.279,37.12,488.0,0.5,0.84,-0.18,3.3,3.39,0.5
2024-12-06 13:34:57.285,36.9,502.0,0.51,0.84,-0.18,3.3,3.45,0.68
2024-12-06 13:34:57.292,38.7,493.0,0.5,0.84,-0.18,3.3,3.76,0.86
2024-12-06 13:34:57.303,35.1,506.0,0.5,0.83,-0.19,3.49,3.76,0.8
2024-12-06 13:34:57.309,33.3,523.0,0.5,0.83,-0.19,3.79,3.27,0.86
2024-12-06 13:34:57.317,34.88,485.0,0.5,0.83,-0.19,3.79,3.27,1.17
2024-12-06 13:34:57.325,37.8,499.0,0.51,0.84,-0.19,3.79,2.9,1.17
2024-12-06 13:34:57.338,33.3,486.0,0.51,0.84,-0.18,3.73,2.72,1.47
2024-12-06 13:34:57.341,31.95,482.0,0.5,0.84,-0.18,3.61,2.97,1.78
2024-12-06 13:34:57.358,35.33,499.0,0.5,0.83,-0.18,3.37,1.93,1.47
2024-12-06 13:34:57.363,32.17,503.0,0.5,0.83,-0.19,3.37,1.93,-14.15
2024-12-06 13:34:57.371,31.27,488.0,0.51,0.83,-0.19,3.18,1.56,1.35
2024-12-06 13:34:57.379,31.5,496.0,0.5,0.83,-0.18,3.0,1.26,1.41
2024-12-06 13:34:57.391,32.4,493.0,0.49,0.83,-0.18,2.94,0.83,1.05
2024-12-06 13:34:57.397,31.05,498.0,0.49,0.83,-0.19,2.88,0.34,0.62
2024-12-06 13:34:57.407,33.97,491.0,0.49,0.83,-0.19,2.82,0.1,0.44
2024-12-06 13:34:57.418,34.65,476.0,0.5,0.84,-0.19,2.82,0.1,0.44
2024-12-06 13:34:57.421,25.88,482.0,0.49,0.84,-0.18,2.63,0.04,0.37
2024-12-06 13:34:57.425,30.6,490.0,0.48,0.83,-0.17,2.57,-0.09,0.07
2024-12-06 13:34:57.466,26.32,491.0,0.5,0.83,-0.17,2.27,-0.39,-0.72
2024-12-06 13:34:57.470,25.42,472.0,0.49,0.82,-0.17,2.14,-0.21,-0.85
2024-12-06 13:34:57.473,28.57,480.0,0.48,0.82,-0.18,2.14,-0.45,-1.33
2024-12-06 13:34:57.479,25.88,477.0,0.48,0.82,-0.18,2.14,-0.76,-1.64
2024-12-06 13:34:57.487,27.22,487.0,0.49,0.82,-0.19,2.02,-0.09,-1.4
2024-12-06 13:34:57.495,22.5,484.0,0.5,0.83,-0.19,2.02,-0.09,-1.4
2024-12-06 13:34:57.520,24.07,471.0,0.49,0.84,-0.18,1.78,0.59,-0.97
2024-12-06 13:34:57.522,22.95,475.0,0.49,0.83,-0.19,1.66,1.07,-0.36
2024-12-06 13:34:57.525,25.42,484.0,0.49,0.83,-0.19,1.41,1.32,0.01
2024-12-06 13:34:57.535,24.3,483.0,0.5,0.83,-0.2,1.41,1.32,0.37
2024-12-06 13:34:57.542,23.17,475.0,0.51,0.83,-0.19,1.17,1.01,0.37
2024-12-06 13:34:57.549,23.4,469.0,0.5,0.83,-0.19,1.05,1.07,0.68
2024-12-06 13:34:57.557,23.4,468.0,0.5,0.82,-0.19,0.92,0.71,0.5
2024-12-06 13:34:57.565,19.35,479.0,0.51,0.82,-0.2,0.74,0.34,0.74
2024-12-06 13:34:57.578,17.55,481.0,0.51,0.82,-0.2,0.56,0.22,0.98
2024-12-06 13:34:57.587,20.92,473.0,0.51,0.83,-0.19,0.56,0.22,0.98
2024-12-06 13:34:57.594,21.15,480.0,0.5,0.83,-0.19,0.44,-0.27,1.23
2024-12-06 13:34:57.597,18.0,467.0,0.5,0.83,-0.2,0.44,-1.06,1.29
2024-12-06 13:34:57.604,20.25,481.0,0.5,0.83,-0.21,0.44,-1.37,1.41
2024-12-06 13:34:57.613,15.97,463.0,0.5,0.83,-0.2,0.37,-0.94,1.53
2024-12-06 13:34:57.619,17.32,460.0,0.5,0.83,-0.2,0.31,-0.82,1.66
2024-12-06 13:34:57.640,20.92,462.0,0.49,0.83,-0.19,0.19,-0.94,1.84
2024-12-06 13:34:57.642,20.7,453.0,0.49,0.82,-0.2,0.25,-1.25,1.6
2024-12-06 13:34:57.650,15.07,460.0,0.5,0.83,-0.21,0.37,-0.33,1.78
2024-12-06 13:34:57.680,20.02,464.0,0.5,0.83,-0.21,0.31,0.71,2.14
2024-12-06 13:34:57.682,15.52,498.0,0.48,0.83,-0.19,0.44,0.65,2.51
2024-12-06 13:34:57.691,18.45,471.0,0.48,0.82,-0.2,0.56,0.28,2.21
2024-12-06 13:34:57.718,17.1,468.0,0.49,0.82,-0.2,0.62,0.04,1.78
2024-12-06 13:34:57.720,12.38,461.0,0.5,0.84,-0.2,0.74,1.2,1.41
2024-12-06 13:34:57.727,13.05,453.0,0.49,0.84,-0.19,0.68,0.95,1.41
2024-12-06 13:34:57.737,13.72,448.0,0.48,0.83,-0.19,0.98,0.46,1.05
2024-12-06 13:34:57.751,14.62,457.0,0.48,0.83,-0.19,1.23,0.22,0.74
2024-12-06 13:34:57.753,11.92,463.0,0.49,0.83,-0.2,1.35,0.65,0.5
2024-12-06 13:34:57.758,9.22,458.0,0.49,0.83,-0.2,1.35,0.65,0.5
2024-12-06 13:34:57.767,10.12,459.0,0.49,0.83,-0.19,1.47,-0.09,0.01
2024-12-06 13:34:57.774,10.8,477.0,0.48,0.83,-0.19,1.53,-0.94,-0.36
2024-12-06 13:34:57.783,6.07,463.0,0.49,0.82,-0.19,2.02,-1.92,-0.91
2024-12-06 13:34:57.799,7.65,440.0,0.49,0.82,-0.19,2.21,-2.41,-1.21
2024-12-06 13:34:57.802,13.72,440.0,0.5,0.83,-0.21,2.33,-2.59,-1.7
2024-12-06 13:34:57.809,9.68,511.0,0.49,0.83,-0.21,2.33,-2.59,-1.7
2024-12-06 13:34:57.814,11.02,454.0,0.5,0.83,-0.21,2.51,-3.14,-2.01
2024-12-06 13:34:57.822,11.25,448.0,0.49,0.84,-0.2,2.39,-2.41,-1.88
2024-12-06 13:34:57.829,9.22,440.0,0.48,0.83,-0.19,2.27,-2.34,-1.94
2024-12-06 13:34:57.840,10.35,447.0,0.48,0.83,-0.19,2.14,-2.22,-1.94
2024-12-06 13:34:57.847,3.82,436.0,0.47,0.82,-0.2,1.9,-1.55,-2.01
2024-12-06 13:34:57.854,4.28,441.0,0.47,0.82,-0.2,1.9,-1.55,-2.01
2024-12-06 13:34:57.861,5.62,440.0,0.47,0.84,-0.21,1.72,-1.49,-1.76
2024-12-06 13:34:57.869,4.28,429.0,0.48,0.85,-0.22,1.78,-0.33,-1.15
2024-12-06 13:34:57.876,2.7,443.0,0.49,0.85,-0.23,2.21,0.71,-0.48
2024-12-06 13:34:57.905,4.95,451.0,0.49,0.85,-0.23,2.33,1.93,-0.05
2024-12-06 13:34:57.907,4.05,443.0,0.49,0.86,-0.21,2.39,3.45,0.56
2024-12-06 13:34:57.915,5.85,433.0,0.49,0.85,-0.21,2.27,3.76,0.8
2024-12-06 13:34:57.928,1.35,452.0,0.49,0.85,-0.21,2.27,3.45,0.68
2024-12-06 13:34:57.930,2.02,458.0,0.49,0.85,-0.21,2.39,3.64,0.74
2024-12-06 13:34:57.938,1.57,444.0,0.5,0.85,-0.21,2.39,3.64,0.74
2024-12-06 13:34:57.947,1.8,446.0,0.5,0.85,-0.2,2.33,4.19,0.98
2024-12-06 13:34:57.959,-0.45,437.0,0.49,0.84,-0.19,2.39,4.31,1.17
2024-12-06 13:34:57.962,2.02,450.0,0.43,0.82,-0.15,2.45,2.72,0.62
2024-12-06 13:34:57.970,-2.7,451.0,0.42,0.8,-0.2,3.49,-3.63,-2.49
2024-12-06 13:34:57.986,0.45,459.0,0.42,0.8,-0.2,4.52,-2.71,-4.69
2024-12-06 13:34:57.988,-1.57,451.0,0.5,0.8,-0.29,4.52,-2.71,-4.69
2024-12-06 13:34:58.90,-4.28,461.0,0.5,0.82,-0.24,5.75,-0.03,-5.36
2024-12-06 13:34:58.98,-0.67,462.0,0.48,0.83,-0.22,2.45,0.71,-3.53
2024-12-06 13:34:58.117,-0.9,476.0,0.48,0.83,-0.24,1.9,1.38,-2.62
2024-12-06 13:34:58.122,-5.17,498.0,0.47,0.84,-0.21,1.9,0.77,-2.19
2024-12-06 13:34:58.130,-2.92,469.0,0.47,0.84,-0.21,1.66,0.16,-1.7
2024-12-06 13:34:58.146,-0.67,472.0,0.47,0.84,-0.21,1.66,0.16,-1.7
2024-12-06 13:34:58.148,-1.57,453.0,0.47,0.84,-0.22,1.66,0.59,-1.21
2024-12-06 13:34:58.152,-0.22,450.0,0.47,0.84,-0.21,1.6,1.2,-0.79
2024-12-06 13:34:58.160,-2.02,457.0,0.47,0.84,-0.21,1.47,1.93,-0.48
2024-12-06 13:34:58.169,-3.38,447.0,0.47,0.84,-0.21,1.41,2.36,-0.3
2024-12-06 13:34:58.177,-3.38,450.0,0.47,0.84,-0.2,1.23,2.66,-0.11
2024-12-06 13:34:58.213,1.12,462.0,0.48,0.84,-0.2,1.23,2.66,-0.11
2024-12-06 13:34:58.231,-1.8,454.0,0.49,0.83,-0.2,0.44,2.11,0.37
2024-12-06 13:34:58.233,-3.82,463.0,0.49,0.83,-0.2,0.19,1.93,0.5
2024-12-06 13:34:58.237,-0.9,449.0,0.49,0.83,-0.2,-0.11,1.81,0.56
2024-12-06 13:34:58.244,-2.47,459.0,0.49,0.83,-0.21,-0.36,1.81,0.74
2024-12-06 13:34:58.255,-2.25,462.0,0.49,0.83,-0.21,-0.48,1.87,1.05
2024-12-06 13:34:58.262,-2.47,466.0,0.49,0.83,-0.21,-0.54,1.93,1.47
2024-12-06 13:34:58.271,3.15,458.0,0.49,0.83,-0.21,-0.54,1.93,1.47
2024-12-06 13:34:58.280,-4.05,482.0,0.49,0.83,-0.2,-0.72,1.44,1.66
2024-12-06 13:34:58.284,-2.47,469.0,0.48,0.83,-0.2,-0.97,1.01,1.84
2024-12-06 13:34:58.292,1.12,469.0,0.48,0.82,-0.21,-1.21,0.89,1.78
2024-12-06 13:34:58.300,-0.45,470.0,0.48,0.82,-0.21,-1.4,0.65,1.6
2024-12-06 13:34:58.307,0.0,456.0,0.48,0.82,-0.21,-1.58,0.28,1.23
2024-12-06 13:34:58.315,-1.35,472.0,0.48,0.82,-0.21,-1.58,0.28,1.23
2024-12-06 13:34:58.323,0.22,472.0,0.48,0.82,-0.21,-1.64,-0.09,1.05
2024-12-06 13:34:58.334,-4.28,463.0,0.48,0.83,-0.22,-1.58,-0.15,1.11
2024-12-06 13:34:58.370,0.67,463.0,0.48,0.85,-0.22,-1.64,0.04,1.17
2024-12-06 13:34:58.378,-3.15,472.0,0.48,0.84,-0.22,-1.58,0.4,1.11
2024-12-06 13:34:58.385,-4.5,485.0,0.48,0.84,-0.22,-1.52,0.52,1.05
2024-12-06 13:34:58.401,-1.8,457.0,0.48,0.84,-0.22,-1.27,1.13,1.23
2024-12-06 13:34:58.408,-4.05,468.0,0.48,0.85,-0.21,-1.15,1.38,1.41
2024-12-06 13:34:58.417,-1.57,458.0,0.47,0.85,-0.21,-1.15,1.01,1.41
2024-12-06 13:34:58.425,-1.57,467.0,0.47,0.84,-0.21,-1.21,0.59,1.29
2024-12-06 13:34:58.435,3.15,466.0,0.47,0.84,-0.21,-1.4,0.04,1.05
2024-12-06 13:34:58.440,-3.38,482.0,0.47,0.84,-0.21,-1.64,-0.57,0.8
2024-12-06 13:34:58.447,0.0,475.0,0.47,0.84,-0.21,-1.64,-0.57,0.8
2024-12-06 13:34:58.455,0.0,465.0,0.46,0.85,-0.22,-1.82,-0.7,0.62
2024-12-06 13:34:58.463,-1.12,475.0,0.47,0.86,-0.22,-1.88,-0.15,0.62
2024-12-06 13:34:58.471,-4.28,486.0,0.48,0.86,-0.23,-1.88,0.95,1.11
2024-12-06 13:34:58.479,-4.05,478.0,0.48,0.86,-0.23,-1.4,2.84,2.02
2024-12-06 13:34:58.489,0.9,488.0,0.48,0.87,-0.23,-0.85,4.86,3.18
2024-12-06 13:34:58.497,-5.85,489.0,0.48,0.87,-0.23,-0.85,4.86,3.18
2024-12-06 13:34:58.503,-2.92,472.0,0.48,0.88,-0.22,-0.36,6.38,4.34
2024-12-06 13:34:58.510,-11.25,475.0,0.48,0.88,-0.22,0.13,7.54,5.62
2024-12-06 13:34:58.518,-2.7,492.0,0.48,0.88,-0.22,0.56,9.37,6.6
2024-12-06 13:34:58.526,0.22,493.0,0.48,0.88,-0.22,0.98,10.05,6.91
2024-12-06 13:34:58.535,-2.47,485.0,0.48,0.87,-0.2,1.35,8.28,6.97
2024-12-06 13:34:58.551,1.12,484.0,0.49,0.85,-0.2,1.35,8.28,6.97
2024-12-06 13:34:58.557,-2.92,490.0,0.5,0.83,-0.21,1.6,7.36,6.54
2024-12-06 13:34:58.560,-1.57,468.0,0.51,0.82,-0.21,1.84,6.26,5.87
2024-12-06 13:34:58.565,-4.05,491.0,0.5,0.82,-0.21,2.08,3.88,5.01
2024-12-06 13:34:58.575,-1.35,491.0,0.5,0.82,-0.21,2.08,2.23,4.04
2024-12-06 13:34:58.582,0.22,489.0,0.49,0.82,-0.21,2.08,2.23,4.04
2024-12-06 13:34:58.588,-1.57,503.0,0.49,0.82,-0.21,1.96,0.46,3.49
2024-12-06 13:34:58.625,-2.47,489.0,0.48,0.82,-0.21,1.9,-0.76,3.3
2024-12-06 13:34:58.627,-2.92,468.0,0.47,0.83,-0.21,1.72,-0.09,3.73
2024-12-06 13:34:58.638,-2.02,486.0,0.47,0.83,-0.21,1.78,0.95,4.1
2024-12-06 13:34:58.646,-4.5,471.0,0.48,0.84,-0.21,1.84,2.05,4.65
2024-12-06 13:34:58.651,0.67,470.0,0.49,0.85,-0.21,1.78,3.58,5.44
2024-12-06 13:34:58.659,0.0,472.0,0.49,0.85,-0.21,1.53,4.92,6.17
2024-12-06 13:34:58.666,-4.5,476.0,0.49,0.84,-0.2,1.47,5.77,6.29
2024-12-06 13:34:58.674,0.45,486.0,0.48,0.83,-0.19,1.47,5.77,6.29
2024-12-06 13:34:58.683,-4.05,474.0,0.49,0.82,-0.18,1.47,5.83,5.93
2024-12-06 13:34:58.690,-0.22,468.0,0.49,0.81,-0.18,1.41,5.47,5.32
2024-12-06 13:34:58.697,-3.82,484.0,0.5,0.81,-0.18,1.47,4.74,4.65
2024-12-06 13:34:58.705,-1.57,575.0,0.5,0.81,-0.18,1.6,3.94,4.04
2024-12-06 13:34:58.714,-3.82,476.0,0.51,0.81,-0.18,1.6,3.94,3.37
2024-12-06 13:34:58.722,-4.28,481.0,0.51,0.8,-0.19,1.78,2.84,3.37
2024-12-06 13:34:58.728,-4.5,493.0,0.51,0.8,-0.19,1.66,2.36,2.69
2024-12-06 13:34:58.738,-4.95,469.0,0.5,0.8,-0.19,1.66,1.38,2.08
2024-12-06 13:34:58.748,-2.47,479.0,0.5,0.8,-0.2,1.41,0.28,1.9
2024-12-06 13:34:58.751,-5.17,470.0,0.5,0.81,-0.2,1.17,-0.33,2.02
2024-12-06 13:34:58.761,2.92,469.0,0.49,0.82,-0.21,1.17,-0.33,2.02
2024-12-06 13:34:58.767,-3.15,474.0,0.48,0.82,-0.21,0.92,0.59,2.02
2024-12-06 13:34:58.775,-2.7,488.0,0.48,0.82,-0.21,0.68,0.52,2.08
2024-12-06 13:34:58.782,0.67,464.0,0.48,0.82,-0.21,0.37,0.4,2.21
2024-12-06 13:34:58.790,-4.05,462.0,0.48,0.82,-0.21,0.19,1.01,2.45
2024-12-06 13:34:58.831,-4.95,471.0,0.49,0.83,-0.22,0.13,1.68,2.82
2024-12-06 13:34:58.833,-2.47,467.0,0.5,0.83,-0.2,-0.3,3.09,3.43
2024-12-06 13:34:58.837,0.67,474.0,0.51,0.83,-0.19,-0.36,3.7,3.67
2024-12-06 13:34:58.846,-4.28,481.0,0.51,0.83,-0.19,-0.36,3.7,3.67
2024-12-06 13:34:58.851,-4.72,471.0,0.51,0.83,-0.18,-0.36,3.51,3.79
2024-12-06 13:34:58.863,-0.22,469.0,0.52,0.83,-0.18,-0.48,3.21,4.1
2024-12-06 13:34:58.868,-4.95,479.0,0.52,0.83,-0.19,-0.54,3.15,4.4
2024-12-06 13:34:58.880,-2.25,478.0,0.52,0.83,-0.19,-0.54,3.27,4.59
2024-12-06 13:34:58.888,-3.15,481.0,0.52,0.83,-0.19,-0.6,3.15,4.77
2024-12-06 13:34:58.891,0.22,488.0,0.52,0.83,-0.2,-0.6,3.15,4.77
2024-12-06 13:34:58.899,-3.38,481.0,0.52,0.83,-0.21,-0.6,3.45,5.2
2024-12-06 13:34:58.906,-2.02,485.0,0.52,0.83,-0.21,-0.54,4.06,5.75
2024-12-06 13:34:58.914,-4.28,486.0,0.52,0.83,-0.2,-0.6,4.25,6.17
2024-12-06 13:34:58.933,-1.57,482.0,0.52,0.83,-0.2,-0.66,3.64,6.48
2024-12-06 13:34:58.937,-0.22,469.0,0.51,0.82,-0.2,-0.79,2.9,6.48
2024-12-06 13:34:58.939,-6.07,473.0,0.51,0.81,-0.19,-0.79,2.9,6.48
2024-12-06 13:34:58.948,-2.7,494.0,0.51,0.81,-0.2,-0.91,2.42,6.42
2024-12-06 13:34:58.953,-5.4,477.0,0.51,0.82,-0.2,-0.97,2.11,6.42
2024-12-06 13:34:58.961,-1.57,475.0,0.51,0.83,-0.2,-1.09,2.36,6.66
2024-12-06 13:34:58.970,-2.47,478.0,0.52,0.83,-0.2,-1.27,3.09,7.03
2024-12-06 13:34:58.978,0.45,492.0,0.52,0.83,-0.2,-1.27,3.09,7.03
2024-12-06 13:34:59.1,1.12,499.0,0.51,0.84,-0.19,-1.46,3.82,7.52
2024-12-06 13:34:59.4,-2.7,484.0,0.51,0.83,-0.2,-1.76,4.0,8.06
2024-12-06 13:34:59.12,-2.47,513.0,0.51,0.83,-0.2,-1.76,4.49,8.37
2024-12-06 13:34:59.42,-3.82,502.0,0.52,0.83,-0.2,-1.7,4.8,8.61
2024-12-06 13:34:59.45,-2.92,480.0,0.51,0.82,-0.19,-1.4,4.13,8.49
2024-12-06 13:34:59.50,1.12,486.0,0.51,0.82,-0.19,-1.21,3.09,7.82
2024-12-06 13:34:59.152,2.7,503.0,0.49,0.81,-0.2,1.41,-0.33,-2.86
2024-12-06 13:34:59.158,10.57,484.0,0.49,0.81,-0.2,1.72,-1.06,-3.59
2024-12-06 13:34:59.161,8.1,493.0,0.49,0.81,-0.2,1.96,-1.18,-4.57
2024-12-06 13:34:59.166,10.57,508.0,0.49,0.81,-0.2,1.96,-1.18,-4.57
2024-12-06 13:34:59.174,13.05,491.0,0.49,0.8,-0.2,2.14,-1.98,-5.48
2024-12-06 13:34:59.181,13.05,512.0,0.51,0.8,-0.2,2.21,-2.04,-6.34
2024-12-06 13:34:59.189,8.55,499.0,0.51,0.8,-0.19,1.96,-2.16,-6.52
2024-12-06 13:34:59.197,13.95,493.0,0.51,0.8,-0.19,2.08,-1.73,-6.95
2024-12-06 13:34:59.205,16.88,498.0,0.51,0.8,-0.19,1.72,-1.37,-6.58
2024-12-06 13:34:59.216,17.55,524.0,0.51,0.82,-0.18,1.72,-1.37,-6.03
2024-12-06 13:34:59.221,14.62,509.0,0.52,0.82,-0.18,1.53,-0.94,-6.03
2024-12-06 13:34:59.232,15.52,504.0,0.53,0.83,-0.18,1.23,0.52,-5.0
2024-12-06 13:34:59.243,19.8,524.0,0.53,0.83,-0.18,1.23,1.01,-4.2
2024-12-06 13:34:59.270,21.82,515.0,0.56,0.83,-0.18,-0.3,3.21,-1.52
2024-12-06 13:34:59.275,21.6,531.0,0.55,0.82,-0.17,-0.6,2.9,-1.09
2024-12-06 13:34:59.283,25.88,523.0,0.55,0.82,-0.18,-1.21,1.87,-0.79
2024-12-06 13:34:59.291,22.95,527.0,0.55,0.82,-0.18,-1.33,0.77,-0.36
2024-12-06 13:34:59.298,25.42,536.0,0.54,0.82,-0.19,-1.76,-0.15,-0.24
2024-12-06 13:34:59.309,25.65,520.0,0.54,0.81,-0.19,-1.76,-0.15,-0.24
2024-12-06 13:34:59.316,26.32,519.0,0.53,0.81,-0.19,-1.82,-0.76,0.01
2024-12-06 13:34:59.322,28.35,525.0,0.53,0.8,-0.19,-1.82,-1.37,0.01
2024-12-06 13:34:59.330,25.42,517.0,0.52,0.81,-0.19,-2.07,-2.28,0.31
2024-12-06 13:34:59.338,29.7,520.0,0.52,0.81,-0.19,-2.31,-3.26,0.37
2024-12-06 13:34:59.346,29.02,509.0,0.51,0.8,-0.19,-2.56,-3.38,0.5
2024-12-06 13:34:59.354,27.45,525.0,0.52,0.8,-0.18,-2.56,-3.38,0.5
2024-12-06 13:34:59.361,33.08,530.0,0.52,0.81,-0.18,-2.98,-3.14,1.05
2024-12-06 13:34:59.369,27.22,525.0,0.51,0.82,-0.18,-3.23,-3.2,1.23
2024-12-06 13:34:59.381,30.6,517.0,0.51,0.83,-0.19,-3.78,-3.26,1.47
2024-12-06 13:34:59.385,35.77,519.0,0.51,0.83,-0.19,-4.08,-2.83,1.78
2024-12-06 13:34:59.397,31.27,519.0,0.51,0.83,-0.19,-4.2,-2.16,2.02
2024-12-06 13:34:59.403,33.75,524.0,0.51,0.82,-0.19,-4.2,-2.16,2.02
2024-12-06 13:34:59.409,32.17,528.0,0.52,0.82,-0.19,-4.33,-1.8,2.33
2024-12-06 13:34:59.423,35.55,533.0,0.52,0.83,-0.19,-4.45,-1.25,2.94
2024-12-06 13:34:59.430,37.8,524.0,0.51,0.82,-0.18,-4.45,-0.88,3.43
2024-12-06 13:34:59.433,31.95,514.0,0.5,0.82,-0.18,-4.39,-0.94,3.24
2024-12-06 13:34:59.441,33.08,533.0,0.5,0.82,-0.18,-4.39,-0.88,3.06
2024-12-06 13:34:59.453,37.58,519.0,0.51,0.82,-0.19,-4.39,-0.76,3.18
2024-12-06 13:34:59.459,40.27,532.0,0.52,0.83,-0.19,-4.51,-0.76,3.18
2024-12-06 13:34:59.494,36.0,516.0,0.51,0.83,-0.2,-4.75,-1.0,3.37
2024-12-06 13:34:59.504,40.27,518.0,0.52,0.84,-0.19,-4.75,-0.64,3.91
2024-12-06 13:34:59.512,38.7,518.0,0.51,0.84,-0.19,-4.75,-0.27,4.34
2024-12-06 13:34:59.522,40.72,533.0,0.51,0.84,-0.19,-4.81,-0.39,4.59
2024-12-06 13:34:59.538,39.6,561.0,0.51,0.83,-0.19,-5.0,-0.64,4.71
2024-12-06 13:34:59.542,39.83,530.0,0.51,0.83,-0.19,-5.24,-0.39,4.71
2024-12-06 13:34:59.550,42.3,536.0,0.51,0.83,-0.19,-5.24,-0.27,4.59
2024-12-06 13:34:59.559,40.5,529.0,0.5,0.83,-0.19,-5.18,-0.09,4.46
2024-12-06 13:34:59.568,41.4,519.0,0.5,0.83,-0.19,-5.0,-0.03,4.46
2024-12-06 13:34:59.575,40.05,522.0,0.5,0.83,-0.2,-4.69,-0.03,4.28
2024-12-06 13:34:59.581,42.3,515.0,0.49,0.82,-0.19,-4.69,-0.03,4.28
2024-12-06 13:34:59.588,45.45,535.0,0.49,0.81,-0.19,-4.26,-0.27,3.79
2024-12-06 13:34:59.599,46.35,535.0,0.49,0.81,-0.19,-4.02,-0.57,3.18
2024-12-06 13:34:59.604,40.05,543.0,0.49,0.81,-0.18,-3.84,-0.7,2.63
2024-12-06 13:34:59.612,40.95,500.0,0.49,0.81,-0.18,-3.65,-0.39,2.27
2024-12-06 13:34:59.619,41.85,535.0,0.49,0.82,-0.19,-3.29,-0.27,1.84
2024-12-06 13:34:59.631,48.15,526.0,0.49,0.81,-0.19,-3.29,-0.27,1.84
2024-12-06 13:34:59.635,41.62,520.0,0.48,0.81,-0.19,-2.74,-0.94,1.23
2024-12-06 13:34:59.643,48.38,531.0,0.49,0.82,-0.19,-2.43,-1.8,0.62
2024-12-06 13:34:59.661,50.4,529.0,0.5,0.82,-0.19,-2.13,-2.41,0.19
2024-12-06 13:34:59.669,47.47,538.0,0.5,0.82,-0.19,-1.82,-2.71,-0.24
2024-12-06 13:34:59.671,45.0,534.0,0.5,0.82,-0.19,-1.58,-2.53,-0.85
2024-12-06 13:34:59.674,47.7,537.0,0.5,0.82,-0.19,-1.58,-2.53,-0.85
2024-12-06 13:34:59.683,48.15,536.0,0.51,0.83,-0.19,-1.64,-2.22,-0.97
2024-12-06 13:34:59.718,48.82,538.0,0.5,0.83,-0.19,-1.21,-1.12,-1.03
2024-12-06 13:34:59.720,52.42,533.0,0.51,0.83,-0.18,-1.15,-0.76,-0.79
2024-12-06 13:34:59.729,54.45,546.0,0.5,0.84,-0.18,-1.09,-0.27,-0.6
2024-12-06 13:34:59.737,54.67,531.0,0.5,0.83,-0.18,-0.91,0.22,-0.6
2024-12-06 13:34:59.744,49.27,536.0,0.5,0.83,-0.18,-0.79,0.71,-0.79
2024-12-06 13:34:59.752,54.0,537.0,0.51,0.82,-0.17,-0.79,0.52,-0.72
2024-12-06 13:34:59.760,51.07,542.0,0.51,0.83,-0.18,-0.79,0.52,-0.72
2024-12-06 13:34:59.767,47.7,538.0,0.52,0.83,-0.18,-0.85,0.77,-0.42
2024-12-06 13:34:59.776,53.55,537.0,0.51,0.82,-0.17,-0.91,0.89,-0.3
2024-12-06 13:34:59.784,57.38,547.0,0.51,0.82,-0.17,-0.85,1.13,-0.42
2024-12-06 13:34:59.800,56.92,534.0,0.52,0.84,-0.18,-1.03,1.62,-0.11
2024-12-06 13:34:59.803,54.22,564.0,0.52,0.84,-0.18,-1.33,1.74,0.31
2024-12-06 13:34:59.808,54.67,534.0,0.52,0.85,-0.17,-1.33,1.74,0.31
2024-12-06 13:34:59.817,55.8,544.0,0.51,0.85,-0.17,-1.52,1.99,0.68
2024-12-06 13:34:59.825,54.0,526.0,0.5,0.84,-0.17,-1.58,2.23,0.56
2024-12-06 13:34:59.831,59.17,547.0,0.51,0.83,-0.17,-1.7,1.93,0.37
2024-12-06 13:34:59.840,55.57,534.0,0.52,0.83,-0.17,-1.88,1.68,0.37
2024-12-06 13:34:59.852,58.05,538.0,0.52,0.83,-0.17,-1.94,1.62,0.62
2024-12-06 13:34:59.862,60.75,537.0,0.53,0.83,-0.17,-1.94,1.56,0.86
2024-12-06 13:34:59.867,56.7,535.0,0.52,0.83,-0.16,-2.01,1.56,0.86
2024-12-06 13:34:59.870,60.07,546.0,0.51,0.83,-0.17,-2.07,1.38,0.86
2024-12-06 13:34:59.882,62.55,538.0,0.52,0.82,-0.17,-2.01,1.26,0.86
2024-12-06 13:34:59.888,64.35,542.0,0.53,0.83,-0.16,-2.25,1.07,1.11
2024-12-06 13:34:59.894,60.3,548.0,0.53,0.83,-0.16,-2.49,0.83,1.53
2024-12-06 13:34:59.902,64.12,545.0,0.53,0.83,-0.16,-2.49,0.83,1.53
2024-12-06 13:34:59.939,60.07,552.0,0.52,0.83,-0.16,-2.74,0.95,1.84
2024-12-06 13:34:59.941,59.85,550.0,0.52,0.83,-0.17,-2.74,0.22,1.78
2024-12-06 13:34:59.949,64.57,556.0,0.52,0.83,-0.16,-2.92,0.28,1.78
2024-12-06 13:34:59.963,65.47,571.0,0.52,0.84,-0.16,-2.98,0.71,2.02
2024-12-06 13:34:59.964,61.42,534.0,0.51,0.84,-0.17,-3.04,1.2,2.45
2024-12-06 13:34:59.973,62.55,545.0,0.51,0.84,-0.17,-2.92,1.93,2.69
2024-12-06 13:34:59.979,63.22,552.0,0.5,0.84,-0.17,-2.62,1.81,2.82
2024-12-06 13:34:59.989,67.28,552.0,0.5,0.83,-0.17,-2.62,1.81,2.82
2024-12-06 13:35:00.0,61.65,552.0,0.51,0.83,-0.17,-2.37,1.26,2.75
2024-12-06 13:35:00.3,68.17,539.0,0.52,0.83,-0.16,-2.37,1.2,2.94
2024-12-06 13:35:00.9,62.32,552.0,0.52,0.84,-0.16,-2.49,1.81,3.12
2024-12-06 13:35:00.18,65.03,545.0,0.52,0.84,-0.16,-2.68,2.36,3.24
2024-12-06 13:35:00.25,61.65,552.0,0.52,0.84,-0.16,-2.86,2.54,3.12
2024-12-06 13:35:00.38,68.4,540.0,0.51,0.83,-0.16,-2.86,2.54,3.12
2024-12-06 13:35:00.41,65.03,530.0,0.51,0.82,-0.16,-2.74,1.93,2.69
2024-12-06 13:35:00.49,68.85,567.0,0.52,0.81,-0.16,-2.43,1.2,2.14
2024-12-06 13:35:00.57,69.97,545.0,0.52,0.81,-0.16,-2.13,0.04,1.72
2024-12-06 13:35:00.67,64.8,533.0,0.52,0.81,-0.16,-2.13,-0.39,1.47
2024-12-06 13:35:00.73,72.67,540.0,0.52,0.81,-0.15,-2.07,-0.09,1.6
2024-12-06 13:35:00.80,68.62,539.0,0.52,0.82,-0.15,-2.07,-0.09,1.6
2024-12-06 13:35:00.90,71.55,538.0,0.51,0.82,-0.15,-2.07,0.65,1.6
2024-12-06 13:35:00.97,68.85,555.0,0.5,0.82,-0.16,-1.88,1.5,1.6
2024-12-06 13:35:00.198,74.25,553.0,0.52,0.83,-0.16,-2.56,3.64,2.94
2024-12-06 13:35:00.204,68.85,555.0,0.52,0.82,-0.16,-2.49,2.72,2.94
2024-12-06 13:35:00.210,74.47,541.0,0.53,0.82,-0.15,-2.19,1.5,2.82
2024-12-06 13:35:00.220,76.05,546.0,0.53,0.83,-0.15,-2.07,0.59,2.75
2024-12-06 13:35:00.225,78.53,553.0,0.53,0.82,-0.15,-1.88,0.22,2.63
2024-12-06 13:35:00.234,75.15,534.0,0.53,0.82,-0.15,-1.76,0.28,2.51
2024-12-06 13:35:00.242,74.47,575.0,0.53,0.82,-0.16,-1.76,0.28,2.33
2024-12-06 13:35:00.251,79.2,545.0,0.53,0.82,-0.16,-1.52,0.1,2.33
2024-12-06 13:35:00.257,75.15,528.0,0.53,0.82,-0.16,-1.33,-0.39,2.14
2024-12-06 13:35:00.266,75.82,548.0,0.52,0.82,-0.15,-1.33,-0.39,2.27
2024-12-06 13:35:00.274,77.4,553.0,0.52,0.83,-0.15,-1.27,-0.33,2.57
2024-12-06 13:35:00.285,81.45,542.0,0.52,0.83,-0.15,-1.4,-0.27,2.88
2024-12-06 13:35:00.289,80.78,547.0,0.52,0.83,-0.15,-1.76,-0.21,3.12
2024-12-06 13:35:00.298,81.45,555.0,0.52,0.83,-0.14,-1.76,-0.21,3.12
2024-12-06 13:35:00.308,79.2,539.0,0.52,0.83,-0.14,-2.01,0.04,3.3
2024-12-06 13:35:00.316,77.4,558.0,0.53,0.83,-0.15,-2.25,0.77,3.55
2024-12-06 13:35:00.321,82.8,550.0,0.52,0.83,-0.14,-2.62,1.5,3.79
2024-12-06 13:35:00.333,78.75,581.0,0.52,0.83,-0.14,-2.8,1.62,3.79
2024-12-06 13:35:00.336,79.42,581.0,0.51,0.83,-0.14,-2.8,1.62,3.49
2024-12-06 13:35:00.346,81.9,585.0,0.51,0.83,-0.15,-2.92,1.68,3.49
2024-12-06 13:35:00.352,78.97,548.0,0.51,0.83,-0.15,-2.92,1.5,3.24
2024-12-06 13:35:00.362,76.28,561.0,0.52,0.82,-0.14,-2.92,1.44,3.06
2024-12-06 13:35:00.401,80.1,562.0,0.53,0.82,-0.13,-3.9,0.59,3.06
2024-12-06 13:35:00.404,83.7,559.0,0.53,0.81,-0.13,-4.2,0.46,3.12
2024-12-06 13:35:00.410,83.03,549.0,0.53,0.81,-0.14,-4.39,0.34,3.12
2024-12-06 13:35:00.413,86.4,559.0,0.53,0.81,-0.14,-4.51,0.46,2.94
2024-12-06 13:35:00.421,83.03,549.0,0.52,0.81,-0.14,-4.51,0.16,2.75
2024-12-06 13:35:00.435,80.78,540.0,0.52,0.82,-0.15,-4.2,0.16,2.75
2024-12-06 13:35:00.439,83.7,584.0,0.52,0.83,-0.15,-4.2,0.1,2.94
2024-12-06 13:35:00.445,84.82,566.0,0.52,0.83,-0.14,-4.14,0.16,3.12
2024-12-06 13:35:00.459,87.52,563.0,0.52,0.83,-0.14,-4.26,0.59,3.43
2024-12-06 13:35:00.461,83.47,587.0,0.52,0.83,-0.14,-4.51,1.44,3.61
2024-12-06 13:35:00.470,82.8,563.0,0.53,0.83,-0.14,-4.69,1.74,3.73
2024-12-06 13:35:00.477,85.5,567.0,0.52,0.83,-0.14,-4.69,1.74,3.73
2024-12-06 13:35:00.485,84.6,543.0,0.53,0.83,-0.14,-4.69,1.5,3.67
2024-12-06 13:35:00.493,83.25,553.0,0.53,0.83,-0.14,-4.69,1.01,3.67
2024-12-06 13:35:00.502,86.4,561.0,0.53,0.83,-0.13,-4.69,0.16,3.67
2024-12-06 13:35:00.511,85.28,551.0,0.56,0.84,-0.13,-4.87,-0.33,3.67
2024-12-06 13:35:00.517,88.42,542.0,0.53,0.84,-0.13,-4.87,-0.57,3.61
2024-12-06 13:35:00.525,85.05,550.0,0.53,0.83,-0.13,-4.87,-0.57,3.61
2024-12-06 13:35:00.534,87.52,551.0,0.53,0.83,-0.13,-4.94,-0.7,3.37
2024-12-06 13:35:00.552,88.65,585.0,0.53,0.81,-0.13,-4.69,-0.94,2.63
2024-12-06 13:35:00.555,88.2,560.0,0.53,0.81,-0.13,-4.51,-1.18,2.39
2024-12-06 13:35:00.564,87.07,541.0,0.54,0.81,-0.13,-4.51,-1.25,2.33
2024-12-06 13:35:00.571,86.4,544.0,0.54,0.81,-0.12,-4.51,-1.25,2.33
2024-12-06 13:35:00.579,89.1,530.0,0.53,0.82,-0.12,-4.39,-1.37,2.51
2024-12-06 13:35:00.620,90.45,550.0,0.52,0.83,-0.13,-4.26,0.95,3.24
2024-12-06 13:35:00.624,87.75,568.0,0.54,0.83,-0.13,-4.14,1.01,3.18
2024-12-06 13:35:00.632,92.47,548.0,0.54,0.83,-0.13,-4.2,1.13,3.18
2024-12-06 13:35:00.640,92.25,565.0,0.54,0.83,-0.13,-4.08,1.13,3.18
2024-12-06 13:35:00.651,81.9,558.0,0.54,0.84,-0.12,-3.96,1.44,3.18
2024-12-06 13:35:00.656,91.12,553.0,0.53,0.84,-0.12,-3.96,1.44,3.18
2024-12-06 13:35:00.664,91.12,560.0,0.54,0.84,-0.13,-3.59,1.56,3.06
2024-12-06 13:35:00.672,89.32,557.0,0.54,0.83,-0.13,-3.04,1.68,2.75
2024-12-06 13:35:00.680,96.3,554.0,0.55,0.82,-0.12,-2.56,1.38,2.51
2024-12-06 13:35:00.687,94.95,550.0,0.55,0.82,-0.12,-2.43,0.89,2.27
2024-12-06 13:35:00.695,94.5,550.0,0.55,0.82,-0.12,-2.43,0.65,2.27
2024-12-06 13:35:00.703,97.42,564.0,0.55,0.83,-0.11,-2.43,0.65,2.27
2024-12-06 13:35:00.712,96.75,558.0,0.54,0.83,-0.11,-2.43,0.83,2.51
2024-12-06 13:35:00.719,94.95,577.0,0.53,0.83,-0.12,-2.31,0.89,2.69
2024-12-06 13:35:00.727,95.62,557.0,0.53,0.82,-0.13,-2.07,0.77,2.69
2024-12-06 13:35:00.735,95.62,561.0,0.53,0.82,-0.13,-1.88,0.4,2.63
2024-12-06 13:35:00.743,95.4,577.0,0.53,0.82,-0.13,-1.82,-0.03,2.57
2024-12-06 13:35:00.752,97.88,567.0,0.53,0.82,-0.12,-1.82,-0.03,2.57
2024-12-06 13:35:00.761,92.47,563.0,0.53,0.83,-0.12,-1.88,-0.21,2.63
2024-12-06 13:35:00.773,89.55,562.0,0.53,0.83,-0.13,-2.19,-0.45,2.75
2024-12-06 13:35:00.784,98.1,561.0,0.53,0.83,-0.13,-2.37,-0.76,2.75
2024-12-06 13:35:00.790,100.35,556.0,0.53,0.82,-0.13,-2.62,-0.57,2.75
2024-12-06 13:35:00.797,94.5,567.0,0.54,0.81,-0.12,-2.62,-0.57,2.75
2024-12-06 13:35:00.806,96.3,558.0,0.54,0.8,-0.11,-2.92,-0.82,2.69
2024-12-06 13:35:00.815,95.4,581.0,0.54,0.81,-0.1,-3.23,-1.31,2.57
2024-12-06 13:35:00.848,94.27,577.0,0.53,0.83,-0.1,-3.9,-1.12,2.82
2024-12-06 13:35:00.853,100.35,576.0,0.53,0.84,-0.11,-3.84,-1.18,2.75
