Timestamp,PosIsDeg,ForceIs,AccX,AccY,AccZ,GyroX,GyroY,GyroZ
2024-12-16 10:37:00.199,18.23,538.0,0.27,0.92,0.2,2.61,16.38,13.54
2024-12-16 10:37:00.257,18.9,589.0,0.37,0.99,0.15,0.72,15.71,39.72
2024-12-16 10:37:00.301,10.57,594.0,0.31,0.95,0.19,-2.15,3.62,39.3
2024-12-16 10:37:00.351,4.5,623.0,0.28,0.92,0.3,-5.87,-1.2,28.43
2024-12-16 10:37:00.410,5.85,595.0,0.21,0.85,0.31,-3.68,-0.34,16.04
2024-12-16 10:37:01.681,-0.22,570.0,0.2,0.95,0.22,-2.09,-7.67,1.82
2024-12-16 10:37:01.737,1.35,558.0,0.2,0.95,0.22,-1.17,-3.95,1.82
2024-12-16 10:37:01.810,-1.12,547.0,0.21,0.94,0.23,-0.99,-4.43,2.19
2024-12-16 10:37:01.924,4.28,556.0,0.24,0.95,0.23,3.47,3.56,10.91
2024-12-16 10:37:01.971,-1.12,542.0,0.26,0.94,0.2,-0.26,-1.44,11.28
2024-12-16 10:37:02.15,0.9,537.0,0.28,0.94,0.24,-1.48,3.2,12.56
2024-12-16 10:37:02.62,2.47,538.0,0.29,0.92,0.27,2.49,5.27,9.94
2024-12-16 10:37:02.112,-1.12,552.0,0.27,0.92,0.21,2.37,5.51,7.56
2024-12-16 10:37:02.157,5.62,554.0,0.27,0.93,0.22,0.72,3.13,5.6
2024-12-16 10:37:02.228,-2.02,571.0,0.28,0.94,0.24,1.15,2.4,1.15
2024-12-16 10:37:02.282,-2.92,538.0,0.3,0.94,0.23,4.26,2.04,-3.49
2024-12-16 10:37:02.333,-2.25,539.0,0.3,0.93,0.23,4.14,-0.47,-3.37
2024-12-16 10:37:02.396,4.95,535.0,0.28,0.93,0.23,2.98,2.89,1.09
2024-12-16 10:37:02.452,2.25,532.0,0.3,0.92,0.22,1.7,1.67,2.43
2024-12-16 10:37:02.497,0.22,547.0,0.29,0.91,0.23,0.72,2.46,2.55
2024-12-16 10:37:02.546,-1.57,553.0,0.29,0.92,0.22,1.51,2.28,1.7
2024-12-16 10:37:02.595,-2.25,536.0,0.3,0.93,0.23,1.33,0.63,0.78
2024-12-16 10:37:02.687,2.02,533.0,0.29,0.93,0.22,2.0,1.97,0.72
2024-12-16 10:37:02.783,5.17,538.0,0.24,0.91,0.24,0.84,0.94,-8.8
2024-12-16 10:37:02.856,4.28,525.0,0.23,0.92,0.24,4.2,2.65,-16.31
2024-12-16 10:37:02.910,11.25,459.0,0.22,0.9,0.22,4.93,0.27,-21.5
2024-12-16 10:37:03.94,21.6,440.0,0.24,0.95,0.22,1.33,1.61,-14.05
2024-12-16 10:37:03.155,33.3,448.0,0.19,0.98,0.22,-0.87,-2.36,-6.3
2024-12-16 10:37:03.211,38.25,452.0,0.23,0.98,0.18,-1.23,-3.7,-4.77
2024-12-16 10:37:03.264,45.45,457.0,0.18,0.97,0.21,-2.58,-4.13,-4.22
2024-12-16 10:37:03.330,51.97,460.0,0.17,0.96,0.22,-4.77,-1.5,-3.25
2024-12-16 10:37:03.376,55.8,449.0,0.19,0.96,0.23,-5.75,1.43,-1.17
2024-12-16 10:37:03.428,62.55,439.0,0.17,0.95,0.23,-5.93,1.36,-0.44
2024-12-16 10:37:03.486,59.85,419.0,0.19,0.95,0.22,-5.14,0.14,-1.42
2024-12-16 10:37:03.532,71.1,417.0,0.18,0.97,0.24,-3.25,0.88,-1.23
2024-12-16 10:37:03.652,68.85,408.0,0.18,0.96,0.24,-2.03,1.12,0.72
2024-12-16 10:37:03.721,77.17,410.0,0.19,0.97,0.22,-0.81,3.5,5.91
2024-12-16 10:37:03.773,81.45,426.0,0.17,0.96,0.23,-1.6,0.45,6.76
2024-12-16 10:37:03.816,85.05,436.0,0.18,0.95,0.25,-3.13,0.51,6.34
2024-12-16 10:37:03.862,83.25,430.0,0.17,0.93,0.27,-3.07,0.75,1.7
2024-12-16 10:37:03.910,81.9,448.0,0.16,0.95,0.26,-2.39,2.71,1.7
2024-12-16 10:37:03.963,86.62,447.0,0.19,0.92,0.27,-6.36,6.92,5.91
2024-12-16 10:37:04.518,85.5,515.0,0.22,0.93,0.3,1.82,4.11,3.22
2024-12-16 10:37:04.597,85.95,499.0,0.21,0.93,0.31,1.7,2.89,1.51
2024-12-16 10:37:05.123,80.78,493.0,0.21,0.92,0.3,1.76,0.69,0.6
2024-12-16 10:37:05.753,86.62,483.0,0.22,0.93,0.28,-0.44,1.36,-0.5
2024-12-16 10:37:05.820,81.0,488.0,0.22,0.92,0.29,-0.56,0.27,-0.01
2024-12-16 10:37:05.925,87.97,484.0,0.22,0.93,0.28,-1.78,-0.1,1.09
2024-12-16 10:37:06.15,86.17,515.0,0.22,0.93,0.29,-2.7,1.73,2.06
2024-12-16 10:37:06.296,82.35,481.0,0.23,0.92,0.29,0.9,-1.93,2.25
2024-12-16 10:37:06.351,85.95,472.0,0.22,0.92,0.29,-0.2,-0.59,2.31
2024-12-16 10:37:06.421,83.92,474.0,0.23,0.93,0.29,-0.07,-0.59,0.72
2024-12-16 10:37:06.472,84.82,461.0,0.24,0.93,0.29,0.9,-0.96,-0.26
2024-12-16 10:37:06.593,85.5,471.0,0.24,0.93,0.3,0.9,-1.26,-0.07
2024-12-16 10:37:06.646,87.97,460.0,0.23,0.93,0.29,0.66,-0.89,0.29
2024-12-16 10:37:06.822,88.65,504.0,0.24,0.92,0.29,0.47,-1.2,0.48
2024-12-16 10:37:07.48,82.57,473.0,0.23,0.93,0.28,2.31,0.27,-0.07
2024-12-16 10:37:07.103,86.85,448.0,0.24,0.93,0.27,3.28,0.33,-0.81
2024-12-16 10:37:07.149,85.95,454.0,0.23,0.93,0.27,2.67,-0.71,-0.74
2024-12-16 10:37:07.689,81.45,465.0,0.23,0.93,0.27,2.92,0.39,-0.07
2024-12-16 10:37:08.991,-3.38,556.0,0.1,0.98,0.13,-0.56,-2.3,0.48
2024-12-16 10:37:09.39,-4.05,602.0,0.09,0.98,0.14,0.29,-1.14,0.72
2024-12-16 10:37:09.108,0.0,533.0,0.08,1.0,0.14,2.12,0.33,1.21
2024-12-16 10:37:09.164,-3.15,523.0,0.1,0.97,0.12,0.72,-0.41,2.43
2024-12-16 10:37:09.228,1.35,549.0,0.08,0.97,0.14,0.05,1.79,2.73
2024-12-16 10:37:09.270,-2.25,530.0,0.1,0.98,0.15,-0.26,3.01,3.16
2024-12-16 10:37:09.325,-4.72,537.0,0.11,0.97,0.14,-0.99,3.56,2.25
2024-12-16 10:37:09.382,-6.07,529.0,0.09,0.97,0.14,-1.05,6.37,2.8
2024-12-16 10:37:09.442,-5.4,534.0,0.1,0.96,0.15,-1.84,4.35,2.8
2024-12-16 10:37:09.488,-3.82,536.0,0.09,0.98,0.14,-4.53,4.9,0.9
2024-12-16 10:37:09.535,-5.17,544.0,0.12,0.99,0.16,-2.52,3.74,-0.5
2024-12-16 10:37:09.582,0.0,534.0,0.12,0.99,0.14,0.54,3.44,-0.99
2024-12-16 10:37:09.628,-6.07,541.0,0.14,0.99,0.14,1.76,1.12,0.84
2024-12-16 10:37:09.680,-4.05,595.0,0.11,0.99,0.14,0.72,4.17,2.73
2024-12-16 10:37:09.739,-6.97,539.0,0.11,0.98,0.16,-0.38,3.32,5.97
2024-12-16 10:37:09.788,-3.38,539.0,0.13,0.98,0.17,1.02,4.17,5.42
2024-12-16 10:37:09.836,-4.05,541.0,0.13,0.97,0.15,2.49,4.84,4.32
2024-12-16 10:37:09.881,-2.25,549.0,0.12,0.97,0.14,0.41,4.05,5.12
2024-12-16 10:37:09.934,-0.9,555.0,0.13,0.97,0.16,-2.15,-0.89,5.36
2024-12-16 10:37:10.0,-4.95,567.0,0.13,0.98,0.16,-2.39,1.55,4.87
2024-12-16 10:37:10.58,-1.35,539.0,0.15,0.99,0.17,-0.56,2.58,6.4
2024-12-16 10:37:10.116,-1.57,527.0,0.16,0.98,0.14,0.72,1.12,6.52
2024-12-16 10:37:10.163,-3.38,527.0,0.14,0.95,0.14,1.15,-0.28,7.62
2024-12-16 10:37:10.212,3.38,539.0,0.13,1.0,0.13,1.33,5.21,8.47
2024-12-16 10:37:10.280,-2.92,537.0,0.17,0.95,0.15,0.78,3.2,7.86
2024-12-16 10:37:10.387,0.22,537.0,0.19,0.96,0.16,-0.2,1.91,2.37
2024-12-16 10:37:10.437,-3.6,569.0,0.19,0.96,0.16,-0.07,1.79,1.39
2024-12-16 10:37:10.492,-4.5,534.0,0.2,0.97,0.16,-0.26,2.28,1.09
2024-12-16 10:37:10.540,-8.1,528.0,0.18,0.97,0.16,-0.01,1.91,1.51
2024-12-16 10:37:10.591,-2.7,541.0,0.18,0.97,0.16,0.35,2.46,2.31
2024-12-16 10:37:10.649,-2.02,548.0,0.21,0.96,0.15,-0.01,0.08,2.0
2024-12-16 10:37:10.695,-2.92,580.0,0.18,0.97,0.15,-0.07,0.45,2.06
2024-12-16 10:37:10.744,-2.7,545.0,0.2,0.96,0.17,-0.38,-0.04,2.49
2024-12-16 10:37:10.788,0.0,542.0,0.19,0.96,0.16,-0.38,2.22,2.31
2024-12-16 10:37:10.834,-4.5,551.0,0.2,0.95,0.17,-0.75,1.06,2.49
2024-12-16 10:37:10.895,0.22,531.0,0.19,0.96,0.17,-1.3,1.36,2.8
2024-12-16 10:37:10.941,-4.05,554.0,0.2,0.96,0.17,-0.5,1.49,1.58
2024-12-16 10:37:10.989,-4.72,538.0,0.2,0.95,0.16,-0.62,1.61,0.42
2024-12-16 10:37:11.40,-3.82,534.0,0.19,0.97,0.16,-0.75,2.16,-0.19
2024-12-16 10:37:11.99,-4.05,539.0,0.19,0.98,0.17,-1.11,2.34,0.23
2024-12-16 10:37:11.143,-2.25,549.0,0.21,0.97,0.17,-0.56,0.94,0.48
2024-12-16 10:37:11.192,-4.95,536.0,0.2,0.96,0.17,1.63,1.0,0.11
2024-12-16 10:37:11.236,-2.25,550.0,0.19,0.95,0.16,3.22,2.71,-0.56
2024-12-16 10:37:11.283,-3.38,546.0,0.19,0.97,0.16,2.0,3.01,-1.05
2024-12-16 10:37:11.330,-6.52,534.0,0.19,0.96,0.18,1.15,2.46,-0.99
2024-12-16 10:37:11.385,-2.02,558.0,0.2,0.96,0.18,1.09,3.81,-0.93
2024-12-16 10:37:11.445,0.45,532.0,0.2,0.97,0.17,0.23,2.1,0.66
2024-12-16 10:37:11.502,-2.25,543.0,0.18,0.98,0.16,-0.56,2.71,3.41
2024-12-16 10:37:11.553,-5.17,580.0,0.19,0.98,0.15,-0.75,4.35,5.54
2024-12-16 10:37:11.612,-4.95,539.0,0.21,0.93,0.17,1.51,2.46,3.16
2024-12-16 10:37:11.655,-3.15,541.0,0.21,0.99,0.18,0.84,1.0,0.54
2024-12-16 10:37:11.705,-1.8,542.0,0.2,1.0,0.19,-0.81,-1.14,2.19
2024-12-16 10:37:11.748,-1.12,555.0,0.18,0.94,0.17,0.05,0.63,4.38
2024-12-16 10:37:11.828,-1.8,542.0,0.18,0.9,0.14,1.09,3.5,6.4
2024-12-16 10:37:12.39,0.45,551.0,0.21,0.93,0.17,0.23,-0.04,2.92
2024-12-16 10:37:12.106,-5.17,528.0,0.22,0.96,0.18,-0.01,-1.93,2.8
2024-12-16 10:37:12.170,-4.28,537.0,0.24,0.97,0.18,-0.14,-2.48,2.67
2024-12-16 10:37:12.218,-2.02,557.0,0.25,0.95,0.18,-0.38,-1.5,0.42
2024-12-16 10:37:12.268,0.0,537.0,0.24,0.94,0.17,-0.07,-4.19,-0.32
2024-12-16 10:37:12.333,0.22,535.0,0.24,0.96,0.16,0.96,-1.81,0.6
2024-12-16 10:37:12.387,-2.25,523.0,0.24,0.96,0.17,1.88,1.18,2.8
2024-12-16 10:37:12.435,-4.72,533.0,0.24,0.96,0.17,2.18,0.39,4.08
2024-12-16 10:37:12.481,-1.8,497.0,0.24,0.95,0.17,2.06,-0.04,4.75
2024-12-16 10:37:12.531,0.22,536.0,0.24,0.95,0.17,3.04,-0.96,3.16
2024-12-16 10:37:12.588,-1.35,528.0,0.17,0.93,0.18,3.16,-5.23,-13.01
2024-12-16 10:37:12.718,-9.22,494.0,0.19,0.95,0.18,3.83,-4.25,-20.03
2024-12-16 10:37:12.800,20.48,436.0,0.19,0.96,0.12,-0.81,0.88,-16.12
2024-12-16 10:37:12.856,23.62,445.0,0.16,0.99,0.14,-5.63,-0.34,-10.02
2024-12-16 10:37:12.918,32.85,469.0,0.17,1.01,0.15,-6.18,-2.97,-4.77
2024-12-16 10:37:12.970,42.3,475.0,0.13,0.99,0.16,-5.38,-2.36,-6.48
2024-12-16 10:37:13.26,43.65,456.0,0.12,0.99,0.16,-3.07,-2.6,-6.18
2024-12-16 10:37:13.74,48.6,470.0,0.09,0.97,0.17,-4.35,1.0,-5.69
2024-12-16 10:37:13.123,56.02,464.0,0.11,0.99,0.17,-3.55,4.17,-2.7
2024-12-16 10:37:13.184,56.02,452.0,0.11,0.97,0.18,-3.31,2.22,-2.51
2024-12-16 10:37:13.254,64.57,441.0,0.11,1.0,0.19,-2.94,1.49,-3.92
2024-12-16 10:37:13.313,67.5,415.0,0.1,0.95,0.18,-2.09,2.83,-4.1
2024-12-16 10:37:13.369,71.1,399.0,0.1,0.98,0.19,-0.87,-0.47,-3.31
2024-12-16 10:37:13.433,72.67,376.0,0.07,0.97,0.19,-1.11,0.88,-2.39
2024-12-16 10:37:13.543,82.35,387.0,0.06,0.99,0.2,-3.61,0.81,-2.09
2024-12-16 10:37:13.600,81.45,380.0,0.08,0.97,0.19,-2.21,-0.89,-3.12
2024-12-16 10:37:13.645,86.85,381.0,0.09,0.97,0.2,-2.46,0.2,-2.58
2024-12-16 10:37:13.696,84.6,354.0,0.07,0.95,0.21,-4.41,1.12,-0.44
2024-12-16 10:37:13.745,87.75,354.0,0.07,0.95,0.22,-5.14,1.85,0.6
2024-12-16 10:37:13.910,91.57,319.0,0.08,0.99,0.21,-4.84,3.5,3.47
2024-12-16 10:37:14.883,94.95,407.0,0.12,0.96,0.27,-2.64,0.63,2.98
2024-12-16 10:37:14.938,97.88,425.0,0.1,0.95,0.28,-1.3,0.51,1.39
2024-12-16 10:37:14.985,92.92,409.0,0.11,0.96,0.28,-1.48,1.97,0.72
2024-12-16 10:37:15.60,92.92,400.0,0.11,0.96,0.29,-0.5,0.69,-0.13
2024-12-16 10:37:15.183,95.17,421.0,0.12,0.95,0.29,-0.01,-0.34,1.21
2024-12-16 10:37:15.246,94.5,467.0,0.1,0.96,0.29,1.15,-0.28,1.51
2024-12-16 10:37:15.435,94.05,390.0,0.11,0.95,0.27,2.0,-1.69,-0.56
2024-12-16 10:37:15.479,94.27,397.0,0.11,0.96,0.28,2.12,-1.57,-0.68
2024-12-16 10:37:15.526,93.38,426.0,0.11,0.95,0.28,1.7,-0.34,0.11
2024-12-16 10:37:15.578,96.97,398.0,0.11,0.95,0.27,0.96,0.14,0.66
2024-12-16 10:37:15.639,98.55,381.0,0.1,0.95,0.27,1.57,-0.04,0.48
2024-12-16 10:37:15.712,96.07,383.0,0.1,0.95,0.27,1.21,-0.1,-0.26
2024-12-16 10:37:15.842,96.3,395.0,0.12,0.95,0.27,1.63,1.36,-0.19
2024-12-16 10:37:15.958,91.8,384.0,0.1,0.96,0.27,1.76,1.24,0.17
2024-12-16 10:37:16.934,21.6,512.0,0.15,0.94,0.24,1.7,-4.62,-0.62
2024-12-16 10:37:16.992,20.7,514.0,0.14,0.96,0.26,1.15,-7.18,-0.99
2024-12-16 10:37:17.40,16.2,507.0,0.15,0.97,0.27,1.45,-3.76,-0.87
2024-12-16 10:37:17.88,8.55,539.0,0.11,0.96,0.27,2.31,-0.1,1.76
2024-12-16 10:37:17.131,9.9,578.0,0.16,0.96,0.28,2.92,-4.01,3.83
2024-12-16 10:37:17.183,5.4,576.0,0.16,0.97,0.26,2.73,-2.36,6.03
2024-12-16 10:37:17.245,1.12,587.0,0.11,0.95,0.24,1.51,-1.08,-4.41
2024-12-16 10:37:17.288,-1.35,606.0,0.16,0.98,0.23,2.37,-0.71,-2.27
2024-12-16 10:37:17.334,-2.02,594.0,0.12,0.95,0.23,2.0,0.88,-2.45
2024-12-16 10:37:17.380,0.0,584.0,0.11,0.96,0.23,0.9,-1.87,-3.8
2024-12-16 10:37:17.428,-1.12,558.0,0.14,0.98,0.23,0.66,-2.18,-4.53
2024-12-16 10:37:17.474,-4.95,564.0,0.1,0.98,0.24,3.16,1.06,-5.5
2024-12-16 10:37:17.522,-1.35,565.0,0.13,0.96,0.23,5.3,3.74,-5.81
2024-12-16 10:37:17.574,-1.12,573.0,0.07,0.96,0.22,3.77,5.94,-6.3
2024-12-16 10:37:17.638,-2.92,572.0,0.1,0.96,0.24,2.86,9.54,-6.6
2024-12-16 10:37:17.696,-1.57,559.0,0.12,0.99,0.22,-0.14,2.65,0.05
2024-12-16 10:37:17.758,-1.35,565.0,0.09,0.98,0.22,0.35,2.71,1.27
2024-12-16 10:37:17.816,-0.9,545.0,0.1,0.97,0.22,2.43,2.95,1.88
2024-12-16 10:37:17.863,1.12,564.0,0.1,0.96,0.22,2.98,3.68,3.22
2024-12-16 10:37:17.908,-2.92,553.0,0.11,0.96,0.22,2.92,2.71,3.96
2024-12-16 10:37:17.957,0.9,545.0,0.11,0.99,0.22,2.73,2.58,4.02
2024-12-16 10:37:17.999,-3.15,539.0,0.11,0.98,0.2,4.44,2.83,3.59
2024-12-16 10:37:18.49,0.22,550.0,0.12,0.98,0.19,8.17,4.72,4.32
2024-12-16 10:37:18.92,0.45,549.0,0.12,0.98,0.15,12.01,4.84,6.15
2024-12-16 10:37:18.145,1.12,544.0,0.12,1.01,0.15,14.33,7.41,8.47
2024-12-16 10:37:18.201,-5.4,561.0,0.14,1.01,0.15,16.95,10.95,15.61
2024-12-16 10:37:18.248,-0.22,548.0,0.16,1.0,0.15,16.89,12.41,21.17
2024-12-16 10:37:18.305,-1.35,557.0,0.17,1.0,0.15,13.17,17.6,26.48
2024-12-16 10:37:18.365,1.12,548.0,0.21,0.96,0.15,10.0,14.85,27.7
2024-12-16 10:37:18.424,-1.57,551.0,0.22,0.92,0.15,8.84,8.32,20.19
2024-12-16 10:37:18.488,0.45,548.0,0.23,0.93,0.13,7.31,4.11,11.59
2024-12-16 10:37:18.544,-0.9,542.0,0.23,0.93,0.12,4.08,-2.6,2.43
2024-12-16 10:37:18.592,-0.67,545.0,0.22,0.91,0.13,3.1,-4.56,-1.84
2024-12-16 10:37:18.661,-2.02,542.0,0.22,0.94,0.11,2.24,0.51,-1.54
2024-12-16 10:37:18.720,-0.22,540.0,0.26,0.97,0.12,-0.68,-0.34,2.0
2024-12-16 10:37:18.780,-1.57,534.0,0.25,0.96,0.14,-0.75,4.29,5.6
2024-12-16 10:37:18.825,0.0,534.0,0.27,0.96,0.12,-0.68,5.7,7.8
2024-12-16 10:37:18.873,0.9,534.0,0.26,0.96,0.13,-1.11,4.9,9.14
2024-12-16 10:37:18.925,-4.95,525.0,0.27,0.95,0.15,0.17,5.39,8.84
2024-12-16 10:37:18.981,-1.35,542.0,0.27,0.93,0.13,0.41,4.54,7.13
2024-12-16 10:37:19.34,-3.38,577.0,0.28,0.93,0.12,-1.36,2.52,4.75
2024-12-16 10:37:19.92,-0.9,546.0,0.26,0.93,0.13,-2.21,1.43,1.51
2024-12-16 10:37:19.138,-1.12,535.0,0.28,0.94,0.13,-2.09,1.97,0.66
2024-12-16 10:37:19.201,-4.5,537.0,0.3,0.95,0.13,-2.03,-0.83,-0.93
2024-12-16 10:37:19.336,-6.3,562.0,0.29,0.93,0.13,-2.33,-0.96,1.7
2024-12-16 10:37:19.386,-3.6,554.0,0.32,0.93,0.14,-2.64,-3.03,1.76
2024-12-16 10:37:19.434,-3.82,546.0,0.31,0.94,0.14,-3.0,-4.43,1.09
2024-12-16 10:37:19.499,0.45,547.0,0.29,0.94,0.13,-3.25,-4.13,1.09
2024-12-16 10:37:19.671,1.57,597.0,0.29,0.93,0.14,-2.7,-3.27,1.33
2024-12-16 10:37:19.743,0.45,569.0,0.28,0.94,0.14,-3.25,-3.7,-3.19
2024-12-16 10:37:19.789,2.02,580.0,0.3,0.93,0.16,-3.92,-4.13,-2.33
2024-12-16 10:37:19.949,-4.5,584.0,0.28,0.94,0.15,-3.37,-2.05,-2.45
2024-12-16 10:37:20.352,2.02,573.0,0.3,0.92,0.16,-0.26,-0.59,1.7
2024-12-16 10:37:20.409,1.8,574.0,0.31,0.92,0.15,-1.36,-2.48,0.48
2024-12-16 10:37:20.454,-0.9,564.0,0.31,0.94,0.15,-1.97,-0.71,0.78
2024-12-16 10:37:20.509,-2.25,564.0,0.32,0.94,0.16,-2.09,-2.3,1.64
2024-12-16 10:37:20.570,-4.72,557.0,0.3,0.93,0.16,-2.21,-0.04,1.64
2024-12-16 10:37:20.627,-1.12,553.0,0.32,0.93,0.17,-1.66,-1.63,2.0
2024-12-16 10:37:20.687,-3.82,534.0,0.25,0.92,0.17,-1.66,-1.99,-3.61
2024-12-16 10:37:20.731,0.22,531.0,0.27,0.92,0.18,0.29,-2.48,-10.57
2024-12-16 10:37:20.781,2.7,516.0,0.24,0.92,0.19,0.96,-1.93,-18.81
2024-12-16 10:37:20.859,5.62,500.0,0.25,0.93,0.18,0.17,1.85,-19.73
2024-12-16 10:37:20.992,21.82,462.0,0.24,0.96,0.17,-0.26,2.89,-19.54
2024-12-16 10:37:21.168,43.42,442.0,0.16,0.96,0.17,-3.61,0.02,-6.18
2024-12-16 10:37:21.220,40.05,454.0,0.18,0.96,0.15,-4.1,-3.58,-3.55
2024-12-16 10:37:21.297,46.57,443.0,0.15,0.96,0.21,-7.22,2.4,-4.53
2024-12-16 10:37:21.422,57.15,411.0,0.15,0.97,0.2,-7.28,5.58,-2.88
2024-12-16 10:37:21.490,57.15,407.0,0.15,0.96,0.22,-5.51,2.71,-5.02
2024-12-16 10:37:21.544,60.3,398.0,0.16,0.98,0.22,-3.61,2.22,-7.34
2024-12-16 10:37:21.590,64.8,403.0,0.13,0.96,0.22,-1.54,1.36,-7.58
2024-12-16 10:37:21.644,70.2,375.0,0.14,0.97,0.22,-0.14,1.36,-6.36
2024-12-16 10:37:21.700,76.72,339.0,0.13,0.98,0.21,2.31,-0.53,-6.12
2024-12-16 10:37:21.750,79.65,348.0,0.12,0.99,0.21,3.4,-1.08,-4.35
2024-12-16 10:37:21.795,83.03,356.0,0.12,0.98,0.23,2.86,-1.14,-3.37
2024-12-16 10:37:21.869,83.92,368.0,0.12,0.95,0.22,1.57,-0.77,-2.03
2024-12-16 10:37:21.982,87.07,370.0,0.11,0.95,0.23,-2.46,0.75,1.51
2024-12-16 10:37:22.42,86.4,400.0,0.12,1.0,0.22,-3.92,1.18,3.83
2024-12-16 10:37:22.102,84.15,426.0,0.11,0.96,0.22,-0.81,-0.28,1.51
2024-12-16 10:37:22.149,84.38,412.0,0.11,0.96,0.22,-0.62,-0.71,-0.13
2024-12-16 10:37:22.208,86.62,452.0,0.11,0.97,0.23,-1.72,-0.96,0.35
2024-12-16 10:37:22.273,83.92,435.0,0.12,0.96,0.24,-2.52,-0.34,-0.13
2024-12-16 10:37:22.317,83.7,445.0,0.11,0.95,0.23,-1.66,-2.11,-1.96
2024-12-16 10:37:22.375,83.92,470.0,0.1,0.96,0.23,-3.61,-1.2,-0.19
2024-12-16 10:37:22.425,79.2,483.0,0.13,0.96,0.24,-4.23,-0.47,1.27
2024-12-16 10:37:22.476,86.17,467.0,0.12,0.97,0.23,-3.37,-1.02,0.05
2024-12-16 10:37:22.538,84.38,487.0,0.13,0.98,0.24,-0.93,0.51,1.15
2024-12-16 10:37:22.597,86.17,467.0,0.12,0.97,0.24,-0.2,-1.02,1.21
2024-12-16 10:37:22.642,81.45,471.0,0.11,0.96,0.24,0.29,-0.65,1.76
2024-12-16 10:37:22.689,81.67,465.0,0.11,0.96,0.24,0.29,0.08,1.88
2024-12-16 10:37:22.735,85.72,477.0,0.12,0.96,0.24,0.54,0.33,1.82
2024-12-16 10:37:22.786,81.45,496.0,0.12,0.96,0.24,0.35,-0.34,1.76
2024-12-16 10:37:22.847,87.97,470.0,0.13,0.96,0.25,0.05,-0.16,2.06
2024-12-16 10:37:22.893,84.15,490.0,0.12,0.96,0.25,-0.07,-0.71,1.94
2024-12-16 10:37:22.944,81.9,477.0,0.13,0.96,0.24,-0.01,-0.89,1.94
2024-12-16 10:37:23.9,83.47,475.0,0.13,0.96,0.25,-0.01,-1.26,1.09
2024-12-16 10:37:23.70,83.7,482.0,0.13,0.96,0.24,0.11,-0.04,1.27
2024-12-16 10:37:23.129,84.82,500.0,0.13,0.96,0.25,0.35,-0.22,1.82
2024-12-16 10:37:23.173,82.57,500.0,0.13,0.96,0.24,0.29,-0.41,1.7
2024-12-16 10:37:23.224,79.2,489.0,0.14,0.96,0.25,0.41,-0.71,1.58
2024-12-16 10:37:23.272,83.25,488.0,0.13,0.96,0.25,0.54,-1.08,1.21
2024-12-16 10:37:23.330,85.95,477.0,0.14,0.96,0.24,0.29,0.14,1.88
2024-12-16 10:37:23.376,81.0,491.0,0.14,0.95,0.25,0.35,-0.65,1.27
2024-12-16 10:37:23.424,81.9,494.0,0.13,0.95,0.25,-0.26,-0.59,1.21
2024-12-16 10:37:23.469,73.35,492.0,0.13,0.94,0.25,-0.2,0.33,-0.13
2024-12-16 10:37:23.515,86.4,486.0,0.14,0.96,0.24,1.09,-1.38,-1.96
2024-12-16 10:37:23.634,84.82,460.0,0.13,0.96,0.25,0.84,-0.04,-3.61
2024-12-16 10:37:23.829,76.05,561.0,0.12,0.94,0.25,2.73,-1.69,-0.13
2024-12-16 10:37:23.889,72.9,524.0,0.14,0.95,0.25,3.47,-2.42,-1.42
2024-12-16 10:37:23.934,72.67,526.0,0.16,0.97,0.24,2.0,-2.3,-2.33
2024-12-16 10:37:23.993,63.9,508.0,0.14,0.97,0.24,0.66,-5.04,-3.06
2024-12-16 10:37:24.43,61.88,527.0,0.15,0.98,0.23,-0.44,-5.96,-2.58
2024-12-16 10:37:24.89,60.52,508.0,0.11,0.95,0.23,0.17,-3.76,-2.76
2024-12-16 10:37:24.135,56.02,519.0,0.14,0.98,0.19,1.39,-2.66,-0.62
2024-12-16 10:37:24.185,50.85,518.0,0.14,0.98,0.21,2.86,-1.32,-0.44
2024-12-16 10:37:24.243,49.72,492.0,0.14,0.98,0.22,5.17,-1.26,-1.29
2024-12-16 10:37:24.290,41.85,487.0,0.14,0.99,0.21,4.63,-3.21,-2.7
2024-12-16 10:37:24.336,40.27,505.0,0.1,0.96,0.21,4.81,-4.07,-4.89
2024-12-16 10:37:24.388,32.85,504.0,0.1,0.95,0.2,3.47,-4.19,-5.99
2024-12-16 10:37:24.445,30.82,485.0,0.11,0.95,0.21,3.04,-4.37,-10.08
2024-12-16 10:37:24.491,28.8,496.0,0.11,0.96,0.21,4.81,-2.36,-10.69
2024-12-16 10:37:24.541,28.12,498.0,0.1,0.96,0.2,5.97,-3.21,-8.86
2024-12-16 10:37:24.584,25.42,515.0,0.08,0.98,0.18,6.27,-0.53,-8.31
2024-12-16 10:37:24.633,22.5,523.0,0.07,0.99,0.18,5.24,-1.38,-7.7
2024-12-16 10:37:24.679,21.15,541.0,0.08,1.0,0.17,4.38,-1.26,-6.36
2024-12-16 10:37:24.767,16.2,547.0,0.08,1.01,0.19,4.93,0.33,-6.85
2024-12-16 10:37:24.883,6.3,621.0,0.05,1.0,0.14,4.93,1.3,-0.62
2024-12-16 10:37:24.941,4.28,629.0,0.06,0.98,0.15,3.16,1.61,5.05
2024-12-16 10:37:25.14,2.47,607.0,0.02,1.0,0.16,1.02,0.2,-0.87
2024-12-16 10:37:25.133,-3.15,563.0,0.06,0.99,0.14,2.06,-0.04,0.29
2024-12-16 10:37:25.198,0.22,548.0,0.02,0.99,0.15,0.84,1.12,-3.67
2024-12-16 10:37:25.253,0.22,537.0,0.05,0.99,0.15,0.9,1.06,1.09
2024-12-16 10:37:25.325,-2.47,540.0,0.03,0.97,0.14,0.66,1.73,2.06
2024-12-16 10:37:25.377,5.62,536.0,0.05,0.99,0.13,1.15,2.16,2.37
2024-12-16 10:37:25.432,-2.25,543.0,0.03,0.99,0.13,1.94,3.93,-1.78
2024-12-16 10:37:25.489,1.35,536.0,0.04,0.99,0.12,2.31,1.85,-0.26
2024-12-16 10:37:25.590,-2.47,564.0,0.03,0.98,0.13,1.51,3.81,-0.68
2024-12-16 10:37:25.793,1.12,539.0,0.03,0.99,0.12,1.82,5.7,1.21
2024-12-16 10:37:25.851,4.72,552.0,0.02,1.0,0.1,2.55,7.77,1.15
2024-12-16 10:37:25.904,0.0,551.0,0.04,1.01,0.1,4.99,8.02,0.9
2024-12-16 10:37:26.27,-0.45,563.0,0.05,0.99,0.1,6.09,10.76,3.41
2024-12-16 10:37:26.105,3.82,618.0,0.05,0.99,0.08,3.65,9.42,6.46
2024-12-16 10:37:26.207,1.35,568.0,0.09,0.98,0.11,0.41,13.39,14.64
2024-12-16 10:37:26.767,2.47,550.0,0.28,0.95,0.22,-15.03,-13.53,3.83
2024-12-16 10:37:26.823,4.5,560.0,0.29,0.99,0.19,-9.41,-18.47,1.76
2024-12-16 10:37:27.240,-0.9,537.0,0.26,0.95,0.21,-2.58,-24.58,-1.35
2024-12-16 10:37:27.736,-0.45,545.0,0.2,0.93,0.29,5.6,5.39,3.16
2024-12-16 10:37:27.786,-2.47,524.0,0.24,0.92,0.31,5.6,5.45,3.59
2024-12-16 10:37:27.834,1.12,525.0,0.26,0.93,0.32,5.36,1.43,1.64
2024-12-16 10:37:27.894,0.67,560.0,0.25,0.93,0.31,5.54,-0.1,-0.93
2024-12-16 10:37:28.162,-0.45,553.0,0.29,0.92,0.28,6.64,-14.08,-8.74
2024-12-16 10:37:28.261,2.47,551.0,0.18,0.91,0.24,6.21,-14.99,1.21
2024-12-16 10:37:28.378,3.38,549.0,0.19,0.93,0.11,7.13,-12.55,8.96
2024-12-16 10:37:28.435,4.95,531.0,0.2,1.01,0.13,5.3,-13.16,11.77
2024-12-16 10:37:28.548,4.5,599.0,0.26,0.89,0.12,-1.72,-22.26,7.19
2024-12-16 10:37:28.605,0.45,520.0,0.25,0.84,0.11,-3.55,-21.4,6.34
2024-12-16 10:37:28.674,0.22,526.0,0.3,0.88,0.12,-7.28,-25.37,-0.87
2024-12-16 10:37:28.865,3.38,546.0,0.24,0.9,0.08,-13.87,-43.86,-14.0
2024-12-16 10:37:28.906,-0.22,548.0,0.26,0.97,0.14,-17.04,-46.91,-16.0
2024-12-16 10:37:28.985,0.0,578.0,0.16,1.03,0.26,-18.02,-48.62,-21.98
2024-12-16 10:37:29.45,6.07,540.0,0.17,0.85,0.27,-5.02,-36.9,-21.98
2024-12-16 10:37:29.45,-1.35,572.0,0.17,0.84,0.28,-2.76,-37.58,-21.5
2024-12-16 10:37:29.92,1.35,553.0,0.17,0.99,0.32,8.23,-34.52,-14.17
2024-12-16 10:37:29.178,1.8,543.0,0.21,1.09,0.38,17.08,-9.07,11.89
2024-12-16 10:37:29.267,0.0,552.0,0.2,0.93,0.26,9.45,-9.19,15.49
