Timestamp,PosIsDeg,ForceIs,AccX,AccY,AccZ,GyroX,GyroY,GyroZ
2024-12-06 12:31:25.250,31.5,463.0,0.31,0.93,-0.1,0.22,-0.06,-0.91
2024-12-06 12:31:25.278,26.1,467.0,0.32,0.94,-0.09,0.04,0.55,-0.48
2024-12-06 12:31:25.306,23.17,455.0,0.46,1.05,-0.09,0.28,7.94,10.87
2024-12-06 12:31:25.333,23.4,457.0,0.37,0.97,-0.1,-0.45,10.87,20.7
2024-12-06 12:31:25.362,16.2,481.0,0.36,0.9,-0.08,-2.16,2.57,18.32
2024-12-06 12:31:25.524,21.6,462.0,0.34,0.85,-0.07,-1.79,-7.32,12.46
2024-12-06 12:31:25.530,17.55,454.0,0.29,0.91,-0.1,-2.53,0.0,-1.27
2024-12-06 12:31:25.555,9.9,449.0,0.34,0.91,-0.08,-2.95,1.77,-4.2
2024-12-06 12:31:25.583,10.8,468.0,0.39,0.93,-0.08,-2.59,1.35,-2.25
2024-12-06 12:31:25.609,11.02,477.0,0.37,0.91,-0.08,-3.14,-2.86,-2.68
2024-12-06 12:31:25.780,7.42,449.0,0.38,0.91,-0.09,-4.3,-7.2,-2.61
2024-12-06 12:31:25.801,10.35,454.0,0.34,0.93,-0.1,-2.95,-2.19,-2.86
2024-12-06 12:31:25.811,0.9,489.0,0.33,0.92,-0.1,-2.22,-0.79,-1.39
2024-12-06 12:31:27.111,1.57,459.0,0.36,0.9,-0.09,0.22,0.31,1.72
2024-12-06 12:31:27.119,-1.57,454.0,0.36,0.9,-0.09,0.22,0.13,1.6
2024-12-06 12:31:27.125,1.57,453.0,0.36,0.9,-0.09,0.28,-0.12,1.48
2024-12-06 12:31:27.134,-0.22,461.0,0.36,0.91,-0.09,0.28,-0.12,1.41
2024-12-06 12:31:27.156,2.02,460.0,0.36,0.91,-0.09,0.28,-0.61,1.29
2024-12-06 12:31:27.158,-5.17,479.0,0.36,0.91,-0.09,0.22,-0.91,1.35
2024-12-06 12:31:27.163,1.12,461.0,0.36,0.91,-0.09,0.04,-1.22,1.41
2024-12-06 12:31:27.171,1.57,474.0,0.36,0.92,-0.09,-0.15,-1.28,1.48
2024-12-06 12:31:27.182,-0.45,463.0,0.36,0.92,-0.09,-0.15,-1.28,1.48
2024-12-06 12:31:27.186,2.92,471.0,0.36,0.93,-0.09,-0.39,-1.34,1.48
2024-12-06 12:31:27.197,-0.67,452.0,0.35,0.93,-0.09,-0.51,-1.52,1.41
2024-12-06 12:31:27.203,-0.67,482.0,0.35,0.92,-0.09,-0.57,-1.58,1.29
2024-12-06 12:31:27.214,0.9,458.0,0.35,0.92,-0.09,-0.57,-1.58,1.11
2024-12-06 12:31:27.245,0.9,471.0,0.36,0.92,-0.09,-0.15,-1.95,1.05
2024-12-06 12:31:27.248,1.12,492.0,0.36,0.92,-0.09,-0.02,-1.89,1.05
2024-12-06 12:31:27.257,-2.02,512.0,0.36,0.92,-0.1,-0.02,-1.77,1.11
2024-12-06 12:31:27.264,-2.47,461.0,0.36,0.92,-0.1,-0.02,-1.77,1.11
2024-12-06 12:31:27.272,1.8,453.0,0.36,0.92,-0.1,0.04,-2.07,1.05
2024-12-06 12:31:27.279,2.02,450.0,0.35,0.92,-0.1,0.1,-2.19,0.99
2024-12-06 12:31:27.288,3.38,474.0,0.35,0.91,-0.1,0.1,-1.52,0.8
2024-12-06 12:31:27.297,-2.92,471.0,0.35,0.91,-0.1,0.16,-1.34,0.8
2024-12-06 12:31:27.308,-0.9,464.0,0.36,0.91,-0.1,0.16,-1.22,0.86
2024-12-06 12:31:27.310,-0.67,462.0,0.36,0.91,-0.09,0.16,-1.22,0.86
2024-12-06 12:31:27.319,2.7,472.0,0.36,0.91,-0.09,0.28,-0.91,0.86
2024-12-06 12:31:27.331,-2.02,461.0,0.36,0.91,-0.09,0.34,-0.61,0.8
2024-12-06 12:31:27.336,1.35,458.0,0.36,0.91,-0.09,0.4,-0.54,0.74
2024-12-06 12:31:27.342,1.12,474.0,0.36,0.91,-0.09,0.4,-0.42,0.68
2024-12-06 12:31:27.354,-4.28,461.0,0.36,0.91,-0.09,0.4,-0.42,0.5
2024-12-06 12:31:27.359,1.12,472.0,0.36,0.91,-0.09,0.4,-0.36,0.5
2024-12-06 12:31:27.369,-1.12,447.0,0.36,0.91,-0.09,0.34,-0.48,0.38
2024-12-06 12:31:27.374,0.9,455.0,0.36,0.91,-0.09,0.34,-0.54,0.25
2024-12-06 12:31:27.380,-4.05,460.0,0.36,0.91,-0.09,0.28,-0.42,0.25
2024-12-06 12:31:27.388,-0.22,458.0,0.36,0.92,-0.09,0.22,-0.18,0.32
2024-12-06 12:31:27.402,2.02,459.0,0.37,0.92,-0.09,0.22,-0.18,0.32
2024-12-06 12:31:27.434,-4.05,469.0,0.37,0.92,-0.09,0.22,-0.06,0.38
2024-12-06 12:31:27.437,0.45,478.0,0.37,0.91,-0.09,0.28,0.62,0.25
2024-12-06 12:31:27.447,0.0,461.0,0.37,0.91,-0.09,0.34,0.55,0.25
2024-12-06 12:31:27.474,0.45,472.0,0.37,0.91,-0.09,0.59,-0.61,0.19
2024-12-06 12:31:27.480,0.22,460.0,0.37,0.91,-0.09,0.65,-0.97,0.19
2024-12-06 12:31:27.490,0.22,464.0,0.37,0.91,-0.09,0.65,-1.15,0.19
2024-12-06 12:31:27.499,2.02,454.0,0.37,0.91,-0.1,0.65,-1.34,0.13
2024-12-06 12:31:27.506,1.12,459.0,0.37,0.91,-0.1,0.59,-1.15,0.25
2024-12-06 12:31:27.510,0.9,454.0,0.37,0.91,-0.1,0.59,-1.15,0.38
2024-12-06 12:31:27.521,0.67,488.0,0.37,0.91,-0.09,0.47,-0.85,0.38
2024-12-06 12:31:27.528,1.57,465.0,0.37,0.92,-0.09,0.28,-0.48,0.5
2024-12-06 12:31:27.535,-4.5,461.0,0.37,0.92,-0.09,0.16,-0.12,0.62
2024-12-06 12:31:27.543,0.67,496.0,0.37,0.92,-0.09,0.16,0.13,0.74
2024-12-06 12:31:27.556,-0.45,466.0,0.37,0.91,-0.09,0.16,0.19,0.86
2024-12-06 12:31:27.558,1.35,494.0,0.37,0.91,-0.09,0.16,0.19,0.86
2024-12-06 12:31:27.564,1.35,462.0,0.37,0.9,-0.09,0.16,0.25,0.99
2024-12-06 12:31:27.572,2.25,452.0,0.37,0.9,-0.09,0.22,0.25,0.93
2024-12-06 12:31:27.591,0.9,461.0,0.37,0.91,-0.09,0.22,0.31,0.86
2024-12-06 12:31:27.594,0.45,455.0,0.37,0.91,-0.09,0.22,0.25,0.8
2024-12-06 12:31:27.606,-0.45,461.0,0.37,0.91,-0.09,0.22,0.19,0.8
2024-12-06 12:31:27.627,2.7,449.0,0.37,0.91,-0.09,0.1,-0.97,0.74
2024-12-06 12:31:27.639,-5.85,452.0,0.37,0.91,-0.09,-0.02,-1.15,0.56
2024-12-06 12:31:27.643,0.22,454.0,0.37,0.9,-0.09,-0.02,-1.15,0.56
2024-12-06 12:31:27.649,1.35,470.0,0.37,0.91,-0.09,-0.02,-1.4,0.44
2024-12-06 12:31:27.657,2.02,459.0,0.37,0.91,-0.1,-0.08,-1.46,0.44
2024-12-06 12:31:27.665,-1.12,471.0,0.36,0.91,-0.1,-0.15,-1.34,0.5
2024-12-06 12:31:27.695,-0.22,457.0,0.36,0.91,-0.1,-0.15,-1.09,0.44
2024-12-06 12:31:27.698,-0.9,454.0,0.36,0.91,-0.1,-0.15,-0.91,0.5
2024-12-06 12:31:27.703,2.25,463.0,0.36,0.91,-0.1,-0.15,-0.85,0.56
2024-12-06 12:31:27.711,-1.8,471.0,0.36,0.91,-0.1,-0.08,-0.67,0.56
2024-12-06 12:31:27.718,0.22,477.0,0.36,0.91,-0.1,-0.08,-0.36,0.68
2024-12-06 12:31:27.729,-3.15,472.0,0.37,0.91,-0.1,-0.15,-0.36,0.68
2024-12-06 12:31:27.734,-2.02,482.0,0.37,0.91,-0.1,-0.08,-0.24,0.86
2024-12-06 12:31:27.744,1.35,456.0,0.37,0.91,-0.1,-0.08,-0.06,1.11
2024-12-06 12:31:27.856,4.05,478.0,0.38,0.91,-0.09,-0.76,0.31,2.02
2024-12-06 12:31:27.863,-1.8,485.0,0.38,0.91,-0.09,-0.76,0.49,2.27
2024-12-06 12:31:27.881,0.45,451.0,0.38,0.92,-0.09,-0.88,0.92,2.45
2024-12-06 12:31:27.885,-2.92,470.0,0.37,0.91,-0.09,-0.88,0.92,2.45
2024-12-06 12:31:27.888,0.45,459.0,0.37,0.9,-0.09,-0.88,1.47,2.27
2024-12-06 12:31:27.892,-2.47,474.0,0.38,0.9,-0.09,-0.76,1.65,2.09
2024-12-06 12:31:27.928,0.0,459.0,0.4,0.9,-0.09,-0.57,1.53,2.76
2024-12-06 12:31:27.932,4.05,448.0,0.4,0.91,-0.09,-0.63,1.23,3.0
2024-12-06 12:31:27.939,-1.35,469.0,0.4,0.91,-0.09,-0.63,0.62,3.37
2024-12-06 12:31:27.949,0.22,471.0,0.41,0.92,-0.09,-0.63,-0.54,3.73
2024-12-06 12:31:27.966,-1.57,464.0,0.4,0.92,-0.09,-0.63,-0.54,3.73
2024-12-06 12:31:27.969,1.35,481.0,0.38,0.9,-0.09,-1.0,-1.28,2.88
2024-12-06 12:31:27.976,1.12,471.0,0.39,0.9,-0.09,-1.0,-1.64,2.51
2024-12-06 12:31:27.984,-2.47,454.0,0.39,0.9,-0.09,-1.0,-1.89,3.06
2024-12-06 12:31:27.995,-0.67,465.0,0.41,0.9,-0.09,-1.0,-1.34,3.98
2024-12-06 12:31:28.6,2.7,464.0,0.41,0.91,-0.08,-1.06,-1.34,3.98
2024-12-06 12:31:28.9,2.92,448.0,0.41,0.91,-0.08,-1.06,-1.09,4.71
2024-12-06 12:31:28.15,-2.7,459.0,0.4,0.91,-0.08,-1.06,-0.61,5.14
2024-12-06 12:31:28.24,0.22,467.0,0.41,0.91,-0.09,-1.0,0.19,5.5
2024-12-06 12:31:28.31,-4.72,464.0,0.41,0.91,-0.09,-1.06,0.74,6.18
2024-12-06 12:31:28.39,-3.38,481.0,0.41,0.91,-0.09,-1.06,0.74,6.18
2024-12-06 12:31:28.46,-1.57,459.0,0.42,0.91,-0.08,-1.0,0.55,6.97
2024-12-06 12:31:28.54,0.67,448.0,0.42,0.91,-0.09,-0.94,0.86,7.58
2024-12-06 12:31:28.63,2.02,470.0,0.42,0.91,-0.09,-0.76,1.1,8.07
2024-12-06 12:31:28.70,-0.9,464.0,0.42,0.91,-0.09,-0.63,0.55,8.62
2024-12-06 12:31:28.80,0.67,458.0,0.42,0.91,-0.09,-0.57,0.68,9.1
2024-12-06 12:31:28.85,2.02,448.0,0.42,0.91,-0.1,-0.57,0.68,9.1
2024-12-06 12:31:28.93,0.9,486.0,0.42,0.91,-0.09,-0.57,0.62,9.65
2024-12-06 12:31:28.104,1.12,449.0,0.42,0.91,-0.09,-0.39,-0.12,10.14
2024-12-06 12:31:28.110,0.67,465.0,0.42,0.91,-0.1,-0.39,-0.42,10.57
2024-12-06 12:31:28.122,-1.35,456.0,0.42,0.92,-0.1,-0.33,-0.73,10.81
2024-12-06 12:31:28.161,2.7,474.0,0.41,0.9,-0.1,0.53,-0.67,12.03
2024-12-06 12:31:28.163,0.9,455.0,0.41,0.9,-0.1,0.71,0.07,12.4
2024-12-06 12:31:28.171,2.47,459.0,0.4,0.9,-0.1,0.71,0.07,12.4
2024-12-06 12:31:28.180,0.22,459.0,0.4,0.9,-0.09,0.89,1.29,12.71
2024-12-06 12:31:28.187,1.57,456.0,0.4,0.9,-0.09,1.08,2.75,13.19
2024-12-06 12:31:28.198,-2.47,449.0,0.41,0.9,-0.1,1.44,3.91,13.68
2024-12-06 12:31:28.202,-3.38,453.0,0.41,0.9,-0.1,1.81,4.46,14.11
2024-12-06 12:31:28.209,-3.15,456.0,0.4,0.9,-0.11,1.93,5.19,14.29
2024-12-06 12:31:28.218,2.02,464.0,0.41,0.89,-0.11,1.93,5.19,14.29
2024-12-06 12:31:28.227,-0.45,463.0,0.42,0.89,-0.1,1.93,5.99,14.54
2024-12-06 12:31:28.237,2.02,448.0,0.43,0.89,-0.09,1.87,5.8,15.15
2024-12-06 12:31:28.241,-1.35,454.0,0.42,0.89,-0.1,1.69,5.25,15.64
2024-12-06 12:31:28.249,3.6,456.0,0.42,0.89,-0.11,1.5,5.56,15.88
2024-12-06 12:31:28.257,1.35,457.0,0.42,0.89,-0.11,1.38,5.68,16.06
2024-12-06 12:31:28.266,1.35,459.0,0.43,0.89,-0.1,1.38,5.68,16.06
2024-12-06 12:31:28.283,2.92,493.0,0.43,0.89,-0.1,1.2,5.38,16.31
2024-12-06 12:31:28.286,0.9,455.0,0.44,0.89,-0.09,0.89,5.62,16.43
2024-12-06 12:31:28.289,-3.82,469.0,0.44,0.89,-0.09,0.65,5.99,16.55
2024-12-06 12:31:28.297,2.02,476.0,0.44,0.89,-0.08,0.4,5.68,16.67
2024-12-06 12:31:28.311,-3.38,458.0,0.45,0.89,-0.08,0.1,5.38,16.67
2024-12-06 12:31:28.313,-7.42,451.0,0.45,0.88,-0.07,0.1,5.38,16.67
2024-12-06 12:31:28.323,-2.02,457.0,0.46,0.88,-0.07,-0.27,5.31,16.8
2024-12-06 12:31:28.328,-2.7,462.0,0.47,0.87,-0.07,-0.51,4.83,17.04
2024-12-06 12:31:28.335,0.67,456.0,0.47,0.87,-0.07,-0.57,4.28,17.28
2024-12-06 12:31:28.349,-2.02,463.0,0.47,0.87,-0.07,-0.63,4.03,17.34
2024-12-06 12:31:28.352,1.12,466.0,0.47,0.86,-0.07,-0.69,4.09,17.22
2024-12-06 12:31:28.358,0.0,458.0,0.47,0.85,-0.07,-0.69,4.09,17.22
2024-12-06 12:31:28.395,1.35,475.0,0.47,0.85,-0.07,-0.69,4.03,17.04
2024-12-06 12:31:28.398,-1.57,456.0,0.49,0.85,-0.07,-0.51,4.52,16.18
2024-12-06 12:31:28.404,0.9,465.0,0.49,0.85,-0.07,-0.33,4.28,16.0
2024-12-06 12:31:28.412,0.9,467.0,0.5,0.85,-0.06,-0.39,3.79,15.82
2024-12-06 12:31:28.434,-1.12,455.0,0.5,0.84,-0.07,-0.33,3.06,15.7
2024-12-06 12:31:28.436,-2.02,451.0,0.5,0.83,-0.07,-0.27,2.57,15.21
2024-12-06 12:31:28.444,1.12,450.0,0.51,0.83,-0.07,-0.33,2.57,15.21
2024-12-06 12:31:28.452,-1.12,449.0,0.51,0.83,-0.07,-0.33,1.59,15.09
2024-12-06 12:31:28.460,0.67,452.0,0.51,0.83,-0.07,-0.57,1.04,14.9
2024-12-06 12:31:28.484,3.38,469.0,0.51,0.84,-0.06,-1.0,0.68,14.66
2024-12-06 12:31:28.486,-1.57,450.0,0.52,0.85,-0.05,-1.85,-0.85,14.48
2024-12-06 12:31:28.490,-1.35,459.0,0.52,0.84,-0.05,-1.85,-0.85,14.48
2024-12-06 12:31:28.499,-1.57,462.0,0.52,0.84,-0.07,-2.04,-1.09,14.41
2024-12-06 12:31:28.546,-0.45,470.0,0.52,0.83,-0.07,-1.67,-1.7,13.44
2024-12-06 12:31:28.548,1.12,448.0,0.51,0.85,-0.07,-1.3,-1.15,13.01
2024-12-06 12:31:28.551,2.25,457.0,0.51,0.87,-0.07,-1.24,-1.64,13.44
2024-12-06 12:31:28.559,0.9,452.0,0.51,0.87,-0.07,-1.12,-2.13,14.54
2024-12-06 12:31:28.569,-3.38,453.0,0.5,0.87,-0.07,-1.12,-2.56,15.51
2024-12-06 12:31:28.601,0.67,466.0,0.51,0.84,-0.09,-1.06,-2.19,17.89
2024-12-06 12:31:28.606,-1.8,449.0,0.51,0.84,-0.08,-1.24,-1.03,18.08
2024-12-06 12:31:28.613,-2.92,461.0,0.52,0.83,-0.08,-1.24,-1.03,18.08
2024-12-06 12:31:28.624,0.45,457.0,0.51,0.79,-0.09,-0.94,-0.61,15.76
2024-12-06 12:31:28.635,2.25,457.0,0.54,0.77,-0.09,-1.0,2.51,10.81
2024-12-06 12:31:28.638,-1.57,461.0,0.56,0.8,-0.04,-1.06,2.87,7.95
2024-12-06 12:31:28.645,0.0,468.0,0.53,0.8,-0.05,0.34,-2.38,6.3
2024-12-06 12:31:28.653,4.72,513.0,0.53,0.8,-0.05,0.22,-1.77,3.43
2024-12-06 12:31:28.661,-0.9,460.0,0.53,0.79,-0.08,0.22,-1.77,3.43
2024-12-06 12:31:28.670,-0.67,460.0,0.56,0.81,-0.05,0.59,-1.77,1.41
2024-12-06 12:31:28.682,-2.02,464.0,0.56,0.81,-0.04,1.62,-5.37,0.56
2024-12-06 12:31:28.694,6.07,480.0,0.53,0.8,-0.07,2.24,-5.31,-0.97
2024-12-06 12:31:28.697,0.45,455.0,0.53,0.8,-0.06,2.48,-4.63,-3.35
2024-12-06 12:31:28.705,3.6,458.0,0.51,0.79,-0.06,2.3,-4.02,-4.75
2024-12-06 12:31:28.710,4.28,457.0,0.54,0.81,-0.04,2.3,-5.61,-4.08
2024-12-06 12:31:28.716,8.32,477.0,0.56,0.82,-0.04,2.78,-5.61,-4.08
2024-12-06 12:31:28.725,9.68,483.0,0.53,0.81,-0.1,3.88,-7.56,-3.41
2024-12-06 12:31:28.741,9.0,465.0,0.49,0.79,-0.11,3.52,-4.02,-4.81
2024-12-06 12:31:28.746,9.22,481.0,0.52,0.8,-0.05,2.3,-2.25,-5.91
2024-12-06 12:31:28.750,8.1,472.0,0.52,0.8,-0.05,2.11,-5.12,-5.3
2024-12-06 12:31:28.755,10.8,491.0,0.53,0.81,-0.04,2.11,-5.12,-5.3
2024-12-06 12:31:28.797,12.15,462.0,0.53,0.8,-0.06,-0.02,-4.69,-4.26
2024-12-06 12:31:28.801,16.42,487.0,0.57,0.82,-0.08,0.16,-4.57,-4.26
2024-12-06 12:31:28.922,15.07,467.0,0.56,0.81,-0.08,-1.61,-5.49,-3.53
2024-12-06 12:31:28.937,25.2,470.0,0.58,0.87,-0.1,-4.42,-9.15,3.37
2024-12-06 12:31:28.945,24.75,467.0,0.57,0.88,-0.1,-4.23,-9.21,3.61
2024-12-06 12:31:28.953,26.55,477.0,0.54,0.86,-0.11,-4.23,-9.21,3.61
2024-12-06 12:31:28.962,24.97,486.0,0.54,0.84,-0.11,-3.99,-7.56,3.31
2024-12-06 12:31:28.969,28.8,485.0,0.58,0.84,-0.11,-3.44,-5.55,4.4
2024-12-06 12:31:28.985,27.45,475.0,0.57,0.84,-0.09,-2.65,-6.34,6.36
2024-12-06 12:31:28.988,28.57,487.0,0.57,0.84,-0.12,-1.61,-6.22,6.79
2024-12-06 12:31:28.992,27.67,474.0,0.54,0.81,-0.09,-1.18,-1.95,6.54
2024-12-06 12:31:29.0,27.22,493.0,0.56,0.82,-0.09,-1.18,-1.95,6.54
2024-12-06 12:31:29.10,28.35,484.0,0.6,0.85,-0.08,-0.63,-1.58,8.01
2024-12-06 12:31:29.17,24.3,493.0,0.57,0.84,-0.1,0.4,-2.8,9.23
2024-12-06 12:31:29.72,31.5,482.0,0.54,0.81,-0.12,1.26,-2.13,8.31
2024-12-06 12:31:29.75,26.55,486.0,0.56,0.81,-0.1,2.97,-5.55,8.31
2024-12-06 12:31:29.78,33.75,484.0,0.57,0.82,-0.15,2.97,-5.55,8.31
2024-12-06 12:31:29.89,32.17,494.0,0.58,0.84,-0.1,2.36,-1.58,8.01
2024-12-06 12:31:29.99,37.12,491.0,0.57,0.83,-0.05,4.62,-7.14,7.76
2024-12-06 12:31:29.104,32.62,550.0,0.56,0.8,-0.1,5.16,-7.5,7.46
2024-12-06 12:31:29.109,35.77,487.0,0.57,0.81,-0.11,5.23,-4.39,7.21
2024-12-06 12:31:29.116,35.77,508.0,0.57,0.81,-0.11,5.65,-5.18,7.76
2024-12-06 12:31:29.124,31.5,486.0,0.57,0.8,-0.09,5.65,-5.18,7.76
2024-12-06 12:31:29.132,34.2,481.0,0.54,0.79,-0.1,5.96,-7.2,7.64
2024-12-06 12:31:29.140,42.97,494.0,0.54,0.8,-0.11,6.51,-4.33,6.91
2024-12-06 12:31:29.148,38.25,484.0,0.55,0.82,-0.09,6.2,-1.77,7.21
2024-12-06 12:31:29.158,40.27,500.0,0.52,0.8,-0.08,6.93,-5.55,6.97
2024-12-06 12:31:29.165,37.12,477.0,0.52,0.8,-0.08,7.12,-5.79,5.56
2024-12-06 12:31:29.171,42.52,477.0,0.52,0.77,-0.11,7.12,-5.79,5.56
2024-12-06 12:31:29.180,43.42,494.0,0.55,0.78,-0.11,6.75,-1.77,4.53
2024-12-06 12:31:29.188,40.95,494.0,0.55,0.78,-0.1,6.81,-2.38,4.16
2024-12-06 12:31:29.195,40.05,493.0,0.53,0.75,-0.12,6.57,-2.44,2.94
2024-12-06 12:31:29.204,44.1,491.0,0.54,0.75,-0.12,6.32,-0.24,1.23
2024-12-06 12:31:29.211,45.22,492.0,0.54,0.75,-0.12,5.84,-0.54,1.11
2024-12-06 12:31:29.222,42.97,504.0,0.58,0.79,-0.09,5.41,-3.72,1.84
2024-12-06 12:31:29.233,43.65,484.0,0.56,0.79,-0.09,5.41,-3.72,1.84
2024-12-06 12:31:29.237,44.32,491.0,0.52,0.76,-0.12,4.74,-2.5,0.5
2024-12-06 12:31:29.244,43.88,512.0,0.54,0.77,-0.1,3.88,1.1,-1.03
2024-12-06 12:31:29.280,43.88,503.0,0.52,0.75,-0.1,2.36,0.92,-0.97
2024-12-06 12:31:29.286,44.77,488.0,0.56,0.75,-0.09,1.87,3.85,-2.0
2024-12-06 12:31:29.289,48.15,499.0,0.59,0.77,-0.09,1.81,3.85,-1.21
2024-12-06 12:31:29.299,49.72,499.0,0.59,0.77,-0.09,1.5,4.34,-0.36
2024-12-06 12:31:29.306,45.45,512.0,0.58,0.78,-0.1,1.5,4.34,-0.17
2024-12-06 12:31:29.311,48.38,539.0,0.57,0.77,-0.09,1.14,4.7,-0.17
2024-12-06 12:31:29.319,46.57,498.0,0.59,0.77,-0.1,0.83,5.86,-0.11
2024-12-06 12:31:29.331,51.75,490.0,0.62,0.79,-0.11,0.28,6.17,0.62
2024-12-06 12:31:29.334,50.62,512.0,0.62,0.79,-0.11,0.04,4.7,1.48
2024-12-06 12:31:29.343,47.47,503.0,0.61,0.79,-0.11,-0.51,4.03,1.29
2024-12-06 12:31:29.350,50.85,489.0,0.59,0.78,-0.11,-0.51,4.03,1.29
2024-12-06 12:31:29.358,53.1,497.0,0.6,0.79,-0.11,-0.82,3.97,1.17
2024-12-06 12:31:29.366,49.95,504.0,0.61,0.82,-0.12,-0.94,3.36,2.27
2024-12-06 12:31:29.375,52.42,507.0,0.59,0.81,-0.12,-0.76,1.84,3.37
2024-12-06 12:31:29.384,51.97,491.0,0.58,0.78,-0.12,-0.15,1.04,3.12
2024-12-06 12:31:29.389,56.92,509.0,0.58,0.78,-0.12,0.04,2.02,2.63
2024-12-06 12:31:29.397,53.77,507.0,0.6,0.79,-0.12,0.04,2.02,2.63
2024-12-06 12:31:29.407,55.57,495.0,0.61,0.83,-0.12,0.65,1.1,3.73
2024-12-06 12:31:29.413,58.27,488.0,0.59,0.82,-0.14,1.5,0.31,4.53
2024-12-06 12:31:29.421,55.12,500.0,0.58,0.79,-0.14,2.05,1.71,3.79
2024-12-06 12:31:29.429,57.38,514.0,0.58,0.8,-0.12,2.36,3.06,3.31
2024-12-06 12:31:29.444,57.6,501.0,0.61,0.8,-0.12,2.78,2.75,4.83
2024-12-06 12:31:29.446,59.17,506.0,0.62,0.83,-0.11,2.78,2.75,4.83
2024-12-06 12:31:29.452,58.72,502.0,0.61,0.81,-0.11,3.21,1.35,6.3
2024-12-06 12:31:29.460,59.4,499.0,0.61,0.78,-0.12,3.46,1.29,5.93
2024-12-06 12:31:29.469,59.62,486.0,0.62,0.8,-0.12,3.27,2.45,6.05
2024-12-06 12:31:29.499,61.42,505.0,0.62,0.83,-0.11,3.39,0.98,7.4
2024-12-06 12:31:29.502,58.5,499.0,0.55,0.8,-0.13,3.46,2.63,6.97
2024-12-06 12:31:29.510,58.5,493.0,0.57,0.81,-0.13,3.76,4.52,6.79
2024-12-06 12:31:29.515,64.12,475.0,0.58,0.8,-0.11,4.25,3.79,7.82
2024-12-06 12:31:29.526,63.45,491.0,0.58,0.8,-0.11,4.74,4.03,7.58
2024-12-06 12:31:29.530,64.8,496.0,0.58,0.75,-0.11,4.98,6.11,5.99
2024-12-06 12:31:29.541,62.1,474.0,0.59,0.72,-0.12,4.98,6.11,5.99
2024-12-06 12:31:29.546,64.57,471.0,0.61,0.75,-0.12,5.59,7.21,5.81
2024-12-06 12:31:29.560,65.25,500.0,0.61,0.78,-0.13,6.26,6.23,6.66
2024-12-06 12:31:29.564,63.0,485.0,0.6,0.78,-0.14,6.57,6.11,7.09
2024-12-06 12:31:29.573,61.2,476.0,0.6,0.78,-0.14,6.81,6.35,6.36
2024-12-06 12:31:29.579,65.47,501.0,0.59,0.77,-0.14,6.87,6.84,5.99
2024-12-06 12:31:29.585,62.32,475.0,0.61,0.77,-0.12,6.87,6.84,5.99
2024-12-06 12:31:29.602,64.57,470.0,0.6,0.78,-0.11,6.75,5.44,6.3
2024-12-06 12:31:29.606,61.42,484.0,0.6,0.78,-0.1,6.08,5.25,6.18
2024-12-06 12:31:29.610,65.92,469.0,0.6,0.77,-0.09,5.78,5.13,6.11
2024-12-06 12:31:29.618,68.85,474.0,0.6,0.77,-0.09,5.65,3.85,6.6
2024-12-06 12:31:29.627,64.57,480.0,0.61,0.77,-0.09,5.65,3.73,7.64
2024-12-06 12:31:29.637,69.97,491.0,0.6,0.79,-0.11,5.41,3.73,7.64
2024-12-06 12:31:29.641,69.3,490.0,0.58,0.81,-0.12,5.29,4.34,9.1
2024-12-06 12:31:29.653,65.92,506.0,0.58,0.8,-0.12,5.35,4.95,10.51
2024-12-06 12:31:29.656,71.55,514.0,0.58,0.77,-0.11,5.47,5.25,11.36
2024-12-06 12:31:29.664,70.88,478.0,0.58,0.77,-0.11,5.41,7.33,11.97
2024-12-06 12:31:29.674,67.95,492.0,0.6,0.76,-0.11,5.41,7.7,13.56
2024-12-06 12:31:29.683,65.7,475.0,0.63,0.77,-0.1,5.23,7.7,13.56
2024-12-06 12:31:29.688,72.67,477.0,0.64,0.75,-0.1,5.16,6.78,15.21
2024-12-06 12:31:29.697,72.0,475.0,0.65,0.7,-0.13,4.37,5.99,14.23
2024-12-06 12:31:29.737,68.17,482.0,0.69,0.74,-0.13,1.56,4.83,14.23
2024-12-06 12:31:29.742,76.05,487.0,0.66,0.81,-0.1,1.26,4.34,14.78
2024-12-06 12:31:29.753,70.65,477.0,0.66,0.81,-0.1,1.93,2.26,14.54
2024-12-06 12:31:29.760,78.3,500.0,0.63,0.78,-0.1,1.01,3.12,13.68
2024-12-06 12:31:29.765,74.03,486.0,0.65,0.75,-0.11,1.01,3.12,13.68
2024-12-06 12:31:29.777,75.38,475.0,0.65,0.74,-0.11,0.77,0.55,13.44
2024-12-06 12:31:29.784,70.65,479.0,0.63,0.71,-0.14,0.47,-0.06,12.28
2024-12-06 12:31:29.789,76.72,481.0,0.62,0.72,-0.11,0.77,0.86,10.51
2024-12-06 12:31:29.796,77.4,496.0,0.62,0.72,-0.11,1.69,-1.03,9.9
2024-12-06 12:31:29.804,75.82,493.0,0.61,0.75,-0.12,2.11,0.62,8.92
2024-12-06 12:31:29.813,79.2,486.0,0.58,0.75,-0.14,2.11,0.62,8.92
2024-12-06 12:31:29.821,80.78,496.0,0.59,0.76,-0.11,2.72,3.36,7.82
2024-12-06 12:31:29.829,77.17,478.0,0.59,0.76,-0.1,3.27,3.73,7.64
2024-12-06 12:31:29.835,79.42,489.0,0.59,0.73,-0.09,3.58,5.07,6.91
2024-12-06 12:31:29.845,77.85,488.0,0.59,0.73,-0.09,4.01,5.38,6.05
2024-12-06 12:31:29.852,81.9,477.0,0.62,0.71,-0.08,4.13,4.4,5.81
2024-12-06 12:31:29.954,80.78,491.0,0.64,0.72,-0.1,4.13,4.4,5.81
2024-12-06 12:31:29.967,88.42,494.0,0.68,0.71,-0.13,5.59,2.87,9.35
2024-12-06 12:31:29.978,88.2,492.0,0.68,0.71,-0.14,5.59,2.87,9.35
2024-12-06 12:31:29.981,85.95,497.0,0.67,0.72,-0.14,5.71,4.4,9.41
2024-12-06 12:31:29.988,85.28,498.0,0.65,0.74,-0.14,6.02,5.19,9.23
2024-12-06 12:31:29.998,90.67,509.0,0.63,0.76,-0.13,6.08,6.23,8.92
2024-12-06 12:31:30.5,85.5,500.0,0.63,0.76,-0.13,6.32,6.29,8.43
2024-12-06 12:31:30.12,88.88,499.0,0.63,0.76,-0.11,6.45,6.66,7.95
2024-12-06 12:31:30.20,84.15,497.0,0.64,0.75,-0.1,6.45,6.66,7.95
2024-12-06 12:31:30.32,89.77,497.0,0.66,0.75,-0.1,6.32,6.47,7.64
2024-12-06 12:31:30.40,86.62,508.0,0.68,0.74,-0.1,6.08,6.05,7.7
2024-12-06 12:31:30.45,91.57,488.0,0.69,0.73,-0.11,5.78,6.66,7.88
2024-12-06 12:31:30.54,86.4,499.0,0.69,0.73,-0.11,5.78,6.6,8.43
2024-12-06 12:31:30.59,86.4,525.0,0.69,0.72,-0.12,6.02,6.78,8.92
2024-12-06 12:31:30.69,89.77,492.0,0.68,0.72,-0.13,6.02,6.78,8.92
2024-12-06 12:31:30.75,88.2,503.0,0.67,0.73,-0.14,6.45,6.96,9.65
2024-12-06 12:31:30.83,87.75,527.0,0.66,0.74,-0.14,6.63,7.27,10.45
2024-12-06 12:31:30.93,91.35,504.0,0.65,0.73,-0.13,6.75,7.57,11.24
2024-12-06 12:31:30.99,92.25,500.0,0.65,0.73,-0.09,6.75,7.15,11.79
2024-12-06 12:31:30.106,90.67,508.0,0.65,0.72,-0.12,6.45,6.66,11.91
2024-12-06 12:31:30.118,87.52,507.0,0.66,0.73,-0.13,6.45,6.66,11.91
2024-12-06 12:31:30.126,93.82,525.0,0.67,0.72,-0.14,6.14,5.5,11.91
2024-12-06 12:31:30.130,92.02,504.0,0.68,0.71,-0.13,5.96,3.91,11.49
2024-12-06 12:31:30.139,91.35,505.0,0.68,0.69,-0.12,5.53,2.45,10.94
2024-12-06 12:31:30.149,93.6,511.0,0.68,0.69,-0.12,4.8,2.26,10.26
2024-12-06 12:31:30.187,93.6,510.0,0.66,0.65,-0.09,4.49,5.56,8.56
2024-12-06 12:31:30.192,90.22,506.0,0.65,0.66,-0.08,4.62,5.44,7.03
2024-12-06 12:31:30.199,88.2,504.0,0.64,0.66,-0.07,4.62,5.44,7.03
2024-12-06 12:31:30.206,89.77,507.0,0.65,0.63,-0.08,5.16,5.99,4.47
2024-12-06 12:31:30.214,91.12,475.0,0.67,0.6,-0.07,5.53,6.05,1.11
2024-12-06 12:31:30.228,93.6,504.0,0.7,0.6,-0.07,5.59,4.46,-2.0
2024-12-06 12:31:30.232,92.7,505.0,0.7,0.6,-0.07,5.47,3.12,-4.87
2024-12-06 12:31:30.238,92.25,496.0,0.7,0.61,-0.07,5.47,3.12,-4.87
2024-12-06 12:31:30.245,88.2,500.0,0.7,0.6,-0.07,5.47,3.54,-7.56
2024-12-06 12:31:30.254,88.88,493.0,0.69,0.58,-0.06,5.41,4.4,-9.94
2024-12-06 12:31:30.261,89.55,486.0,0.68,0.57,-0.05,5.1,5.44,-12.07
2024-12-06 12:31:30.269,86.85,507.0,0.67,0.58,-0.05,4.31,6.78,-13.78
2024-12-06 12:31:30.280,92.7,493.0,0.67,0.58,-0.05,3.39,8.43,-15.0
2024-12-06 12:31:30.285,88.65,489.0,0.67,0.59,-0.05,3.39,10.81,-15.92
2024-12-06 12:31:30.295,90.0,486.0,0.68,0.6,-0.06,2.78,10.81,-15.92
2024-12-06 12:31:30.303,89.77,497.0,0.7,0.61,-0.07,2.6,11.54,-15.98
2024-12-06 12:31:30.311,90.22,488.0,0.71,0.61,-0.08,2.48,10.99,-15.86
2024-12-06 12:31:30.319,91.57,486.0,0.72,0.61,-0.1,2.3,9.95,-15.86
2024-12-06 12:31:30.324,89.77,497.0,0.72,0.61,-0.1,1.81,8.73,-15.98
2024-12-06 12:31:30.344,91.57,496.0,0.73,0.66,-0.13,1.32,8.24,-16.04
2024-12-06 12:31:30.348,89.1,485.0,0.72,0.69,-0.13,0.77,8.06,-16.04
2024-12-06 12:31:30.355,88.2,501.0,0.71,0.71,-0.14,0.71,7.08,-15.8
2024-12-06 12:31:30.363,91.8,479.0,0.71,0.72,-0.14,0.89,6.47,-15.43
2024-12-06 12:31:30.380,93.82,495.0,0.71,0.72,-0.14,1.38,5.8,-14.64
2024-12-06 12:31:30.384,91.8,506.0,0.71,0.73,-0.15,1.38,5.8,-14.64
2024-12-06 12:31:30.387,89.32,497.0,0.72,0.74,-0.15,1.93,5.01,-13.6
2024-12-06 12:31:30.395,81.9,507.0,0.73,0.76,-0.15,2.6,4.4,-12.26
2024-12-06 12:31:30.402,87.97,513.0,0.73,0.77,-0.15,3.33,3.61,-10.85
2024-12-06 12:31:30.417,91.12,496.0,0.73,0.78,-0.15,4.07,3.12,-9.63
2024-12-06 12:31:30.421,87.97,492.0,0.73,0.78,-0.15,4.8,1.59,-8.66
2024-12-06 12:31:30.430,90.67,503.0,0.72,0.79,-0.16,4.8,1.59,-7.92
2024-12-06 12:31:30.435,92.25,511.0,0.71,0.79,-0.14,5.41,2.69,-7.92
2024-12-06 12:31:30.443,88.42,505.0,0.7,0.78,-0.13,5.47,-1.34,-7.68
2024-12-06 12:31:30.450,89.1,506.0,0.7,0.76,-0.15,5.53,-2.74,-7.68
2024-12-06 12:31:30.486,89.32,490.0,0.7,0.75,-0.15,5.53,-0.61,-6.95
2024-12-06 12:31:30.494,90.67,487.0,0.69,0.75,-0.12,6.2,0.55,-5.67
2024-12-06 12:31:30.496,91.57,502.0,0.68,0.73,-0.11,6.51,-3.72,-4.45
2024-12-06 12:31:30.504,92.92,540.0,0.68,0.73,-0.11,7.24,-3.23,-3.65
2024-12-06 12:31:30.516,88.2,507.0,0.67,0.71,-0.12,7.24,-3.23,-3.41
2024-12-06 12:31:30.528,92.7,495.0,0.66,0.7,-0.11,7.24,-3.23,-3.41
2024-12-06 12:31:30.532,91.35,511.0,0.66,0.71,-0.12,7.42,-2.92,-3.22
2024-12-06 12:31:30.544,94.72,494.0,0.67,0.72,-0.1,6.87,-0.85,-2.86
2024-12-06 12:31:30.546,86.85,510.0,0.66,0.7,-0.09,6.32,-4.08,-2.55
2024-12-06 12:31:30.554,92.7,504.0,0.66,0.7,-0.09,5.59,-3.84,-2.98
2024-12-06 12:31:30.561,87.75,500.0,0.66,0.68,-0.11,5.59,-3.78,-3.59
2024-12-06 12:31:30.571,88.2,494.0,0.66,0.68,-0.1,4.74,-3.78,-3.59
2024-12-06 12:31:30.576,89.1,509.0,0.67,0.69,-0.11,3.82,-3.78,-3.96
2024-12-06 12:31:30.582,88.42,496.0,0.67,0.71,-0.11,2.91,-1.03,-4.02
2024-12-06 12:31:30.590,91.12,502.0,0.66,0.72,-0.08,2.24,-2.8,-3.65
2024-12-06 12:31:30.598,93.15,516.0,0.66,0.72,-0.08,1.32,-4.82,-3.65
2024-12-06 12:31:30.609,93.38,500.0,0.65,0.72,-0.08,1.32,-2.68,-3.96
2024-12-06 12:31:30.614,91.12,502.0,0.65,0.72,-0.09,-0.08,-2.68,-3.96
2024-12-06 12:31:30.652,87.97,505.0,0.64,0.7,-0.08,-0.63,-2.5,-3.59
2024-12-06 12:31:30.658,86.4,496.0,0.63,0.67,-0.09,-0.63,-2.5,-3.59
2024-12-06 12:31:30.661,86.85,523.0,0.63,0.68,-0.1,-1.18,-1.4,-4.32
2024-12-06 12:31:30.668,94.72,507.0,0.64,0.69,-0.11,-1.49,-1.09,-4.75
2024-12-06 12:31:30.676,87.75,502.0,0.64,0.7,-0.12,-1.24,-1.22,-4.99
2024-12-06 12:31:30.685,88.42,520.0,0.64,0.7,-0.12,-1.37,0.13,-5.48
2024-12-06 12:31:30.705,91.8,497.0,0.63,0.71,-0.13,-1.24,0.13,-5.85
2024-12-06 12:31:30.708,89.77,519.0,0.62,0.76,-0.14,-1.3,0.07,-6.28
2024-12-06 12:31:30.715,88.88,519.0,0.62,0.77,-0.14,-1.49,0.37,-6.4
2024-12-06 12:31:30.723,93.6,504.0,0.62,0.77,-0.14,-1.67,-0.54,-6.34
2024-12-06 12:31:30.731,93.38,520.0,0.62,0.77,-0.14,-1.92,-0.54,-6.64
2024-12-06 12:31:30.738,91.57,517.0,0.63,0.75,-0.15,-2.22,0.31,-6.95
2024-12-06 12:31:30.750,93.38,507.0,0.64,0.73,-0.16,-2.22,0.31,-6.95
2024-12-06 12:31:30.757,81.22,533.0,0.64,0.72,-0.16,-1.85,0.98,-7.13
2024-12-06 12:31:30.763,91.35,501.0,0.64,0.73,-0.15,-1.61,-0.3,-7.07
2024-12-06 12:31:30.772,92.25,516.0,0.65,0.73,-0.15,-1.37,-1.7,-6.15
2024-12-06 12:31:30.780,85.5,524.0,0.65,0.73,-0.15,-1.3,-1.09,-5.48
2024-12-06 12:31:30.792,92.02,503.0,0.64,0.73,-0.15,-1.3,-0.36,-4.93
2024-12-06 12:31:30.797,89.55,505.0,0.63,0.74,-0.13,-1.3,-0.36,-4.93
2024-12-06 12:31:30.806,86.62,520.0,0.63,0.74,-0.12,-1.49,-0.42,-4.38
2024-12-06 12:31:30.817,88.88,507.0,0.63,0.75,-0.12,-1.98,0.0,-4.08
2024-12-06 12:31:30.820,92.02,498.0,0.63,0.76,-0.12,-2.53,0.74,-3.83
2024-12-06 12:31:30.826,90.45,507.0,0.63,0.76,-0.12,-3.01,0.74,-3.65
2024-12-06 12:31:30.845,93.82,538.0,0.63,0.77,-0.11,-3.5,0.19,-3.53
2024-12-06 12:31:30.871,91.57,509.0,0.62,0.75,-0.1,-4.72,-2.62,-4.75
2024-12-06 12:31:30.881,94.27,505.0,0.61,0.75,-0.1,-5.58,-3.23,-5.36
2024-12-06 12:31:30.884,87.97,502.0,0.63,0.74,-0.1,-5.58,-3.23,-5.36
2024-12-06 12:31:30.886,88.88,509.0,0.64,0.73,-0.1,-6.31,-2.56,-5.3
2024-12-06 12:31:30.894,88.42,517.0,0.63,0.72,-0.11,-6.49,-3.05,-5.36
2024-12-06 12:31:30.902,87.52,507.0,0.63,0.72,-0.11,-6.74,-3.17,-5.48
2024-12-06 12:31:31.7,87.52,510.0,0.63,0.74,-0.11,-4.72,0.19,-7.07
2024-12-06 12:31:31.10,90.9,512.0,0.62,0.74,-0.11,-4.78,-0.12,-7.56
2024-12-06 12:31:31.17,90.9,494.0,0.62,0.74,-0.12,-4.78,-0.3,-7.99
2024-12-06 12:31:31.24,92.25,507.0,0.62,0.74,-0.12,-4.72,-0.24,-8.23
2024-12-06 12:31:31.32,87.3,493.0,0.63,0.75,-0.12,-4.6,0.0,-8.29
2024-12-06 12:31:31.40,91.35,504.0,0.63,0.76,-0.12,-4.6,0.0,-8.29
2024-12-06 12:31:31.48,91.12,518.0,0.63,0.77,-0.12,-4.23,0.19,-7.99
2024-12-06 12:31:31.57,94.5,514.0,0.63,0.78,-0.12,-3.81,0.31,-7.56
2024-12-06 12:31:31.97,92.02,509.0,0.64,0.78,-0.12,-2.4,0.92,-6.03
2024-12-06 12:31:31.101,92.02,489.0,0.64,0.78,-0.12,-2.1,0.62,-5.6
2024-12-06 12:31:31.108,90.9,498.0,0.64,0.78,-0.12,-1.92,0.19,-5.3
2024-12-06 12:31:31.124,91.12,514.0,0.65,0.78,-0.12,-1.79,-0.24,-4.93
2024-12-06 12:31:31.127,89.55,503.0,0.65,0.78,-0.12,-1.79,-0.24,-4.93
2024-12-06 12:31:31.148,88.88,505.0,0.64,0.78,-0.12,-1.67,-0.79,-4.69
2024-12-06 12:31:31.152,92.25,501.0,0.64,0.77,-0.11,-1.49,-1.46,-4.38
2024-12-06 12:31:31.154,85.72,491.0,0.64,0.77,-0.11,-1.3,-1.46,-4.08
2024-12-06 12:31:31.168,90.9,495.0,0.64,0.77,-0.11,-1.3,-1.46,-4.08
2024-12-06 12:31:31.171,92.25,514.0,0.64,0.77,-0.11,-1.06,-1.46,-3.83
2024-12-06 12:31:31.177,92.25,496.0,0.64,0.77,-0.1,-0.76,-1.46,-3.53
2024-12-06 12:31:31.185,87.75,511.0,0.64,0.77,-0.1,-0.39,-1.4,-3.41
2024-12-06 12:31:31.194,93.15,501.0,0.64,0.77,-0.1,-0.08,-1.22,-3.35
2024-12-06 12:31:31.201,91.35,498.0,0.64,0.77,-0.1,0.16,-1.4,-3.41
2024-12-06 12:31:31.209,92.47,499.0,0.64,0.76,-0.1,0.16,-1.4,-3.41
2024-12-06 12:31:31.219,91.57,495.0,0.64,0.76,-0.1,0.22,-1.34,-3.71
2024-12-06 12:31:31.225,92.25,499.0,0.63,0.76,-0.1,0.22,-1.4,-4.02
2024-12-06 12:31:31.232,90.9,492.0,0.63,0.76,-0.1,0.22,-1.46,-4.2
2024-12-06 12:31:31.240,92.7,517.0,0.63,0.76,-0.1,0.16,-1.52,-4.14
2024-12-06 12:31:31.248,86.85,495.0,0.63,0.77,-0.09,-0.02,-1.46,-3.9
2024-12-06 12:31:31.256,93.38,506.0,0.63,0.77,-0.09,-0.02,-1.46,-3.9
2024-12-06 12:31:31.271,93.38,507.0,0.62,0.76,-0.09,-0.08,-1.4,-3.65
2024-12-06 12:31:31.275,88.42,492.0,0.61,0.76,-0.09,-0.15,-1.34,-3.29
2024-12-06 12:31:31.314,91.57,509.0,0.61,0.77,-0.09,-0.27,-1.15,-2.86
2024-12-06 12:31:31.318,90.67,510.0,0.6,0.77,-0.1,-0.63,-0.36,-1.52
2024-12-06 12:31:31.325,93.15,474.0,0.6,0.77,-0.1,-0.76,-0.42,-1.45
2024-12-06 12:31:31.335,91.57,499.0,0.6,0.77,-0.1,-0.76,-0.54,-1.58
2024-12-06 12:31:31.341,93.82,487.0,0.6,0.77,-0.1,-0.82,-0.54,-1.58
2024-12-06 12:31:31.348,90.9,495.0,0.61,0.77,-0.11,-0.88,-0.67,-1.88
2024-12-06 12:31:31.356,92.92,500.0,0.61,0.77,-0.11,-0.94,-0.79,-2.19
2024-12-06 12:31:31.368,87.07,484.0,0.61,0.77,-0.12,-0.82,-1.09,-2.49
2024-12-06 12:31:31.373,93.82,496.0,0.61,0.77,-0.12,-0.76,-1.4,-2.86
2024-12-06 12:31:31.381,89.55,493.0,0.61,0.77,-0.12,-0.57,-1.77,-3.22
2024-12-06 12:31:31.388,90.45,496.0,0.62,0.77,-0.12,-0.57,-1.77,-3.22
2024-12-06 12:31:31.396,91.57,492.0,0.61,0.77,-0.11,-0.45,-2.07,-3.59
2024-12-06 12:31:31.404,90.22,504.0,0.61,0.77,-0.11,-0.39,-2.13,-4.02
2024-12-06 12:31:31.413,85.72,486.0,0.61,0.77,-0.11,-0.39,-2.13,-4.38
2024-12-06 12:31:31.420,92.47,501.0,0.61,0.77,-0.1,-0.45,-1.95,-4.63
2024-12-06 12:31:31.428,94.05,503.0,0.61,0.77,-0.1,-0.51,-1.64,-4.81
2024-12-06 12:31:31.439,92.25,495.0,0.61,0.77,-0.1,-0.51,-1.64,-4.81
2024-12-06 12:31:31.446,94.27,500.0,0.61,0.77,-0.1,-0.51,-1.34,-4.81
2024-12-06 12:31:31.454,92.92,493.0,0.61,0.77,-0.09,-0.51,-1.4,-4.69
2024-12-06 12:31:31.463,89.32,505.0,0.61,0.76,-0.09,-0.57,-1.22,-4.51
2024-12-06 12:31:31.468,89.77,495.0,0.61,0.76,-0.09,-0.51,-0.91,-4.32
2024-12-06 12:31:31.477,90.22,484.0,0.61,0.76,-0.09,-0.45,-0.85,-3.96
2024-12-06 12:31:31.482,86.4,485.0,0.61,0.77,-0.1,-0.45,-0.85,-3.96
2024-12-06 12:31:31.494,92.92,506.0,0.6,0.77,-0.1,-0.39,-0.91,-3.65
2024-12-06 12:31:31.498,94.05,486.0,0.6,0.77,-0.1,-0.33,-0.91,-3.35
2024-12-06 12:31:31.506,92.02,499.0,0.6,0.78,-0.11,-0.27,-0.85,-2.92
2024-12-06 12:31:31.539,90.45,493.0,0.6,0.78,-0.11,-0.15,-0.73,-2.55
2024-12-06 12:31:31.549,88.88,493.0,0.6,0.79,-0.12,0.1,-0.54,-1.82
2024-12-06 12:31:31.556,91.35,498.0,0.6,0.79,-0.13,0.28,-0.67,-1.21
2024-12-06 12:31:31.561,90.67,493.0,0.6,0.79,-0.13,0.34,-0.79,-1.03
2024-12-06 12:31:31.568,92.47,487.0,0.6,0.79,-0.13,0.34,-0.79,-1.03
2024-12-06 12:31:31.575,90.45,483.0,0.6,0.79,-0.13,0.34,-0.79,-0.91
2024-12-06 12:31:31.584,88.42,488.0,0.6,0.79,-0.12,0.28,-0.73,-0.84
2024-12-06 12:31:31.592,90.9,496.0,0.59,0.78,-0.12,0.28,-0.67,-0.84
2024-12-06 12:31:31.599,91.8,478.0,0.59,0.78,-0.12,0.28,-0.36,-0.91
2024-12-06 12:31:31.607,91.12,487.0,0.59,0.78,-0.12,0.28,-0.06,-0.84
2024-12-06 12:31:31.615,91.35,485.0,0.59,0.78,-0.11,0.28,-0.06,-0.84
2024-12-06 12:31:31.624,84.15,485.0,0.59,0.78,-0.11,0.28,0.31,-0.84
2024-12-06 12:31:31.633,91.35,491.0,0.59,0.78,-0.1,0.34,0.74,-0.78
2024-12-06 12:31:31.638,90.0,502.0,0.59,0.78,-0.1,0.28,1.16,-0.78
2024-12-06 12:31:31.647,91.12,494.0,0.59,0.78,-0.1,0.28,1.71,-0.78
2024-12-06 12:31:31.654,91.12,499.0,0.59,0.77,-0.1,0.28,2.14,-0.78
2024-12-06 12:31:31.662,87.52,490.0,0.6,0.77,-0.1,0.28,2.14,-0.78
2024-12-06 12:31:31.675,90.67,488.0,0.6,0.77,-0.1,0.22,2.39,-0.78
2024-12-06 12:31:31.677,91.57,486.0,0.6,0.77,-0.1,0.28,2.32,-0.84
2024-12-06 12:31:31.689,89.32,495.0,0.6,0.76,-0.1,0.28,2.14,-0.91
2024-12-06 12:31:31.694,90.22,482.0,0.6,0.76,-0.1,0.34,1.96,-1.03
2024-12-06 12:31:31.704,89.1,494.0,0.6,0.76,-0.11,0.34,1.71,-1.21
2024-12-06 12:31:31.709,90.45,498.0,0.6,0.76,-0.11,0.28,1.71,-1.21
2024-12-06 12:31:31.720,89.1,507.0,0.6,0.76,-0.11,0.22,1.41,-1.39
2024-12-06 12:31:31.728,88.2,495.0,0.6,0.77,-0.11,0.16,1.04,-1.52
2024-12-06 12:31:31.767,89.32,493.0,0.6,0.77,-0.11,0.04,0.62,-1.7
2024-12-06 12:31:31.772,93.15,511.0,0.6,0.78,-0.1,-0.21,-0.42,-1.94
2024-12-06 12:31:31.778,91.35,486.0,0.6,0.78,-0.1,-0.21,-0.3,-1.94
2024-12-06 12:31:31.795,91.12,500.0,0.6,0.78,-0.11,-0.21,-0.06,-2.0
2024-12-06 12:31:31.802,91.35,502.0,0.6,0.78,-0.11,-0.27,0.19,-2.0
2024-12-06 12:31:31.813,92.02,488.0,0.6,0.77,-0.11,-0.33,0.31,-2.06
2024-12-06 12:31:31.819,96.07,495.0,0.6,0.77,-0.11,-0.51,0.37,-2.19
2024-12-06 12:31:31.830,90.67,484.0,0.6,0.77,-0.11,-0.51,0.25,-2.25
2024-12-06 12:31:31.835,90.9,477.0,0.61,0.77,-0.11,-0.63,0.25,-2.25
2024-12-06 12:31:31.840,93.6,481.0,0.61,0.77,-0.11,-0.69,0.13,-2.25
2024-12-06 12:31:31.849,88.2,486.0,0.61,0.77,-0.11,-0.69,-0.12,-2.25
2024-12-06 12:31:31.854,92.02,494.0,0.61,0.77,-0.11,-0.57,-0.3,-2.13
2024-12-06 12:31:31.862,93.15,490.0,0.62,0.77,-0.11,-0.39,-0.36,-2.0
2024-12-06 12:31:31.872,92.7,480.0,0.61,0.77,-0.11,-0.39,-0.36,-2.0
2024-12-06 12:31:31.878,94.05,487.0,0.61,0.78,-0.11,-0.21,-0.18,-1.88
2024-12-06 12:31:31.886,90.22,481.0,0.61,0.78,-0.11,0.04,0.0,-1.7
2024-12-06 12:31:31.903,87.75,504.0,0.61,0.78,-0.11,0.47,0.68,-1.52
2024-12-06 12:31:31.911,88.2,516.0,0.62,0.78,-0.11,0.65,1.1,-1.88
2024-12-06 12:31:31.917,92.02,489.0,0.62,0.77,-0.11,0.65,1.1,-1.88
2024-12-06 12:31:31.925,90.67,491.0,0.63,0.76,-0.11,0.65,1.47,-2.61
2024-12-06 12:31:31.933,89.1,497.0,0.63,0.76,-0.11,0.47,1.71,-3.29
2024-12-06 12:31:31.942,91.35,483.0,0.62,0.77,-0.12,0.34,1.53,-3.53
2024-12-06 12:31:31.949,89.77,493.0,0.62,0.77,-0.12,0.22,1.1,-3.35
2024-12-06 12:31:31.956,92.47,502.0,0.61,0.78,-0.12,0.16,0.19,-2.92
2024-12-06 12:31:32.64,93.15,486.0,0.59,0.78,-0.11,0.83,0.86,-0.48
2024-12-06 12:31:32.70,91.35,481.0,0.59,0.77,-0.11,0.65,0.55,-0.66
2024-12-06 12:31:32.78,92.02,483.0,0.59,0.77,-0.12,0.65,0.55,-0.66
2024-12-06 12:31:32.90,89.32,497.0,0.6,0.77,-0.12,0.53,0.25,-0.84
2024-12-06 12:31:32.93,87.75,485.0,0.59,0.77,-0.11,0.4,0.0,-1.09
2024-12-06 12:31:32.100,88.2,487.0,0.6,0.77,-0.1,0.22,-0.97,-1.39
2024-12-06 12:31:32.109,87.97,488.0,0.6,0.77,-0.1,-0.15,-1.64,-1.76
2024-12-06 12:31:32.118,86.62,510.0,0.6,0.76,-0.1,-0.51,-0.54,-2.31
2024-12-06 12:31:32.125,90.22,484.0,0.6,0.76,-0.1,-0.51,-0.54,-2.31
2024-12-06 12:31:32.132,87.07,496.0,0.6,0.76,-0.09,-0.63,-1.09,-2.8
2024-12-06 12:31:32.146,92.25,494.0,0.6,0.75,-0.08,-0.82,-2.25,-3.29
2024-12-06 12:31:32.149,92.92,490.0,0.58,0.75,-0.07,-1.49,-1.77,-4.38
2024-12-06 12:31:32.165,94.27,498.0,0.58,0.75,-0.07,-1.92,-2.8,-5.42
2024-12-06 12:31:32.167,85.95,511.0,0.59,0.75,-0.06,-1.92,-3.11,-6.22
2024-12-06 12:31:32.170,89.32,509.0,0.58,0.75,-0.06,-2.65,-3.11,-6.22
2024-12-06 12:31:32.178,88.42,549.0,0.57,0.76,-0.07,-3.14,-2.99,-7.13
2024-12-06 12:31:32.279,91.57,495.0,0.58,0.81,-0.11,0.95,-3.54,-5.42
2024-12-06 12:31:32.283,90.22,486.0,0.58,0.81,-0.12,0.53,-2.01,-5.42
2024-12-06 12:31:32.292,93.38,489.0,0.58,0.81,-0.11,0.59,-0.91,-5.12
2024-12-06 12:31:32.303,79.42,483.0,0.59,0.81,-0.1,0.77,-0.12,-4.38
2024-12-06 12:31:32.314,90.45,493.0,0.59,0.79,-0.09,1.08,1.1,-3.53
2024-12-06 12:31:32.321,90.22,494.0,0.59,0.79,-0.09,1.56,2.2,-2.86
2024-12-06 12:31:32.323,92.02,489.0,0.59,0.77,-0.09,1.56,2.2,-2.86
2024-12-06 12:31:32.330,89.1,493.0,0.59,0.77,-0.1,2.05,3.48,-2.37
2024-12-06 12:31:32.338,89.77,486.0,0.58,0.78,-0.09,1.93,3.18,-2.19
2024-12-06 12:31:32.346,94.72,504.0,0.57,0.78,-0.09,1.38,3.48,-2.49
2024-12-06 12:31:32.355,91.35,502.0,0.57,0.78,-0.09,0.89,4.4,-2.74
2024-12-06 12:31:32.364,91.35,489.0,0.57,0.78,-0.09,0.34,3.91,-2.61
2024-12-06 12:31:32.371,87.97,496.0,0.57,0.79,-0.1,0.34,3.91,-2.61
2024-12-06 12:31:32.377,91.8,491.0,0.56,0.8,-0.1,-0.15,3.0,-2.55
2024-12-06 12:31:32.385,91.57,488.0,0.53,0.8,-0.1,-0.76,2.39,-3.35
2024-12-06 12:31:32.393,94.27,516.0,0.53,0.79,-0.1,-1.06,2.69,-4.63
2024-12-06 12:31:32.402,91.8,489.0,0.53,0.79,-0.1,-1.12,2.2,-5.67
2024-12-06 12:31:32.409,90.9,504.0,0.53,0.78,-0.1,-1.06,1.59,-6.7
2024-12-06 12:31:32.443,91.8,506.0,0.56,0.78,-0.11,-0.21,1.53,-7.99
2024-12-06 12:31:32.446,91.57,508.0,0.56,0.78,-0.11,0.1,1.47,-8.47
2024-12-06 12:31:32.452,91.35,498.0,0.56,0.78,-0.11,0.53,1.65,-9.14
2024-12-06 12:31:32.456,87.97,490.0,0.57,0.77,-0.11,0.53,1.65,-9.14
2024-12-06 12:31:32.463,88.65,511.0,0.6,0.75,-0.11,0.95,2.02,-10.43
2024-12-06 12:31:32.471,92.02,529.0,0.64,0.74,-0.11,0.95,2.75,-12.93
2024-12-06 12:31:32.479,84.38,498.0,0.64,0.76,-0.11,0.95,3.36,-14.82
2024-12-06 12:31:32.492,88.65,495.0,0.64,0.76,-0.11,0.95,3.24,-15.61
2024-12-06 12:31:32.494,92.25,508.0,0.61,0.79,-0.11,0.53,2.2,-16.1
2024-12-06 12:31:32.505,93.38,500.0,0.58,0.79,-0.1,0.53,2.2,-16.1
2024-12-06 12:31:32.510,93.82,501.0,0.56,0.78,-0.08,-0.27,0.68,-16.84
2024-12-06 12:31:32.522,90.45,518.0,0.54,0.8,-0.08,-1.06,-0.42,-16.96
2024-12-06 12:31:32.529,86.62,516.0,0.51,0.83,-0.08,-1.73,-0.85,-16.41
2024-12-06 12:31:32.534,88.88,506.0,0.5,0.84,-0.08,-1.85,-0.54,-15.49
2024-12-06 12:31:32.551,91.8,496.0,0.5,0.84,-0.08,-1.37,0.49,-14.58
2024-12-06 12:31:32.554,90.9,499.0,0.5,0.83,-0.09,-1.37,0.49,-13.42
2024-12-06 12:31:32.562,91.35,500.0,0.51,0.83,-0.1,-0.39,1.77,-13.42
2024-12-06 12:31:32.567,90.0,499.0,0.52,0.83,-0.1,0.71,2.93,-12.26
2024-12-06 12:31:32.573,92.92,572.0,0.53,0.83,-0.11,1.5,3.97,-11.59
2024-12-06 12:31:32.586,91.8,488.0,0.53,0.83,-0.12,1.93,5.19,-11.28
2024-12-06 12:31:32.590,92.92,497.0,0.55,0.83,-0.12,2.3,5.44,-10.67
2024-12-06 12:31:32.596,88.65,503.0,0.57,0.84,-0.13,2.3,5.44,-10.67
2024-12-06 12:31:32.613,90.22,503.0,0.58,0.84,-0.14,2.78,5.01,-10.12
2024-12-06 12:31:32.615,88.42,497.0,0.59,0.84,-0.15,3.21,4.03,-9.51
2024-12-06 12:31:32.620,90.0,492.0,0.58,0.84,-0.14,3.46,2.2,-8.78
2024-12-06 12:31:32.628,91.12,497.0,0.58,0.84,-0.14,3.39,1.1,-8.29
2024-12-06 12:31:32.635,88.42,493.0,0.58,0.83,-0.13,2.91,0.62,-7.86
2024-12-06 12:31:32.645,88.42,495.0,0.57,0.83,-0.11,2.91,0.62,-7.86
2024-12-06 12:31:32.653,93.6,507.0,0.56,0.83,-0.1,2.54,0.19,-7.25
2024-12-06 12:31:32.659,88.65,512.0,0.56,0.85,-0.1,2.3,0.25,-6.46
2024-12-06 12:31:32.698,90.22,506.0,0.57,0.86,-0.1,3.52,3.97,-2.61
2024-12-06 12:31:32.699,93.6,531.0,0.58,0.85,-0.1,4.07,5.01,-1.09
2024-12-06 12:31:32.705,87.75,500.0,0.59,0.83,-0.1,4.37,6.11,0.25
2024-12-06 12:31:32.715,91.8,498.0,0.59,0.83,-0.1,4.68,6.54,1.48
2024-12-06 12:31:32.736,91.12,493.0,0.59,0.8,-0.1,5.04,5.19,2.21
2024-12-06 12:31:32.747,91.8,490.0,0.59,0.82,-0.1,4.43,4.64,3.18
2024-12-06 12:31:32.751,90.9,495.0,0.58,0.81,-0.09,4.19,3.06,3.31
2024-12-06 12:31:32.762,92.7,506.0,0.58,0.81,-0.09,3.7,2.57,2.94
2024-12-06 12:31:32.766,94.05,499.0,0.56,0.81,-0.09,3.7,2.57,2.94
2024-12-06 12:31:32.775,93.15,498.0,0.56,0.81,-0.09,3.27,1.96,2.51
2024-12-06 12:31:32.785,94.05,495.0,0.55,0.81,-0.09,3.03,1.59,2.02
2024-12-06 12:31:32.791,93.82,507.0,0.54,0.81,-0.09,2.91,1.77,1.6
2024-12-06 12:31:32.798,91.35,489.0,0.54,0.81,-0.09,2.91,2.08,1.29
2024-12-06 12:31:32.807,91.35,488.0,0.54,0.81,-0.09,3.09,2.2,1.11
2024-12-06 12:31:32.814,89.55,498.0,0.54,0.81,-0.1,3.09,2.2,1.11
2024-12-06 12:31:32.824,90.9,486.0,0.54,0.81,-0.1,3.21,2.63,0.8
2024-12-06 12:31:32.831,93.15,500.0,0.56,0.8,-0.1,3.27,3.0,0.5
2024-12-06 12:31:32.838,88.42,488.0,0.58,0.79,-0.1,3.15,2.93,-0.54
2024-12-06 12:31:32.847,91.12,505.0,0.58,0.8,-0.11,2.66,3.18,-2.19
2024-12-06 12:31:32.856,91.8,487.0,0.59,0.8,-0.11,2.42,3.48,-2.98
2024-12-06 12:31:32.861,91.35,502.0,0.56,0.82,-0.11,2.42,3.48,-2.98
2024-12-06 12:31:32.870,87.97,486.0,0.53,0.84,-0.12,2.36,2.26,-2.8
2024-12-06 12:31:32.903,88.65,491.0,0.53,0.8,-0.11,2.24,-0.79,-1.03
2024-12-06 12:31:32.906,91.35,487.0,0.53,0.8,-0.09,2.24,-0.36,-0.91
2024-12-06 12:31:32.915,91.57,484.0,0.52,0.81,-0.09,2.48,0.37,-0.72
2024-12-06 12:31:32.923,91.57,503.0,0.52,0.81,-0.09,2.48,1.65,-0.72
2024-12-06 12:31:32.930,88.42,503.0,0.52,0.81,-0.09,2.36,2.69,-0.84
2024-12-06 12:31:32.939,90.0,494.0,0.52,0.82,-0.09,1.99,3.12,-0.97
2024-12-06 12:31:32.948,90.22,490.0,0.52,0.82,-0.09,1.99,3.12,-0.97
2024-12-06 12:31:32.956,88.42,489.0,0.53,0.83,-0.1,1.56,3.48,-1.03
2024-12-06 12:31:32.963,90.9,504.0,0.54,0.82,-0.1,1.08,3.3,-1.03
2024-12-06 12:31:32.969,90.22,495.0,0.55,0.81,-0.1,0.65,2.87,-1.09
2024-12-06 12:31:32.980,88.2,494.0,0.55,0.81,-0.1,0.28,2.2,-1.03
2024-12-06 12:31:32.984,88.65,516.0,0.56,0.8,-0.1,0.1,1.47,-1.03
2024-12-06 12:31:32.997,89.1,511.0,0.57,0.8,-0.1,0.1,1.47,-1.03
2024-12-06 12:31:33.4,89.77,487.0,0.57,0.8,-0.1,0.04,0.62,-0.84
2024-12-06 12:31:33.11,91.12,479.0,0.58,0.8,-0.1,0.1,-0.3,-0.72
2024-12-06 12:31:33.121,90.67,503.0,0.55,0.81,-0.1,-1.85,-3.17,1.29
2024-12-06 12:31:33.142,91.35,491.0,0.55,0.81,-0.1,-1.79,-3.23,0.99
2024-12-06 12:31:33.148,92.02,486.0,0.55,0.82,-0.1,-1.61,-3.29,0.8
2024-12-06 12:31:33.154,94.72,483.0,0.54,0.82,-0.11,-1.3,-3.23,0.62
2024-12-06 12:31:33.162,91.35,484.0,0.54,0.82,-0.11,-1.12,-3.11,0.44
2024-12-06 12:31:33.175,93.38,483.0,0.54,0.82,-0.11,-1.0,-3.05,0.38
2024-12-06 12:31:33.181,90.45,491.0,0.54,0.81,-0.11,-0.88,-2.92,0.19
2024-12-06 12:31:33.189,91.35,492.0,0.54,0.81,-0.11,-0.94,-2.68,-0.11
2024-12-06 12:31:33.203,90.67,501.0,0.54,0.81,-0.12,-0.82,-2.56,-0.29
2024-12-06 12:31:33.207,92.7,503.0,0.55,0.81,-0.12,-0.63,-2.5,-0.42
2024-12-06 12:31:33.215,93.82,494.0,0.55,0.81,-0.12,-0.39,-2.44,-0.54
2024-12-06 12:31:33.224,89.55,467.0,0.54,0.81,-0.12,-0.08,-2.31,-0.66
2024-12-06 12:31:33.234,90.67,500.0,0.54,0.81,-0.12,0.16,-2.13,-0.78
2024-12-06 12:31:33.238,81.67,476.0,0.54,0.82,-0.12,0.16,-2.13,-0.78
2024-12-06 12:31:33.246,90.9,484.0,0.54,0.82,-0.11,0.4,-1.83,-0.84
2024-12-06 12:31:33.256,90.0,489.0,0.54,0.82,-0.11,0.53,-1.4,-0.84
2024-12-06 12:31:33.261,93.82,490.0,0.54,0.82,-0.11,0.65,-0.97,-0.91
2024-12-06 12:31:33.276,89.32,495.0,0.54,0.82,-0.11,0.83,-0.54,-0.91
2024-12-06 12:31:33.278,88.2,482.0,0.54,0.82,-0.11,0.89,-0.12,-0.84
2024-12-06 12:31:33.322,90.9,507.0,0.54,0.81,-0.11,0.95,0.37,-0.84
2024-12-06 12:31:33.344,88.2,487.0,0.54,0.82,-0.12,1.01,1.41,-0.48
2024-12-06 12:31:33.349,94.27,479.0,0.54,0.82,-0.12,1.08,1.35,-0.54
2024-12-06 12:31:33.353,87.97,486.0,0.54,0.83,-0.12,1.08,1.29,-0.6
2024-12-06 12:31:33.361,89.77,486.0,0.54,0.83,-0.11,1.08,1.29,-0.6
2024-12-06 12:31:33.369,88.42,483.0,0.54,0.83,-0.11,1.01,1.1,-0.6
2024-12-06 12:31:33.380,88.42,499.0,0.54,0.83,-0.11,0.95,0.92,-0.6
2024-12-06 12:31:33.384,91.8,492.0,0.54,0.83,-0.11,0.89,0.74,-0.66
2024-12-06 12:31:33.394,89.32,526.0,0.54,0.83,-0.11,0.83,0.74,-0.6
2024-12-06 12:31:33.401,86.4,490.0,0.54,0.82,-0.11,0.89,0.86,-0.54
2024-12-06 12:31:33.415,90.67,495.0,0.54,0.82,-0.11,0.89,0.86,-0.54
2024-12-06 12:31:33.418,90.45,494.0,0.54,0.81,-0.11,0.95,0.92,-0.36
2024-12-06 12:31:33.423,89.32,486.0,0.54,0.81,-0.12,1.01,1.1,-0.17
2024-12-06 12:31:33.432,90.9,494.0,0.54,0.8,-0.12,1.01,1.16,-0.05
2024-12-06 12:31:33.441,87.07,476.0,0.54,0.8,-0.12,0.95,1.23,0.01
2024-12-06 12:31:33.447,90.67,503.0,0.54,0.8,-0.13,0.65,1.16,0.01
2024-12-06 12:31:33.455,89.1,486.0,0.54,0.79,-0.13,0.65,1.16,0.01
2024-12-06 12:31:33.463,92.02,488.0,0.55,0.79,-0.12,0.34,0.98,-0.05
2024-12-06 12:31:33.471,90.67,493.0,0.55,0.79,-0.12,-0.02,0.8,-0.29
2024-12-06 12:31:33.484,90.67,505.0,0.56,0.8,-0.11,-0.51,0.68,-0.6
2024-12-06 12:31:33.486,90.45,489.0,0.56,0.8,-0.11,-0.82,0.49,-0.97
2024-12-06 12:31:33.497,87.97,508.0,0.56,0.8,-0.1,-0.82,0.55,-1.45
2024-12-06 12:31:33.504,91.35,497.0,0.56,0.81,-0.09,-0.82,0.55,-1.45
2024-12-06 12:31:33.510,89.32,503.0,0.57,0.81,-0.09,-0.51,0.62,-1.82
2024-12-06 12:31:33.524,88.88,487.0,0.56,0.82,-0.09,-0.02,0.62,-2.0
2024-12-06 12:31:33.528,90.67,482.0,0.56,0.82,-0.09,0.53,0.74,-2.19
2024-12-06 12:31:33.536,88.65,484.0,0.56,0.82,-0.09,1.08,0.86,-2.25
2024-12-06 12:31:33.541,92.7,494.0,0.55,0.83,-0.09,1.38,0.98,-2.31
2024-12-06 12:31:33.549,90.67,481.0,0.55,0.82,-0.09,1.38,0.98,-2.31
2024-12-06 12:31:33.557,89.32,486.0,0.54,0.82,-0.1,1.62,1.04,-2.37
2024-12-06 12:31:33.565,91.12,506.0,0.54,0.82,-0.11,1.75,0.86,-2.25
2024-12-06 12:31:33.573,91.8,489.0,0.53,0.82,-0.11,1.62,0.74,-2.13
2024-12-06 12:31:33.600,88.88,481.0,0.53,0.82,-0.11,1.32,0.74,-2.06
2024-12-06 12:31:33.634,89.55,502.0,0.51,0.83,-0.14,1.14,0.43,-2.31
2024-12-06 12:31:33.637,92.47,502.0,0.52,0.82,-0.14,1.14,0.37,-3.83
2024-12-06 12:31:33.645,92.92,508.0,0.52,0.82,-0.13,1.08,0.25,-4.14
2024-12-06 12:31:33.651,90.67,505.0,0.51,0.82,-0.12,0.83,0.74,-4.63
2024-12-06 12:31:33.657,87.97,495.0,0.51,0.82,-0.12,0.65,1.04,-5.24
2024-12-06 12:31:33.671,92.47,492.0,0.51,0.82,-0.12,0.71,1.65,-6.22
2024-12-06 12:31:33.673,89.32,488.0,0.5,0.82,-0.12,0.71,1.65,-6.22
2024-12-06 12:31:33.679,89.55,503.0,0.5,0.83,-0.12,0.83,3.3,-7.19
2024-12-06 12:31:33.687,88.2,496.0,0.52,0.83,-0.12,1.38,5.13,-7.68
2024-12-06 12:31:33.696,86.62,497.0,0.54,0.82,-0.11,2.54,6.35,-7.56
2024-12-06 12:31:33.703,91.35,501.0,0.54,0.82,-0.11,3.52,7.21,-7.19
2024-12-06 12:31:33.713,92.02,511.0,0.56,0.81,-0.11,3.52,7.21,-7.31
2024-12-06 12:31:33.720,90.45,503.0,0.58,0.79,-0.11,4.37,7.76,-7.31
2024-12-06 12:31:33.732,91.35,492.0,0.59,0.79,-0.12,4.68,8.55,-8.9
2024-12-06 12:31:33.740,90.22,489.0,0.59,0.8,-0.1,4.62,8.92,-10.67
2024-12-06 12:31:33.746,90.67,504.0,0.59,0.87,-0.11,4.19,7.63,-11.34
2024-12-06 12:31:33.758,89.77,488.0,0.52,0.87,-0.11,4.55,5.86,-8.84
2024-12-06 12:31:33.761,86.4,501.0,0.48,0.84,-0.09,4.55,5.86,-8.84
2024-12-06 12:31:33.796,83.7,487.0,0.52,0.76,-0.07,3.33,3.79,-10.61
2024-12-06 12:31:33.805,92.47,502.0,0.51,0.79,-0.08,4.37,4.95,-10.37
2024-12-06 12:31:33.808,93.15,489.0,0.51,0.81,-0.06,4.55,5.86,-10.49
2024-12-06 12:31:33.815,90.67,486.0,0.52,0.84,-0.06,4.55,6.54,-10.3
2024-12-06 12:31:33.818,87.97,484.0,0.54,0.86,-0.08,4.25,7.88,-9.82
2024-12-06 12:31:33.826,91.35,492.0,0.54,0.86,-0.08,4.01,8.61,-9.57
2024-12-06 12:31:33.838,85.72,494.0,0.53,0.86,-0.09,3.82,8.55,-9.69
2024-12-06 12:31:33.843,88.65,483.0,0.53,0.85,-0.1,3.82,8.55,-9.69
2024-12-06 12:31:33.850,85.72,493.0,0.54,0.85,-0.11,3.46,7.88,-9.88
2024-12-06 12:31:33.860,88.65,481.0,0.54,0.85,-0.11,3.15,7.27,-9.94
2024-12-06 12:31:33.874,82.8,481.0,0.55,0.85,-0.11,2.78,5.68,-9.57
2024-12-06 12:31:33.878,85.5,488.0,0.55,0.85,-0.11,2.24,3.61,-8.78
2024-12-06 12:31:33.883,89.77,483.0,0.54,0.84,-0.11,2.24,3.61,-8.41
2024-12-06 12:31:33.890,87.07,475.0,0.53,0.83,-0.12,1.62,3.06,-8.41
2024-12-06 12:31:33.896,82.57,495.0,0.54,0.85,-0.13,0.89,2.57,-7.68
2024-12-06 12:31:33.904,84.38,489.0,0.54,0.87,-0.13,-0.21,0.8,-6.09
2024-12-06 12:31:33.912,87.75,484.0,0.53,0.87,-0.14,-1.0,1.53,-4.45
2024-12-06 12:31:33.921,83.7,474.0,0.53,0.87,-0.14,-1.43,2.39,-3.59
2024-12-06 12:31:33.930,78.75,494.0,0.51,0.87,-0.14,-1.73,1.77,-2.49
2024-12-06 12:31:33.936,83.47,482.0,0.52,0.88,-0.14,-1.73,1.77,-2.49
2024-12-06 12:31:33.946,80.78,478.0,0.52,0.87,-0.15,-1.37,1.53,-1.39
2024-12-06 12:31:33.955,81.22,484.0,0.52,0.85,-0.14,-0.63,2.63,-1.03
2024-12-06 12:31:33.966,80.1,485.0,0.54,0.86,-0.12,0.1,1.84,-0.29
2024-12-06 12:31:33.970,79.88,477.0,0.54,0.86,-0.12,0.83,1.16,0.56
2024-12-06 12:31:33.975,76.72,477.0,0.54,0.85,-0.13,1.38,1.41,0.68
2024-12-06 12:31:33.983,76.72,481.0,0.53,0.84,-0.12,1.38,1.41,0.68
2024-12-06 12:31:34.27,73.57,479.0,0.52,0.84,-0.12,4.98,2.75,0.68
2024-12-06 12:31:34.29,78.07,477.0,0.52,0.84,-0.1,5.47,1.1,1.35
2024-12-06 12:31:34.38,77.85,477.0,0.51,0.82,-0.1,5.47,0.86,1.66
2024-12-06 12:31:34.46,72.45,475.0,0.51,0.82,-0.11,5.47,1.47,1.35
2024-12-06 12:31:34.56,72.9,476.0,0.51,0.82,-0.11,5.41,0.92,1.66
2024-12-06 12:31:34.154,69.3,471.0,0.51,0.84,-0.1,4.62,-0.54,-0.29
2024-12-06 12:31:34.160,65.92,471.0,0.51,0.83,-0.1,4.49,-0.79,-0.17
2024-12-06 12:31:34.167,69.07,460.0,0.51,0.83,-0.1,4.07,-0.73,-0.48
2024-12-06 12:31:34.173,69.75,471.0,0.51,0.81,-0.1,4.07,-0.73,-0.48
2024-12-06 12:31:34.182,63.22,464.0,0.52,0.8,-0.1,3.52,-1.52,-0.84
2024-12-06 12:31:34.193,62.32,485.0,0.53,0.8,-0.1,2.85,-2.8,-1.09
2024-12-06 12:31:34.204,69.53,500.0,0.53,0.81,-0.11,2.11,-3.84,-1.15
2024-12-06 12:31:34.208,65.25,489.0,0.51,0.8,-0.1,1.44,-4.69,-1.76
2024-12-06 12:31:34.213,61.65,488.0,0.51,0.8,-0.1,0.47,-4.45,-3.04
2024-12-06 12:31:34.247,65.25,472.0,0.48,0.83,-0.11,-1.06,-3.9,-3.9
2024-12-06 12:31:34.251,61.65,464.0,0.48,0.83,-0.11,-1.24,-2.56,-4.63
2024-12-06 12:31:34.269,59.4,467.0,0.52,0.85,-0.11,-1.24,-2.86,-4.26
2024-12-06 12:31:34.277,55.57,483.0,0.52,0.85,-0.12,-1.43,-3.35,-3.83
2024-12-06 12:31:34.283,63.22,462.0,0.49,0.83,-0.12,-1.73,-3.29,-4.38
2024-12-06 12:31:34.293,57.6,480.0,0.49,0.81,-0.11,-2.28,-2.68,-6.03
2024-12-06 12:31:34.298,59.17,461.0,0.5,0.81,-0.11,-2.83,-3.47,-6.58
2024-12-06 12:31:34.306,58.72,458.0,0.52,0.82,-0.11,-2.83,-3.47,-6.7
2024-12-06 12:31:34.315,58.5,467.0,0.5,0.82,-0.13,-2.83,-4.39,-6.7
2024-12-06 12:31:34.322,57.38,464.0,0.48,0.81,-0.13,-2.71,-3.72,-7.68
2024-12-06 12:31:34.329,58.27,465.0,0.5,0.83,-0.12,-2.59,-3.47,-8.23
2024-12-06 12:31:34.337,59.17,478.0,0.51,0.85,-0.12,-2.28,-4.15,-7.56
2024-12-06 12:31:34.347,58.72,469.0,0.51,0.85,-0.12,-2.1,-3.66,-7.44
2024-12-06 12:31:34.352,57.38,439.0,0.48,0.84,-0.14,-2.1,-3.66,-7.44
2024-12-06 12:31:34.361,57.38,468.0,0.49,0.83,-0.13,-2.22,-2.44,-8.23
2024-12-06 12:31:34.372,55.12,466.0,0.52,0.84,-0.12,-2.4,-2.92,-7.92
2024-12-06 12:31:34.378,50.4,467.0,0.5,0.83,-0.14,-2.4,-3.54,-7.5
2024-12-06 12:31:34.386,54.67,479.0,0.49,0.82,-0.14,-2.65,-3.05,-8.35
2024-12-06 12:31:34.393,52.2,489.0,0.49,0.82,-0.14,-2.89,-3.05,-8.6
2024-12-06 12:31:34.407,50.4,510.0,0.51,0.83,-0.13,-2.89,-4.88,-7.5
2024-12-06 12:31:34.409,52.2,466.0,0.52,0.85,-0.13,-3.01,-4.88,-7.5
2024-12-06 12:31:34.415,51.07,469.0,0.48,0.84,-0.14,-3.44,-5.24,-7.19
2024-12-06 12:31:34.424,52.65,475.0,0.48,0.83,-0.13,-3.81,-3.72,-8.23
2024-12-06 12:31:34.430,44.32,476.0,0.48,0.86,-0.12,-4.17,-4.02,-7.74
2024-12-06 12:31:34.439,46.35,486.0,0.51,0.85,-0.12,-4.17,-4.69,-6.64
2024-12-06 12:31:34.469,50.17,467.0,0.5,0.85,-0.12,-4.36,-1.83,-7.07
2024-12-06 12:31:34.472,46.57,467.0,0.52,0.87,-0.12,-4.23,-2.92,-5.85
2024-12-06 12:31:34.479,45.9,492.0,0.52,0.87,-0.12,-4.11,-4.08,-5.3
2024-12-06 12:31:34.488,41.85,466.0,0.49,0.85,-0.13,-4.11,-3.41,-6.4
2024-12-06 12:31:34.509,45.45,470.0,0.48,0.84,-0.13,-4.17,-3.41,-6.4
2024-12-06 12:31:34.515,45.9,463.0,0.51,0.86,-0.13,-4.05,-5.73,-5.79
2024-12-06 12:31:34.528,49.05,476.0,0.51,0.86,-0.14,-3.99,-5.12,-5.91
2024-12-06 12:31:34.534,43.65,479.0,0.48,0.84,-0.14,-3.87,-4.15,-6.58
2024-12-06 12:31:34.547,43.42,472.0,0.48,0.85,-0.14,-3.87,-4.15,-6.58
2024-12-06 12:31:34.553,42.75,476.0,0.5,0.87,-0.12,-3.44,-4.15,-4.99
2024-12-06 12:31:34.561,41.85,461.0,0.48,0.86,-0.12,-3.32,-3.35,-4.63
2024-12-06 12:31:34.563,38.02,467.0,0.48,0.86,-0.12,-3.2,-2.01,-5.36
2024-12-06 12:31:34.573,41.85,480.0,0.48,0.85,-0.12,-3.2,-2.01,-5.67
2024-12-06 12:31:34.579,37.12,469.0,0.5,0.85,-0.11,-2.95,-1.64,-5.67
2024-12-06 12:31:34.586,39.15,468.0,0.5,0.84,-0.11,-2.46,-2.38,-5.79
2024-12-06 12:31:34.593,37.8,462.0,0.49,0.85,-0.13,-1.92,-1.89,-6.09
2024-12-06 12:31:34.605,42.3,461.0,0.48,0.85,-0.13,-1.18,-1.7,-6.64
2024-12-06 12:31:34.609,40.05,472.0,0.48,0.85,-0.13,-0.57,-1.46,-7.07
2024-12-06 12:31:34.618,36.67,440.0,0.48,0.86,-0.13,-0.02,-1.46,-7.13
2024-12-06 12:31:34.628,35.33,476.0,0.49,0.87,-0.13,-0.02,-1.46,-7.13
2024-12-06 12:31:34.634,33.75,469.0,0.49,0.87,-0.12,0.1,-1.52,-7.25
2024-12-06 12:31:34.640,37.8,462.0,0.49,0.86,-0.11,-0.08,-1.15,-7.62
2024-12-06 12:31:34.648,38.02,469.0,0.47,0.85,-0.12,-0.08,-0.79,-8.11
2024-12-06 12:31:34.657,38.02,459.0,0.47,0.85,-0.12,0.1,-0.06,-8.96
2024-12-06 12:31:34.664,33.08,472.0,0.46,0.85,-0.13,0.1,-0.06,-9.51
2024-12-06 12:31:34.674,37.12,467.0,0.46,0.85,-0.12,0.34,0.92,-9.51
2024-12-06 12:31:34.688,33.75,458.0,0.48,0.86,-0.12,0.89,1.77,-9.08
2024-12-06 12:31:34.696,33.52,462.0,0.48,0.87,-0.11,0.77,2.69,-8.6
2024-12-06 12:31:34.703,34.42,470.0,0.48,0.87,-0.11,0.71,2.75,-8.47
2024-12-06 12:31:34.712,33.52,467.0,0.47,0.87,-0.12,0.71,2.75,-9.02
2024-12-06 12:31:34.750,35.33,476.0,0.47,0.85,-0.12,1.26,1.53,-10.55
2024-12-06 12:31:34.752,33.08,473.0,0.47,0.86,-0.13,1.38,1.47,-10.49
2024-12-06 12:31:34.758,29.7,486.0,0.47,0.87,-0.11,1.38,1.47,-10.49
2024-12-06 12:31:34.765,31.72,470.0,0.46,0.88,-0.12,1.62,1.35,-10.3
2024-12-06 12:31:34.786,32.17,486.0,0.46,0.89,-0.13,1.62,2.45,-10.12
2024-12-06 12:31:34.812,31.05,480.0,0.46,0.86,-0.12,1.87,1.35,-9.27
2024-12-06 12:31:34.815,27.45,468.0,0.46,0.86,-0.12,1.56,1.04,-9.27
2024-12-06 12:31:34.819,31.05,482.0,0.45,0.86,-0.12,1.32,0.31,-9.51
2024-12-06 12:31:34.829,32.62,493.0,0.45,0.86,-0.12,1.44,-0.12,-10.37
2024-12-06 12:31:34.842,30.38,495.0,0.43,0.85,-0.13,1.5,-0.12,-11.16
2024-12-06 12:31:34.852,29.7,477.0,0.43,0.86,-0.14,1.5,-0.12,-11.16
2024-12-06 12:31:34.855,23.62,467.0,0.44,0.88,-0.13,1.62,-0.18,-11.16
2024-12-06 12:31:34.861,28.35,473.0,0.44,0.9,-0.13,1.75,-0.24,-10.49
2024-12-06 12:31:34.869,29.25,487.0,0.43,0.9,-0.13,1.75,0.55,-10.12
2024-12-06 12:31:34.873,27.0,490.0,0.43,0.9,-0.13,1.5,1.29,-10.12
2024-12-06 12:31:34.882,23.62,488.0,0.42,0.9,-0.12,1.5,1.53,-10.3
2024-12-06 12:31:34.889,23.4,474.0,0.41,0.89,-0.11,1.08,1.53,-10.3
2024-12-06 12:31:34.903,29.92,474.0,0.39,0.87,-0.12,0.89,2.57,-11.22
2024-12-06 12:31:34.905,27.22,487.0,0.39,0.86,-0.12,0.95,3.73,-12.2
2024-12-06 12:31:34.921,25.42,487.0,0.41,0.87,-0.12,1.08,3.67,-12.26
2024-12-06 12:31:34.947,21.15,486.0,0.42,0.9,-0.12,2.24,8.12,-10.06
2024-12-06 12:31:34.951,27.67,473.0,0.42,0.9,-0.12,2.48,8.37,-9.33
2024-12-06 12:31:34.968,25.65,464.0,0.42,0.9,-0.12,2.54,9.04,-9.27
2024-12-06 12:31:34.971,29.47,464.0,0.41,0.89,-0.12,2.54,8.85,-9.57
2024-12-06 12:31:34.974,23.17,535.0,0.41,0.88,-0.11,2.42,8.85,-9.57
2024-12-06 12:31:34.985,21.38,487.0,0.42,0.87,-0.11,2.42,8.0,-9.76
2024-12-06 12:31:34.993,24.97,471.0,0.42,0.87,-0.12,2.48,7.33,-9.94
2024-12-06 12:31:34.997,21.38,478.0,0.43,0.88,-0.13,2.6,7.57,-9.63
2024-12-06 12:31:35.11,26.55,487.0,0.43,0.88,-0.13,2.78,7.63,-8.9
2024-12-06 12:31:35.34,22.27,477.0,0.41,0.89,-0.14,3.15,9.16,-8.35
2024-12-06 12:31:35.41,26.32,474.0,0.42,0.9,-0.12,3.21,10.38,-7.8
2024-12-06 12:31:35.59,23.85,479.0,0.42,0.9,-0.12,3.46,9.16,-7.13
2024-12-06 12:31:35.61,25.2,482.0,0.4,0.87,-0.12,3.46,9.16,-7.37
2024-12-06 12:31:35.67,23.62,489.0,0.41,0.87,-0.11,3.39,9.04,-8.05
2024-12-06 12:31:35.75,20.25,515.0,0.42,0.88,-0.11,3.58,6.84,-8.05
2024-12-06 12:31:35.83,16.65,477.0,0.41,0.88,-0.12,3.64,6.66,-8.23
2024-12-06 12:31:35.94,20.02,468.0,0.41,0.88,-0.12,3.46,6.9,-8.47
2024-12-06 12:31:35.100,26.32,472.0,0.4,0.89,-0.12,3.46,6.9,-8.47
2024-12-06 12:31:35.195,24.75,482.0,0.4,0.9,-0.11,3.39,7.21,-8.6
2024-12-06 12:31:35.203,19.8,470.0,0.41,0.91,-0.1,5.96,10.08,-8.23
2024-12-06 12:31:35.211,22.95,459.0,0.41,0.91,-0.11,5.96,9.16,-8.29
2024-12-06 12:31:35.224,20.48,477.0,0.4,0.9,-0.11,6.08,9.16,-8.29
2024-12-06 12:31:35.229,24.75,477.0,0.39,0.88,-0.12,6.26,7.39,-8.6
2024-12-06 12:31:35.281,22.27,489.0,0.39,0.88,-0.13,6.32,6.47,-9.21
2024-12-06 12:31:35.287,25.65,460.0,0.39,0.9,-0.13,5.16,5.74,-7.74
2024-12-06 12:31:35.296,23.4,466.0,0.39,0.89,-0.13,4.74,4.77,-7.56
2024-12-06 12:31:35.306,20.7,468.0,0.4,0.89,-0.13,4.07,3.73,-7.25
2024-12-06 12:31:35.314,21.38,479.0,0.4,0.89,-0.13,3.33,2.51,-6.83
2024-12-06 12:31:35.321,24.3,476.0,0.4,0.9,-0.13,2.66,1.9,-6.28
2024-12-06 12:31:35.327,23.17,469.0,0.4,0.9,-0.13,2.24,1.41,-5.67
2024-12-06 12:31:35.337,18.9,477.0,0.4,0.9,-0.13,1.81,1.04,-4.81
2024-12-06 12:31:35.375,24.07,494.0,0.41,0.9,-0.13,1.81,1.04,-4.81
2024-12-06 12:31:35.380,23.62,482.0,0.41,0.89,-0.11,0.4,-1.77,-1.03
2024-12-06 12:31:35.383,19.57,463.0,0.41,0.89,-0.1,0.4,-1.77,-1.03
2024-12-06 12:31:35.392,24.3,467.0,0.41,0.88,-0.11,0.1,-2.44,-0.29
2024-12-06 12:31:35.398,23.62,463.0,0.42,0.88,-0.11,-0.15,-2.5,0.68
2024-12-06 12:31:35.405,23.4,513.0,0.4,0.89,-0.11,-0.15,-3.72,1.29
2024-12-06 12:31:35.420,18.45,481.0,0.39,0.88,-0.12,-0.57,-3.54,1.72
2024-12-06 12:31:35.432,24.3,477.0,0.39,0.88,-0.11,-0.57,-3.54,1.72
2024-12-06 12:31:35.437,21.82,474.0,0.39,0.88,-0.11,-0.51,-4.45,2.15
2024-12-06 12:31:35.443,19.57,467.0,0.39,0.88,-0.11,-0.76,-5.0,2.7
2024-12-06 12:31:35.487,21.82,484.0,0.39,0.87,-0.11,-1.49,-6.04,3.06
2024-12-06 12:31:35.490,22.72,478.0,0.39,0.88,-0.12,-3.2,-7.56,3.12
2024-12-06 12:31:35.500,21.15,472.0,0.39,0.88,-0.12,-3.56,-8.72,2.7
2024-12-06 12:31:35.506,20.25,469.0,0.37,0.88,-0.12,-3.87,-9.64,1.9
2024-12-06 12:31:35.512,21.38,472.0,0.37,0.88,-0.13,-3.87,-9.64,1.9
2024-12-06 12:31:35.528,22.5,495.0,0.37,0.88,-0.13,-4.05,-10.37,1.11
2024-12-06 12:31:35.531,19.35,469.0,0.37,0.88,-0.13,-4.17,-11.23,0.62
2024-12-06 12:31:35.535,20.7,480.0,0.37,0.88,-0.13,-4.3,-11.84,0.25
2024-12-06 12:31:35.548,23.4,488.0,0.37,0.88,-0.13,-4.54,-12.08,-0.11
2024-12-06 12:31:35.564,23.4,472.0,0.37,0.88,-0.13,-4.54,-12.08,-0.11
2024-12-06 12:31:35.599,21.6,475.0,0.37,0.88,-0.13,-4.72,-12.32,-0.48
2024-12-06 12:31:35.603,23.62,478.0,0.4,0.9,-0.11,-6.61,-11.59,0.56
2024-12-06 12:31:35.608,23.62,481.0,0.4,0.91,-0.11,-7.04,-11.29,1.17
2024-12-06 12:31:35.613,22.95,465.0,0.4,0.91,-0.11,-7.29,-11.04,1.54
2024-12-06 12:31:35.637,22.95,461.0,0.39,0.91,-0.11,-7.41,-11.1,1.78
2024-12-06 12:31:35.647,22.27,463.0,0.39,0.9,-0.1,-7.41,-11.1,1.78
2024-12-06 12:31:35.652,18.45,465.0,0.38,0.9,-0.1,-7.41,-11.04,1.6
2024-12-06 12:31:35.655,22.27,471.0,0.39,0.89,-0.1,-7.47,-11.04,1.48
2024-12-06 12:31:35.659,20.48,488.0,0.39,0.89,-0.11,-7.35,-10.86,1.35
2024-12-06 12:31:35.667,19.8,477.0,0.39,0.89,-0.11,-7.23,-10.62,1.29
2024-12-06 12:31:35.677,20.48,464.0,0.39,0.9,-0.11,-6.98,-10.19,1.41
2024-12-06 12:31:35.683,23.17,491.0,0.4,0.91,-0.12,-6.98,-10.19,1.41
2024-12-06 12:31:35.691,25.42,478.0,0.4,0.91,-0.12,-6.74,-9.7,1.54
2024-12-06 12:31:35.700,20.25,469.0,0.39,0.92,-0.12,-6.49,-9.46,1.66
2024-12-06 12:31:35.712,23.62,469.0,0.39,0.91,-0.12,-6.31,-9.21,1.6
2024-12-06 12:31:35.716,25.2,484.0,0.39,0.91,-0.12,-6.37,-8.91,1.48
2024-12-06 12:31:35.723,22.95,479.0,0.39,0.91,-0.12,-6.37,-8.78,1.35
2024-12-06 12:31:35.733,23.4,487.0,0.39,0.91,-0.12,-6.37,-8.78,1.29
2024-12-06 12:31:35.740,23.85,466.0,0.39,0.9,-0.12,-6.43,-8.6,1.29
2024-12-06 12:31:35.754,24.07,469.0,0.4,0.9,-0.12,-6.49,-8.66,1.54
2024-12-06 12:31:35.760,20.7,477.0,0.4,0.9,-0.11,-6.37,-9.46,1.96
2024-12-06 12:31:35.776,24.52,469.0,0.4,0.89,-0.12,-6.49,-11.23,1.66
2024-12-06 12:31:35.786,21.38,468.0,0.39,0.9,-0.12,-6.49,-11.9,1.23
2024-12-06 12:31:35.792,24.97,473.0,0.39,0.91,-0.12,-6.49,-12.69,0.8
2024-12-06 12:31:35.833,18.45,493.0,0.37,0.91,-0.13,-6.43,-12.02,-0.42
2024-12-06 12:31:35.836,21.82,488.0,0.37,0.91,-0.13,-6.25,-11.23,-0.78
2024-12-06 12:31:35.839,21.15,495.0,0.36,0.91,-0.13,-6.07,-10.37,-1.03
2024-12-06 12:31:35.852,22.95,471.0,0.36,0.91,-0.12,-5.94,-9.27,-1.27
2024-12-06 12:31:35.854,23.62,463.0,0.36,0.9,-0.12,-5.88,-8.17,-1.27
2024-12-06 12:31:35.867,22.95,469.0,0.37,0.9,-0.12,-5.88,-8.17,-1.15
2024-12-06 12:31:35.870,16.42,471.0,0.37,0.91,-0.11,-5.82,-7.26,-1.15
2024-12-06 12:31:35.878,24.52,485.0,0.37,0.91,-0.11,-5.76,-6.4,-0.91
2024-12-06 12:31:35.886,21.82,480.0,0.38,0.91,-0.11,-5.76,-5.49,-0.66
2024-12-06 12:31:35.896,23.85,480.0,0.38,0.91,-0.11,-5.76,-4.88,-0.48
2024-12-06 12:31:35.907,23.85,474.0,0.38,0.91,-0.11,-5.7,-4.76,-0.42
2024-12-06 12:31:35.910,23.4,474.0,0.38,0.91,-0.11,-5.7,-4.69,-0.54
2024-12-06 12:31:35.918,26.55,528.0,0.38,0.91,-0.11,-5.58,-4.69,-0.54
2024-12-06 12:31:35.928,21.82,492.0,0.38,0.91,-0.11,-5.46,-4.76,-0.84
2024-12-06 12:31:35.938,21.6,475.0,0.38,0.91,-0.12,-5.15,-5.12,-1.15
2024-12-06 12:31:35.941,23.17,490.0,0.38,0.91,-0.12,-4.78,-5.18,-1.64
2024-12-06 12:31:35.952,19.35,474.0,0.38,0.91,-0.12,-4.42,-5.0,-2.13
2024-12-06 12:31:35.959,20.02,471.0,0.37,0.9,-0.13,-4.42,-4.76,-2.43
2024-12-06 12:31:35.966,24.3,453.0,0.37,0.91,-0.13,-3.99,-4.76,-2.43
2024-12-06 12:31:35.974,23.17,475.0,0.37,0.91,-0.13,-3.5,-4.57,-2.61
2024-12-06 12:31:35.982,23.17,476.0,0.37,0.92,-0.12,-3.2,-4.33,-2.61
2024-12-06 12:31:35.992,21.15,461.0,0.38,0.93,-0.11,-3.01,-4.02,-2.49
2024-12-06 12:31:35.999,15.3,486.0,0.38,0.93,-0.11,-2.95,-3.47,-2.25
2024-12-06 12:31:36.9,18.45,491.0,0.38,0.93,-0.11,-2.95,-3.47,-1.88
2024-12-06 12:31:36.20,24.75,479.0,0.38,0.93,-0.11,-3.01,-2.99,-1.88
2024-12-06 12:31:36.49,24.75,481.0,0.38,0.92,-0.11,-2.53,-2.25,-0.66
2024-12-06 12:31:36.53,23.62,468.0,0.38,0.91,-0.11,-2.53,-2.25,-0.66
2024-12-06 12:31:36.62,21.38,481.0,0.38,0.91,-0.11,-2.16,-2.5,-0.48
2024-12-06 12:31:36.70,23.85,469.0,0.39,0.91,-0.11,-1.98,-2.62,-0.36
2024-12-06 12:31:36.74,23.4,504.0,0.39,0.91,-0.1,-1.79,-2.86,-0.29
2024-12-06 12:31:36.98,24.75,491.0,0.39,0.91,-0.1,-1.61,-3.6,-0.05
2024-12-06 12:31:36.101,22.95,482.0,0.39,0.91,-0.1,-1.49,-3.6,-0.05
2024-12-06 12:31:36.106,21.6,478.0,0.39,0.91,-0.1,-1.37,-3.72,0.13
2024-12-06 12:31:36.112,25.65,466.0,0.38,0.91,-0.1,-1.3,-3.96,0.25
2024-12-06 12:31:36.121,23.62,483.0,0.38,0.91,-0.1,-1.18,-4.15,0.5
2024-12-06 12:31:36.133,20.7,470.0,0.38,0.91,-0.1,-1.12,-4.08,0.68
2024-12-06 12:31:36.136,12.38,460.0,0.38,0.91,-0.1,-1.12,-4.08,0.68
2024-12-06 12:31:36.147,23.17,490.0,0.38,0.91,-0.1,-1.0,-3.9,0.86
2024-12-06 12:31:36.279,21.38,469.0,0.36,0.91,-0.11,-0.76,-2.31,0.44
2024-12-06 12:31:36.284,23.4,483.0,0.36,0.91,-0.11,-0.69,-1.83,0.25
2024-12-06 12:31:36.294,21.82,467.0,0.37,0.91,-0.1,-0.69,-1.83,0.19
2024-12-06 12:31:36.296,22.95,477.0,0.37,0.91,-0.1,-0.57,-1.58,0.19
2024-12-06 12:31:36.303,23.85,473.0,0.37,0.91,-0.11,-0.51,-1.4,0.13
2024-12-06 12:31:36.314,23.4,463.0,0.37,0.91,-0.11,-0.45,-1.09,0.19
2024-12-06 12:31:36.319,20.25,474.0,0.37,0.91,-0.11,-0.39,-0.85,0.32
2024-12-06 12:31:36.326,19.12,484.0,0.37,0.91,-0.11,-0.51,-0.73,0.38
2024-12-06 12:31:36.341,22.72,473.0,0.38,0.91,-0.11,-0.51,-0.73,0.38
2024-12-06 12:31:36.344,20.7,465.0,0.38,0.9,-0.11,-0.63,-0.67,0.44
2024-12-06 12:31:36.355,21.82,485.0,0.38,0.9,-0.11,-0.69,-0.79,0.44
2024-12-06 12:31:36.360,22.5,489.0,0.38,0.9,-0.1,-0.76,-0.85,0.56
2024-12-06 12:31:36.365,24.75,472.0,0.38,0.9,-0.1,-0.94,-0.73,0.68
2024-12-06 12:31:36.373,23.17,479.0,0.38,0.9,-0.1,-1.06,-0.85,0.86
2024-12-06 12:31:36.383,20.48,477.0,0.39,0.9,-0.1,-1.06,-0.85,0.86
2024-12-06 12:31:36.389,20.25,481.0,0.38,0.9,-0.1,-1.06,-1.22,1.11
2024-12-06 12:31:36.404,18.67,486.0,0.38,0.9,-0.11,-1.12,-1.03,1.17
2024-12-06 12:31:36.418,21.82,472.0,0.38,0.91,-0.1,-1.12,-0.79,1.11
2024-12-06 12:31:36.426,21.6,486.0,0.39,0.9,-0.1,-1.06,-0.54,0.86
2024-12-06 12:31:36.430,24.97,458.0,0.39,0.9,-0.1,-1.0,-0.54,0.86
2024-12-06 12:31:36.437,23.62,487.0,0.39,0.9,-0.1,-0.88,-0.67,0.8
2024-12-06 12:31:36.442,24.3,482.0,0.39,0.91,-0.1,-0.76,-0.91,0.74
2024-12-06 12:31:36.450,26.1,468.0,0.39,0.91,-0.1,-0.57,-1.09,0.68
2024-12-06 12:31:36.478,22.72,470.0,0.39,0.91,-0.1,-0.39,-1.22,0.68
2024-12-06 12:31:36.501,19.57,472.0,0.39,0.91,-0.09,-0.08,-1.15,0.44
2024-12-06 12:31:36.503,25.2,481.0,0.39,0.91,-0.1,-0.08,-1.15,0.44
2024-12-06 12:31:36.511,22.72,473.0,0.39,0.9,-0.1,-0.08,-0.91,0.38
2024-12-06 12:31:36.522,23.17,465.0,0.39,0.9,-0.1,-0.08,-0.73,0.32
2024-12-06 12:31:36.540,20.48,485.0,0.39,0.9,-0.1,-0.08,-0.67,0.25
2024-12-06 12:31:36.545,25.2,472.0,0.39,0.9,-0.1,-0.21,-0.61,0.32
2024-12-06 12:31:36.550,25.65,477.0,0.39,0.9,-0.1,-0.27,-0.73,0.32
2024-12-06 12:31:36.567,23.85,485.0,0.39,0.9,-0.1,-0.27,-0.85,0.32
2024-12-06 12:31:36.576,24.3,461.0,0.39,0.9,-0.1,-0.27,-1.09,0.32
2024-12-06 12:31:36.586,20.48,469.0,0.39,0.9,-0.1,-0.21,-1.22,0.38
2024-12-06 12:31:36.591,22.5,467.0,0.39,0.9,-0.1,-0.21,-1.22,0.38
2024-12-06 12:31:36.598,23.4,463.0,0.39,0.9,-0.1,-0.08,-1.28,0.44
2024-12-06 12:31:36.611,25.65,480.0,0.39,0.9,-0.1,-0.02,-1.15,0.5
2024-12-06 12:31:36.619,21.15,479.0,0.39,0.9,-0.1,-0.02,-1.15,0.56
2024-12-06 12:31:36.622,22.95,466.0,0.39,0.9,-0.1,-0.02,-1.28,0.62
2024-12-06 12:31:36.626,25.2,471.0,0.39,0.9,-0.1,-0.02,-1.28,0.62
2024-12-06 12:31:36.641,20.92,481.0,0.39,0.9,-0.1,-0.02,-1.34,0.62
2024-12-06 12:31:36.653,25.42,448.0,0.39,0.9,-0.1,0.04,-1.4,0.56
2024-12-06 12:31:36.664,19.57,470.0,0.39,0.9,-0.1,0.1,-1.4,0.5
2024-12-06 12:31:36.672,21.82,472.0,0.39,0.9,-0.1,0.16,-1.28,0.44
2024-12-06 12:31:36.676,24.52,488.0,0.39,0.91,-0.1,0.16,-1.28,0.44
2024-12-06 12:31:36.681,20.7,484.0,0.39,0.91,-0.1,0.16,-1.34,0.56
2024-12-06 12:31:36.688,20.92,480.0,0.39,0.9,-0.1,0.16,-1.28,0.56
2024-12-06 12:31:36.696,22.95,465.0,0.39,0.9,-0.11,0.16,-1.22,0.56
2024-12-06 12:31:36.703,20.7,481.0,0.39,0.9,-0.11,0.16,-1.09,0.5
2024-12-06 12:31:36.711,23.62,476.0,0.39,0.9,-0.11,0.16,-1.09,0.5
2024-12-06 12:31:36.719,22.95,483.0,0.39,0.9,-0.1,0.16,-0.91,0.38
2024-12-06 12:31:36.738,20.7,471.0,0.39,0.89,-0.1,0.22,-0.85,0.32
2024-12-06 12:31:36.740,21.82,471.0,0.39,0.9,-0.1,0.28,-0.79,0.19
2024-12-06 12:31:36.744,20.92,470.0,0.39,0.9,-0.1,0.28,-0.36,0.07
2024-12-06 12:31:36.751,23.17,486.0,0.39,0.9,-0.1,0.28,0.13,0.01
2024-12-06 12:31:36.758,23.17,483.0,0.39,0.9,-0.1,0.28,0.13,0.01
2024-12-06 12:31:36.794,18.45,480.0,0.39,0.9,-0.1,0.28,0.25,0.01
2024-12-06 12:31:36.798,17.1,465.0,0.4,0.9,-0.1,0.34,0.31,-0.42
2024-12-06 12:31:36.808,25.2,465.0,0.4,0.9,-0.1,0.4,0.19,-0.54
2024-12-06 12:31:36.814,20.7,480.0,0.4,0.9,-0.1,0.4,-0.06,-0.66
2024-12-06 12:31:36.824,27.22,490.0,0.4,0.9,-0.11,0.4,-0.3,-0.72
2024-12-06 12:31:36.830,23.17,488.0,0.4,0.9,-0.1,0.47,-0.67,-0.91
2024-12-06 12:31:36.839,22.72,475.0,0.4,0.9,-0.1,0.53,-0.97,-1.03
2024-12-06 12:31:36.848,20.92,479.0,0.4,0.9,-0.1,0.47,-1.15,-1.15
2024-12-06 12:31:36.853,18.67,466.0,0.4,0.89,-0.11,0.47,-1.15,-1.15
2024-12-06 12:31:36.862,19.57,474.0,0.4,0.89,-0.11,0.53,-1.22,-1.33
2024-12-06 12:31:36.875,20.48,466.0,0.4,0.9,-0.11,0.47,-1.15,-1.33
2024-12-06 12:31:36.877,18.67,507.0,0.4,0.9,-0.1,0.34,-0.97,-1.33
2024-12-06 12:31:36.885,24.07,492.0,0.4,0.9,-0.1,0.16,-0.73,-1.21
2024-12-06 12:31:36.895,25.42,471.0,0.4,0.9,-0.11,0.16,-0.73,-1.21
2024-12-06 12:31:36.900,24.52,478.0,0.4,0.9,-0.11,0.1,-0.61,-0.97
2024-12-06 12:31:36.906,25.2,483.0,0.4,0.9,-0.11,0.1,-0.67,-0.78
2024-12-06 12:31:36.919,22.05,482.0,0.4,0.9,-0.11,0.04,-0.61,-0.72
2024-12-06 12:31:36.956,23.85,473.0,0.39,0.9,-0.11,0.28,-0.36,-0.84
2024-12-06 12:31:36.960,23.17,479.0,0.39,0.9,-0.11,0.28,-0.06,-0.84
2024-12-06 12:31:36.975,27.22,469.0,0.39,0.9,-0.11,0.34,-0.06,-0.78
2024-12-06 12:31:36.981,22.5,464.0,0.39,0.9,-0.11,0.34,-0.06,-0.78
2024-12-06 12:31:36.984,23.62,464.0,0.39,0.9,-0.11,0.4,-0.06,-0.78
2024-12-06 12:31:36.991,20.92,482.0,0.39,0.9,-0.11,0.34,0.13,-0.78
2024-12-06 12:31:37.2,20.92,479.0,0.39,0.9,-0.1,0.4,0.07,-0.78
2024-12-06 12:31:37.7,18.9,486.0,0.39,0.9,-0.1,0.34,0.07,-0.72
2024-12-06 12:31:37.15,17.77,469.0,0.39,0.9,-0.11,0.22,0.37,-0.66
2024-12-06 12:31:37.25,17.55,484.0,0.39,0.9,-0.11,0.22,0.37,-0.66
2024-12-06 12:31:37.30,24.07,492.0,0.39,0.9,-0.11,0.16,0.62,-0.6
2024-12-06 12:31:37.42,23.85,478.0,0.39,0.9,-0.11,0.16,0.98,-0.54
2024-12-06 12:31:37.46,19.35,472.0,0.39,0.9,-0.11,0.28,1.23,-0.6
2024-12-06 12:31:37.54,25.2,512.0,0.39,0.9,-0.11,0.34,1.47,-0.6
2024-12-06 12:31:37.63,23.62,506.0,0.39,0.9,-0.11,0.4,1.59,-0.66
2024-12-06 12:31:37.69,26.77,474.0,0.39,0.9,-0.11,0.4,1.59,-0.66
2024-12-06 12:31:37.81,21.6,467.0,0.39,0.9,-0.11,0.4,1.47,-0.72
2024-12-06 12:31:37.87,22.95,473.0,0.39,0.9,-0.1,0.34,1.23,-0.84
2024-12-06 12:31:37.96,23.17,482.0,0.4,0.89,-0.1,0.22,0.86,-0.91
2024-12-06 12:31:37.118,22.72,505.0,0.4,0.89,-0.09,-0.45,0.92,-1.03
2024-12-06 12:31:37.123,20.7,470.0,0.4,0.89,-0.09,-0.69,0.43,-0.91
2024-12-06 12:31:37.133,20.7,482.0,0.4,0.89,-0.09,-1.06,0.37,-0.78
2024-12-06 12:31:37.139,21.38,465.0,0.4,0.89,-0.09,-1.12,0.19,-0.54
2024-12-06 12:31:37.150,17.55,478.0,0.41,0.9,-0.09,-1.12,-0.12,-0.29
2024-12-06 12:31:37.156,17.77,498.0,0.41,0.9,-0.09,-1.12,-0.12,-0.29
2024-12-06 12:31:37.163,22.5,486.0,0.41,0.9,-0.1,-1.24,0.0,-0.23
2024-12-06 12:31:37.198,23.4,481.0,0.41,0.9,-0.1,-1.18,-0.18,-0.29
2024-12-06 12:31:37.202,23.62,481.0,0.41,0.9,-0.11,-0.88,-0.91,-0.54
2024-12-06 12:31:37.316,23.4,475.0,0.38,0.91,-0.11,-0.82,-1.52,-1.58
2024-12-06 12:31:37.326,20.92,492.0,0.38,0.91,-0.11,-0.63,-0.91,-1.88
2024-12-06 12:31:37.333,25.65,481.0,0.38,0.91,-0.12,-0.39,-0.61,-2.06
2024-12-06 12:31:37.340,22.5,473.0,0.38,0.91,-0.12,-0.33,-0.18,-2.19
2024-12-06 12:31:37.345,19.35,475.0,0.38,0.91,-0.11,-0.33,-0.18,-2.19
2024-12-06 12:31:37.352,23.4,492.0,0.38,0.91,-0.11,-0.39,0.0,-2.37
2024-12-06 12:31:37.362,21.6,462.0,0.38,0.9,-0.11,-0.57,-0.06,-2.49
2024-12-06 12:31:37.370,20.25,473.0,0.38,0.9,-0.11,-0.63,0.07,-2.55
2024-12-06 12:31:37.379,18.0,477.0,0.38,0.9,-0.11,-0.82,0.25,-2.49
2024-12-06 12:31:37.407,23.4,465.0,0.39,0.9,-0.1,-0.57,0.8,-2.0
2024-12-06 12:31:37.413,24.97,490.0,0.39,0.9,-0.1,-0.33,0.98,-1.64
2024-12-06 12:31:37.420,23.4,465.0,0.4,0.9,-0.1,-0.21,1.04,-1.39
2024-12-06 12:31:37.429,18.9,470.0,0.4,0.9,-0.1,-0.21,1.04,-1.39
2024-12-06 12:31:37.436,22.95,463.0,0.4,0.9,-0.1,-0.08,0.92,-1.21
2024-12-06 12:31:37.450,25.65,486.0,0.41,0.9,-0.09,-0.08,0.37,-0.97
2024-12-06 12:31:37.453,23.4,482.0,0.41,0.9,-0.09,-0.15,-0.06,-0.84
2024-12-06 12:31:37.460,23.62,468.0,0.41,0.9,-0.09,-0.15,-0.3,-0.72
2024-12-06 12:31:37.468,23.4,530.0,0.41,0.9,-0.09,-0.08,-0.85,-0.54
2024-12-06 12:31:37.478,14.62,471.0,0.41,0.9,-0.09,-0.08,-0.85,-0.42
2024-12-06 12:31:37.485,19.8,486.0,0.41,0.9,-0.09,-0.02,-1.28,-0.42
2024-12-06 12:31:37.492,25.65,490.0,0.41,0.9,-0.09,-0.02,-1.46,-0.29
2024-12-06 12:31:37.501,20.7,480.0,0.41,0.9,-0.09,0.04,-1.64,-0.23
2024-12-06 12:31:37.509,23.85,480.0,0.41,0.9,-0.09,0.1,-1.7,-0.23
2024-12-06 12:31:37.516,23.4,480.0,0.41,0.9,-0.09,0.16,-1.83,-0.11
2024-12-06 12:31:37.525,21.38,464.0,0.41,0.91,-0.09,0.16,-1.83,-0.11
2024-12-06 12:31:37.530,19.57,469.0,0.41,0.91,-0.09,0.22,-1.95,0.01
2024-12-06 12:31:37.540,23.4,472.0,0.4,0.91,-0.1,0.22,-1.95,0.19
2024-12-06 12:31:37.546,21.15,476.0,0.4,0.91,-0.1,0.16,-1.83,0.32
2024-12-06 12:31:37.554,22.72,494.0,0.4,0.91,-0.1,0.1,-1.52,0.44
2024-12-06 12:31:37.572,17.55,458.0,0.4,0.9,-0.1,0.04,-1.22,0.44
2024-12-06 12:31:37.577,24.52,489.0,0.39,0.9,-0.1,0.04,-1.22,0.44
2024-12-06 12:31:37.582,23.62,480.0,0.39,0.9,-0.1,0.04,-0.91,0.38
2024-12-06 12:31:37.587,23.17,468.0,0.39,0.89,-0.1,0.04,-0.85,0.44
2024-12-06 12:31:37.599,25.42,468.0,0.39,0.89,-0.1,0.04,-0.85,0.38
2024-12-06 12:31:37.608,25.2,467.0,0.39,0.89,-0.1,-0.02,-0.91,0.32
2024-12-06 12:31:37.617,23.85,462.0,0.39,0.89,-0.1,0.04,-1.03,0.19
2024-12-06 12:31:37.638,22.5,462.0,0.39,0.89,-0.1,-0.02,-1.03,-0.05
2024-12-06 12:31:37.642,21.15,479.0,0.39,0.89,-0.1,0.1,-1.03,-0.11
2024-12-06 12:31:37.646,25.2,460.0,0.39,0.9,-0.1,0.22,-1.15,-0.17
2024-12-06 12:31:37.655,20.02,490.0,0.39,0.9,-0.1,0.22,-1.15,-0.17
2024-12-06 12:31:37.663,12.6,476.0,0.39,0.9,-0.1,0.28,-1.09,-0.29
2024-12-06 12:31:37.672,20.48,462.0,0.39,0.91,-0.1,0.34,-0.97,-0.42
2024-12-06 12:31:37.678,23.17,462.0,0.39,0.91,-0.11,0.4,-0.91,-0.54
2024-12-06 12:31:37.690,22.95,469.0,0.39,0.91,-0.11,0.47,-0.79,-0.72
2024-12-06 12:31:37.695,20.92,483.0,0.39,0.9,-0.11,0.53,-0.61,-0.84
2024-12-06 12:31:37.703,22.95,476.0,0.39,0.91,-0.11,0.53,-0.61,-0.84
2024-12-06 12:31:37.714,21.6,495.0,0.39,0.9,-0.11,0.59,-0.42,-0.97
2024-12-06 12:31:37.724,19.8,470.0,0.39,0.91,-0.11,0.65,-0.36,-1.03
2024-12-06 12:31:37.731,20.7,461.0,0.39,0.91,-0.11,0.71,-0.36,-1.03
2024-12-06 12:31:37.733,22.27,468.0,0.39,0.91,-0.11,0.71,-0.36,-1.03
2024-12-06 12:31:37.742,22.95,476.0,0.39,0.91,-0.11,0.65,-0.24,-0.97
2024-12-06 12:31:37.749,12.82,481.0,0.39,0.9,-0.11,0.65,-0.24,-0.97
2024-12-06 12:31:37.757,25.65,470.0,0.39,0.9,-0.1,0.65,-0.18,-0.91
2024-12-06 12:31:37.765,22.72,457.0,0.39,0.9,-0.1,0.71,-0.06,-0.84
2024-12-06 12:31:37.779,23.4,488.0,0.39,0.9,-0.1,0.71,0.07,-0.66
2024-12-06 12:31:37.782,19.57,480.0,0.39,0.9,-0.1,0.77,0.25,-0.6
2024-12-06 12:31:37.788,20.25,486.0,0.39,0.9,-0.1,0.71,0.49,-0.48
2024-12-06 12:31:37.799,20.48,487.0,0.39,0.9,-0.1,0.71,0.49,-0.48
2024-12-06 12:31:37.808,24.97,469.0,0.39,0.9,-0.1,0.71,0.8,-0.36
2024-12-06 12:31:37.816,24.97,475.0,0.4,0.9,-0.1,0.71,1.1,-0.29
2024-12-06 12:31:37.819,19.8,465.0,0.4,0.89,-0.09,0.71,1.23,-0.23
2024-12-06 12:31:37.827,23.85,482.0,0.4,0.89,-0.09,0.71,1.29,-0.17
2024-12-06 12:31:37.869,18.67,466.0,0.4,0.89,-0.1,0.59,0.74,-0.29
2024-12-06 12:31:37.874,24.07,464.0,0.4,0.9,-0.1,0.59,0.74,-0.29
2024-12-06 12:31:37.880,22.27,464.0,0.4,0.9,-0.1,0.59,0.43,-0.36
2024-12-06 12:31:37.893,23.85,476.0,0.4,0.9,-0.1,0.59,0.07,-0.42
2024-12-06 12:31:37.901,23.62,463.0,0.4,0.9,-0.1,0.47,-0.18,-0.48
2024-12-06 12:31:37.905,24.07,457.0,0.4,0.9,-0.1,0.4,-0.48,-0.6
2024-12-06 12:31:37.912,22.95,480.0,0.4,0.9,-0.1,0.34,-0.54,-0.66
2024-12-06 12:31:37.920,26.32,523.0,0.4,0.9,-0.1,0.16,-0.3,-0.72
2024-12-06 12:31:37.928,23.17,468.0,0.39,0.89,-0.11,0.16,-0.3,-0.72
2024-12-06 12:31:37.936,25.42,458.0,0.39,0.89,-0.11,0.04,-0.06,-0.78
2024-12-06 12:31:37.944,23.17,469.0,0.39,0.89,-0.11,-0.15,0.37,-0.72
2024-12-06 12:31:37.952,21.82,468.0,0.39,0.88,-0.11,-0.33,0.74,-0.66
2024-12-06 12:31:37.963,18.0,463.0,0.39,0.88,-0.11,-0.45,0.74,-0.54
2024-12-06 12:31:37.969,18.9,479.0,0.39,0.89,-0.11,-0.57,0.49,-0.36
2024-12-06 12:31:37.976,17.1,464.0,0.4,0.89,-0.1,-0.57,0.49,-0.36
2024-12-06 12:31:37.983,22.95,476.0,0.4,0.9,-0.1,-0.57,0.19,-0.23
2024-12-06 12:31:37.992,23.4,466.0,0.4,0.9,-0.1,-0.57,0.0,-0.29
2024-12-06 12:31:38.5,22.72,479.0,0.4,0.91,-0.1,-0.51,-0.12,-0.42
2024-12-06 12:31:38.12,19.12,468.0,0.4,0.91,-0.1,-0.39,-0.12,-0.6
2024-12-06 12:31:38.15,23.4,479.0,0.4,0.91,-0.1,-0.33,-0.42,-0.72
2024-12-06 12:31:38.26,24.75,470.0,0.4,0.91,-0.1,-0.33,-0.42,-0.72
2024-12-06 12:31:38.34,24.52,476.0,0.4,0.9,-0.09,-0.08,-0.61,-0.78
2024-12-06 12:31:38.41,23.17,541.0,0.4,0.9,-0.09,0.22,-0.73,-0.84
2024-12-06 12:31:38.51,21.82,469.0,0.4,0.9,-0.09,0.53,-0.79,-0.84
2024-12-06 12:31:38.85,23.17,481.0,0.39,0.91,-0.1,1.5,-0.48,-0.84
2024-12-06 12:31:38.95,22.27,463.0,0.39,0.91,-0.1,1.69,-0.12,-0.78
2024-12-06 12:31:38.113,23.85,470.0,0.39,0.91,-0.1,1.69,0.19,-0.66
2024-12-06 12:31:38.121,25.2,475.0,0.39,0.9,-0.1,1.69,0.19,-0.66
2024-12-06 12:31:38.123,25.65,470.0,0.39,0.9,-0.1,1.75,0.43,-0.54
2024-12-06 12:31:38.126,18.9,473.0,0.39,0.89,-0.11,1.69,0.43,-0.42
2024-12-06 12:31:38.132,25.88,457.0,0.39,0.89,-0.11,1.5,0.31,-0.36
2024-12-06 12:31:38.139,23.85,466.0,0.39,0.89,-0.11,1.32,0.25,-0.42
2024-12-06 12:31:38.148,19.12,460.0,0.4,0.89,-0.11,1.01,0.0,-0.42
2024-12-06 12:31:38.156,23.4,463.0,0.4,0.89,-0.11,1.01,0.0,-0.42
2024-12-06 12:31:38.163,19.12,480.0,0.41,0.89,-0.11,0.83,-0.42,-0.54
2024-12-06 12:31:38.170,25.42,465.0,0.41,0.89,-0.11,0.71,-1.03,-0.78
2024-12-06 12:31:38.181,19.57,476.0,0.41,0.89,-0.11,0.65,-1.52,-1.03
2024-12-06 12:31:38.186,22.72,468.0,0.41,0.89,-0.11,0.59,-2.13,-1.27
2024-12-06 12:31:38.199,18.45,473.0,0.41,0.89,-0.11,0.53,-2.62,-1.52
2024-12-06 12:31:38.206,26.1,482.0,0.41,0.89,-0.11,0.53,-2.62,-1.52
2024-12-06 12:31:38.228,24.3,466.0,0.4,0.88,-0.11,0.34,-2.74,-1.82
2024-12-06 12:31:38.231,20.7,471.0,0.4,0.88,-0.11,0.22,-2.74,-2.25
2024-12-06 12:31:38.235,23.17,465.0,0.4,0.88,-0.11,0.16,-2.8,-2.43
2024-12-06 12:31:38.241,19.35,459.0,0.4,0.88,-0.11,0.16,-2.8,-2.61
2024-12-06 12:31:38.248,19.35,483.0,0.39,0.88,-0.1,0.04,-2.8,-2.61
2024-12-06 12:31:38.356,20.92,464.0,0.38,0.9,-0.1,-0.76,3.36,7.46
2024-12-06 12:31:38.361,20.7,476.0,0.39,0.9,-0.09,-1.0,2.93,7.58
2024-12-06 12:31:38.370,24.52,471.0,0.4,0.9,-0.09,-1.0,1.96,8.31
2024-12-06 12:31:38.378,18.9,480.0,0.41,0.9,-0.1,-0.94,1.96,9.23
2024-12-06 12:31:38.391,23.4,461.0,0.41,0.9,-0.11,-0.76,1.71,9.96
2024-12-06 12:31:38.395,23.85,462.0,0.39,0.91,-0.11,-0.63,2.02,9.96
2024-12-06 12:31:38.404,23.4,467.0,0.38,0.91,-0.11,-0.63,2.02,9.96
2024-12-06 12:31:38.414,22.5,477.0,0.37,0.92,-0.12,-0.69,3.54,9.41
2024-12-06 12:31:38.419,20.25,452.0,0.37,0.93,-0.11,-0.63,5.19,9.1
2024-12-06 12:31:38.423,19.8,482.0,0.39,0.93,-0.11,-0.69,5.93,9.65
2024-12-06 12:31:38.432,20.48,488.0,0.39,0.93,-0.11,-0.94,6.96,10.81
2024-12-06 12:31:38.439,20.25,461.0,0.41,0.93,-0.1,-1.24,7.21,12.28
2024-12-06 12:31:38.450,20.92,468.0,0.41,0.92,-0.09,-1.24,7.21,12.28
2024-12-06 12:31:38.467,23.4,475.0,0.41,0.91,-0.1,-1.73,7.51,13.5
2024-12-06 12:31:38.471,18.67,460.0,0.41,0.9,-0.1,-2.4,7.82,14.17
2024-12-06 12:31:38.473,25.42,472.0,0.42,0.89,-0.1,-3.14,7.15,14.41
2024-12-06 12:31:38.482,23.4,462.0,0.42,0.89,-0.1,-3.81,6.11,14.6
2024-12-06 12:31:38.491,22.95,462.0,0.43,0.88,-0.1,-4.54,4.95,14.96
2024-12-06 12:31:38.495,19.57,476.0,0.44,0.87,-0.1,-4.54,4.95,14.96
2024-12-06 12:31:38.502,20.7,467.0,0.45,0.86,-0.09,-5.09,3.97,15.33
2024-12-06 12:31:38.535,22.95,465.0,0.45,0.86,-0.09,-5.58,3.06,15.57
2024-12-06 12:31:38.543,25.2,456.0,0.44,0.86,-0.08,-6.31,3.24,15.03
2024-12-06 12:31:38.548,26.32,476.0,0.45,0.86,-0.08,-6.0,3.67,15.03
2024-12-06 12:31:38.553,20.25,470.0,0.45,0.86,-0.07,-5.52,3.42,14.96
2024-12-06 12:31:38.556,23.4,461.0,0.45,0.87,-0.07,-5.15,3.79,14.72
2024-12-06 12:31:38.564,23.62,471.0,0.45,0.87,-0.07,-4.48,4.7,14.48
2024-12-06 12:31:38.577,18.9,459.0,0.46,0.88,-0.07,-4.05,5.5,14.23
2024-12-06 12:31:38.583,25.65,472.0,0.47,0.89,-0.06,-4.05,5.5,14.23
2024-12-06 12:31:38.593,20.92,469.0,0.47,0.89,-0.06,-3.81,5.19,13.87
2024-12-06 12:31:38.598,20.92,471.0,0.48,0.89,-0.07,-3.07,6.17,13.62
2024-12-06 12:31:38.604,25.42,466.0,0.49,0.89,-0.07,-2.77,5.25,13.56
2024-12-06 12:31:38.616,24.07,462.0,0.49,0.88,-0.08,-2.34,4.16,13.26
2024-12-06 12:31:38.627,23.85,471.0,0.49,0.88,-0.08,-1.92,3.97,13.01
2024-12-06 12:31:38.630,21.38,463.0,0.49,0.88,-0.08,-1.92,3.97,13.01
2024-12-06 12:31:38.636,24.3,466.0,0.49,0.88,-0.08,-1.85,2.14,12.95
2024-12-06 12:31:38.645,23.62,477.0,0.49,0.89,-0.09,-2.04,1.35,12.77
2024-12-06 12:31:38.651,24.07,478.0,0.49,0.89,-0.09,-2.34,1.53,12.58
2024-12-06 12:31:38.659,24.07,480.0,0.49,0.88,-0.09,-2.46,0.92,12.52
2024-12-06 12:31:38.667,23.4,470.0,0.49,0.88,-0.09,-2.53,0.0,12.58
2024-12-06 12:31:38.675,17.32,478.0,0.48,0.87,-0.09,-2.53,0.0,12.64
2024-12-06 12:31:38.689,23.85,478.0,0.48,0.86,-0.09,-2.53,-0.67,12.64
2024-12-06 12:31:38.699,26.1,474.0,0.48,0.86,-0.09,-2.46,-0.73,12.77
2024-12-06 12:31:38.709,23.17,482.0,0.48,0.85,-0.09,-2.46,-0.97,12.95
2024-12-06 12:31:38.715,23.62,467.0,0.48,0.85,-0.08,-2.59,-1.03,13.07
2024-12-06 12:31:38.718,25.65,474.0,0.48,0.85,-0.08,-2.65,-1.03,13.19
2024-12-06 12:31:38.722,21.6,474.0,0.48,0.85,-0.08,-2.65,-1.03,13.19
2024-12-06 12:31:38.729,20.02,464.0,0.47,0.86,-0.08,-2.65,-0.85,13.5
2024-12-06 12:31:38.762,25.88,463.0,0.47,0.84,-0.07,-1.67,-4.33,14.9
2024-12-06 12:31:38.793,24.07,476.0,0.48,0.79,-0.07,-1.24,-4.33,14.9
2024-12-06 12:31:38.797,21.6,470.0,0.51,0.79,-0.06,-0.51,-0.54,4.77
2024-12-06 12:31:38.800,24.07,477.0,0.49,0.8,-0.05,-0.51,-1.03,2.27
2024-12-06 12:31:38.805,25.88,474.0,0.48,0.8,-0.06,-0.08,-1.03,2.27
2024-12-06 12:31:38.821,26.1,470.0,0.51,0.81,-0.06,0.16,-1.34,0.01
2024-12-06 12:31:38.830,22.72,493.0,0.53,0.82,-0.05,0.47,-4.08,-1.27
2024-12-06 12:31:38.833,22.5,475.0,0.53,0.82,-0.06,0.65,-5.92,-2.55
2024-12-06 12:31:38.836,26.77,475.0,0.52,0.82,-0.06,0.53,-7.75,-4.51
2024-12-06 12:31:38.844,27.0,473.0,0.5,0.81,-0.04,0.53,-7.75,-4.51
2024-12-06 12:31:38.856,28.12,472.0,0.5,0.81,-0.05,0.59,-8.72,-6.83
2024-12-06 12:31:38.879,33.3,470.0,0.5,0.82,-0.06,1.62,-10.86,-9.57
2024-12-06 12:31:38.883,29.92,462.0,0.48,0.81,-0.08,1.62,-10.86,-9.57
2024-12-06 12:31:38.892,30.15,473.0,0.49,0.83,-0.07,1.44,-7.01,-10.37
2024-12-06 12:31:38.898,31.95,475.0,0.47,0.83,-0.03,1.01,-11.16,-10.3
2024-12-06 12:31:38.921,34.88,483.0,0.47,0.82,-0.08,1.38,-9.82,-10.79
2024-12-06 12:31:38.931,34.2,475.0,0.48,0.83,-0.09,0.77,-7.93,-10.73
2024-12-06 12:31:38.937,30.6,484.0,0.49,0.85,-0.07,0.77,-7.93,-10.73
2024-12-06 12:31:38.941,37.58,475.0,0.5,0.86,-0.1,0.4,-7.2,-9.57
2024-12-06 12:31:38.949,33.97,478.0,0.48,0.86,-0.09,-0.15,-6.71,-8.78
2024-12-06 12:31:38.957,35.55,476.0,0.48,0.86,-0.1,-0.45,-6.1,-8.66
2024-12-06 12:31:38.985,39.83,479.0,0.51,0.85,-0.1,-1.61,-5.06,-7.13
2024-12-06 12:31:38.990,42.75,485.0,0.5,0.86,-0.09,-1.85,-6.59,-6.22
2024-12-06 12:31:38.998,40.05,478.0,0.5,0.86,-0.09,-1.43,-5.37,-6.03
2024-12-06 12:31:39.5,43.2,485.0,0.49,0.87,-0.13,-2.04,-2.8,-5.48
2024-12-06 12:31:39.15,42.97,479.0,0.5,0.89,-0.09,-2.04,-2.8,-5.48
2024-12-06 12:31:39.23,39.38,491.0,0.5,0.9,-0.07,-2.1,-7.75,-4.57
2024-12-06 12:31:39.33,45.22,486.0,0.49,0.88,-0.12,-1.85,-4.51,-4.2
2024-12-06 12:31:39.39,45.9,469.0,0.48,0.87,-0.08,-2.04,-4.33,-4.32
2024-12-06 12:31:39.46,47.02,484.0,0.48,0.87,-0.08,-1.98,-7.01,-4.2
2024-12-06 12:31:39.58,50.17,484.0,0.49,0.86,-0.08,-2.04,-4.82,-4.02
2024-12-06 12:31:39.73,46.35,472.0,0.49,0.86,-0.11,-2.04,-4.82,-4.02
2024-12-06 12:31:39.79,49.05,468.0,0.49,0.88,-0.1,-1.55,-2.86,-3.59
2024-12-06 12:31:39.87,47.47,494.0,0.47,0.89,-0.09,-1.12,-3.47,-2.49
2024-12-06 12:31:39.94,50.85,468.0,0.47,0.89,-0.09,-0.45,-2.62,-2.61
2024-12-06 12:31:39.100,52.2,481.0,0.45,0.87,-0.1,-0.88,0.98,-2.92
2024-12-06 12:31:39.108,49.05,481.0,0.47,0.88,-0.1,-0.88,0.98,-2.92
2024-12-06 12:31:39.116,50.85,486.0,0.48,0.88,-0.09,-0.57,0.19,-1.94
2024-12-06 12:31:39.130,50.85,468.0,0.47,0.86,-0.1,-0.02,-0.36,-1.45
2024-12-06 12:31:39.146,55.12,468.0,0.47,0.85,-0.1,-0.08,1.53,-0.84
2024-12-06 12:31:39.152,52.2,485.0,0.48,0.85,-0.09,-0.08,0.49,-0.23
2024-12-06 12:31:39.156,51.52,463.0,0.47,0.85,-0.1,0.22,0.49,-0.23
2024-12-06 12:31:39.163,54.45,474.0,0.48,0.87,-0.1,0.04,1.16,0.32
2024-12-06 12:31:39.170,55.8,469.0,0.48,0.89,-0.09,-0.27,1.1,1.41
2024-12-06 12:31:39.180,58.95,488.0,0.46,0.87,-0.09,-0.15,0.07,2.21
2024-12-06 12:31:39.226,59.17,477.0,0.46,0.87,-0.09,-0.33,1.47,1.72
2024-12-06 12:31:39.228,59.17,462.0,0.48,0.88,-0.08,-0.45,3.0,3.61
2024-12-06 12:31:39.236,58.5,482.0,0.47,0.87,-0.09,-0.45,3.0,3.61
2024-12-06 12:31:39.247,61.2,471.0,0.48,0.86,-0.08,-0.63,5.31,3.37
2024-12-06 12:31:39.250,64.35,485.0,0.49,0.87,-0.08,-0.57,5.86,3.73
2024-12-06 12:31:39.255,62.1,489.0,0.48,0.86,-0.08,-0.39,5.25,4.1
2024-12-06 12:31:39.269,60.97,470.0,0.48,0.86,-0.08,-0.27,5.62,3.92
2024-12-06 12:31:39.271,63.22,487.0,0.48,0.84,-0.08,-0.33,6.72,3.61
2024-12-06 12:31:39.278,60.97,479.0,0.49,0.84,-0.08,-0.33,6.72,3.61
2024-12-06 12:31:39.289,61.42,473.0,0.5,0.86,-0.08,-0.21,6.96,3.92
2024-12-06 12:31:39.293,61.88,476.0,0.49,0.86,-0.09,-0.02,6.47,4.34
2024-12-06 12:31:39.302,66.15,478.0,0.49,0.85,-0.08,0.22,6.23,4.22
2024-12-06 12:31:39.408,70.88,495.0,0.49,0.83,-0.06,1.5,5.62,3.43
2024-12-06 12:31:39.411,72.0,490.0,0.51,0.84,-0.06,1.62,6.11,3.25
2024-12-06 12:31:39.415,66.82,472.0,0.51,0.85,-0.07,1.69,5.68,3.49
2024-12-06 12:31:39.455,71.32,485.0,0.51,0.86,-0.07,1.99,4.95,4.04
2024-12-06 12:31:39.461,76.05,494.0,0.51,0.86,-0.07,1.81,5.25,3.98
2024-12-06 12:31:39.469,74.92,477.0,0.5,0.84,-0.07,1.87,5.99,3.67
2024-12-06 12:31:39.476,71.32,464.0,0.51,0.83,-0.06,1.87,5.99,3.67
2024-12-06 12:31:39.492,77.4,469.0,0.53,0.83,-0.07,1.93,6.17,3.86
2024-12-06 12:31:39.495,77.62,476.0,0.52,0.85,-0.08,1.99,5.44,4.47
2024-12-06 12:31:39.499,77.85,487.0,0.51,0.84,-0.08,2.05,5.38,4.89
2024-12-06 12:31:39.507,76.95,473.0,0.51,0.84,-0.08,2.24,5.8,4.95
2024-12-06 12:31:39.515,78.07,466.0,0.51,0.83,-0.07,2.24,5.8,5.2
2024-12-06 12:31:39.526,80.1,466.0,0.52,0.84,-0.07,2.42,6.05,5.2
2024-12-06 12:31:39.540,78.53,475.0,0.52,0.86,-0.07,2.36,5.44,5.81
2024-12-06 12:31:39.544,75.38,472.0,0.52,0.86,-0.07,2.17,4.83,6.18
2024-12-06 12:31:39.548,81.0,473.0,0.51,0.85,-0.07,2.11,4.89,6.18
2024-12-06 12:31:39.554,81.9,475.0,0.51,0.85,-0.07,1.93,4.89,5.93
2024-12-06 12:31:39.563,75.38,474.0,0.53,0.84,-0.07,1.75,4.58,6.24
2024-12-06 12:31:39.580,81.22,482.0,0.54,0.85,-0.07,1.75,4.58,6.24
2024-12-06 12:31:39.586,78.53,465.0,0.54,0.87,-0.07,1.56,3.48,6.91
2024-12-06 12:31:39.597,80.55,486.0,0.52,0.84,-0.07,1.38,3.3,7.52
2024-12-06 12:31:39.601,82.8,481.0,0.52,0.84,-0.07,1.5,3.54,7.58
2024-12-06 12:31:39.610,79.65,475.0,0.53,0.82,-0.06,1.5,3.54,7.58
2024-12-06 12:31:39.618,82.8,472.0,0.54,0.83,-0.07,1.38,3.42,7.88
2024-12-06 12:31:39.629,79.65,492.0,0.53,0.84,-0.07,1.32,3.36,8.43
2024-12-06 12:31:39.639,79.65,479.0,0.53,0.84,-0.06,1.32,3.97,9.04
2024-12-06 12:31:39.642,83.7,471.0,0.53,0.84,-0.06,1.69,4.4,9.72
2024-12-06 12:31:39.675,81.9,495.0,0.54,0.84,-0.07,2.54,4.52,11.73
2024-12-06 12:31:39.677,84.38,487.0,0.54,0.84,-0.07,2.78,3.97,13.07
2024-12-06 12:31:39.686,83.47,471.0,0.54,0.85,-0.06,3.03,3.54,13.99
2024-12-06 12:31:39.693,86.17,484.0,0.54,0.84,-0.06,3.03,3.54,13.99
2024-12-06 12:31:39.705,86.4,472.0,0.55,0.83,-0.07,3.27,3.18,14.29
2024-12-06 12:31:39.715,86.62,483.0,0.56,0.83,-0.07,3.58,2.51,14.54
2024-12-06 12:31:39.718,89.77,492.0,0.55,0.85,-0.08,3.76,2.39,14.96
2024-12-06 12:31:39.731,83.03,486.0,0.55,0.85,-0.07,4.07,1.84,15.51
2024-12-06 12:31:39.738,81.9,482.0,0.55,0.85,-0.07,4.25,0.98,15.45
2024-12-06 12:31:39.741,85.05,475.0,0.57,0.82,-0.07,4.25,0.98,15.45
2024-12-06 12:31:39.751,87.75,473.0,0.59,0.8,-0.07,4.19,0.25,14.66
2024-12-06 12:31:39.756,85.95,477.0,0.6,0.82,-0.07,3.94,0.0,14.05
2024-12-06 12:31:39.764,88.65,471.0,0.57,0.85,-0.08,3.58,-0.54,14.05
2024-12-06 12:31:39.773,85.28,474.0,0.57,0.85,-0.08,3.09,-0.3,14.6
2024-12-06 12:31:39.785,86.4,484.0,0.54,0.88,-0.09,2.91,-0.3,15.39
2024-12-06 12:31:39.788,90.45,481.0,0.53,0.86,-0.09,2.91,-0.3,15.39
2024-12-06 12:31:39.797,89.1,480.0,0.55,0.82,-0.08,2.6,-0.24,15.82
2024-12-06 12:31:39.805,88.65,480.0,0.57,0.79,-0.08,2.36,-0.36,16.0
2024-12-06 12:31:39.813,89.32,482.0,0.57,0.79,-0.07,2.17,-1.28,16.12
2024-12-06 12:31:39.820,91.8,488.0,0.57,0.79,-0.07,1.69,-1.4,16.31
2024-12-06 12:31:39.830,87.75,481.0,0.56,0.79,-0.07,1.32,-1.4,16.67
2024-12-06 12:31:39.835,90.67,485.0,0.55,0.81,-0.07,1.32,-1.4,16.67
2024-12-06 12:31:39.843,92.02,503.0,0.55,0.81,-0.07,1.14,-1.52,17.1
2024-12-06 12:31:39.851,90.0,486.0,0.56,0.8,-0.07,1.01,-1.77,17.34
2024-12-06 12:31:39.862,88.2,515.0,0.57,0.79,-0.07,0.95,-1.7,17.28
2024-12-06 12:31:39.873,90.67,477.0,0.57,0.78,-0.06,1.2,-1.34,17.04
2024-12-06 12:31:39.892,85.28,490.0,0.57,0.78,-0.06,1.44,-0.54,16.37
2024-12-06 12:31:39.895,90.67,511.0,0.59,0.77,-0.05,1.69,0.37,15.33
2024-12-06 12:31:39.929,93.15,477.0,0.59,0.78,-0.05,2.54,0.8,12.52
2024-12-06 12:31:39.933,94.05,496.0,0.6,0.77,-0.05,2.54,0.74,11.55
2024-12-06 12:31:39.939,86.85,491.0,0.6,0.76,-0.05,2.42,0.49,10.57
2024-12-06 12:31:39.946,88.42,478.0,0.6,0.76,-0.05,2.36,0.37,9.59
2024-12-06 12:31:39.955,94.05,491.0,0.6,0.76,-0.05,2.36,0.13,8.62
2024-12-06 12:31:39.964,90.67,499.0,0.6,0.75,-0.05,2.42,-0.06,7.58
2024-12-06 12:31:39.973,95.17,493.0,0.6,0.75,-0.06,2.42,-0.06,7.58
2024-12-06 12:31:39.979,93.15,470.0,0.59,0.75,-0.06,2.42,-0.42,6.54
2024-12-06 12:31:39.984,94.95,483.0,0.59,0.75,-0.05,2.42,-0.36,5.26
2024-12-06 12:31:39.992,96.3,493.0,0.58,0.76,-0.05,2.36,-0.73,4.1
2024-12-06 12:31:40.0,92.92,483.0,0.58,0.77,-0.06,2.24,-0.79,2.94
2024-12-06 12:31:40.10,90.45,482.0,0.58,0.77,-0.06,2.24,-1.34,1.72
2024-12-06 12:31:40.14,90.0,478.0,0.57,0.76,-0.06,2.24,-1.34,1.72
2024-12-06 12:31:40.23,94.72,467.0,0.57,0.76,-0.06,2.17,-1.52,0.44
2024-12-06 12:31:40.35,93.15,484.0,0.58,0.75,-0.06,1.99,-2.68,-0.66
2024-12-06 12:31:40.41,92.02,489.0,0.58,0.74,-0.07,1.62,-1.64,-1.88
2024-12-06 12:31:40.48,94.05,485.0,0.58,0.74,-0.06,1.14,-1.28,-2.92
2024-12-06 12:31:40.58,92.25,501.0,0.58,0.74,-0.06,0.77,-0.79,-3.47
2024-12-06 12:31:40.62,96.75,484.0,0.58,0.76,-0.07,0.77,-0.79,-3.47
2024-12-06 12:31:40.74,95.62,471.0,0.56,0.79,-0.07,0.16,0.0,-3.59
2024-12-06 12:31:40.88,94.05,481.0,0.56,0.76,-0.06,-0.02,1.04,-4.02
2024-12-06 12:31:40.143,93.6,470.0,0.62,0.74,-0.08,-1.61,1.35,-6.89
2024-12-06 12:31:40.147,91.57,468.0,0.62,0.75,-0.07,-1.3,0.68,-7.25
2024-12-06 12:31:40.153,93.6,462.0,0.62,0.76,-0.07,-0.88,0.25,-7.5
2024-12-06 12:31:40.161,93.82,471.0,0.62,0.77,-0.07,-0.45,0.25,-7.62
2024-12-06 12:31:40.173,95.85,483.0,0.66,0.78,-0.07,-0.02,0.37,-7.5
2024-12-06 12:31:40.179,93.82,468.0,0.63,0.78,-0.07,0.59,0.13,-7.13
2024-12-06 12:31:40.189,94.27,476.0,0.63,0.79,-0.08,0.59,0.13,-7.13
2024-12-06 12:31:40.192,92.02,489.0,0.63,0.79,-0.08,1.08,-0.42,-6.52
2024-12-06 12:31:40.202,83.7,479.0,0.63,0.8,-0.08,1.38,-0.85,-5.97
2024-12-06 12:31:40.208,96.52,470.0,0.62,0.79,-0.08,1.56,-1.03,-5.67
2024-12-06 12:31:40.220,96.75,483.0,0.62,0.79,-0.08,1.5,-0.85,-5.42
2024-12-06 12:31:40.224,94.5,480.0,0.62,0.79,-0.08,1.38,-0.42,-5.24
2024-12-06 12:31:40.231,91.35,477.0,0.62,0.78,-0.09,1.38,-0.42,-5.24
2024-12-06 12:31:40.239,90.67,472.0,0.63,0.77,-0.09,1.38,0.13,-5.12
2024-12-06 12:31:40.257,93.82,487.0,0.62,0.76,-0.11,1.69,-0.06,-4.69
2024-12-06 12:31:40.264,96.07,487.0,0.62,0.76,-0.11,1.87,0.37,-4.51
2024-12-06 12:31:40.270,90.0,487.0,0.62,0.76,-0.11,1.99,0.86,-4.45
2024-12-06 12:31:40.286,92.02,476.0,0.61,0.77,-0.1,1.99,0.86,-4.45
2024-12-06 12:31:40.288,94.95,480.0,0.6,0.78,-0.09,1.99,0.68,-4.38
2024-12-06 12:31:40.294,90.0,501.0,0.59,0.79,-0.08,1.93,-0.61,-4.38
2024-12-06 12:31:40.303,92.02,482.0,0.59,0.79,-0.07,1.93,-2.56,-4.32
2024-12-06 12:31:40.308,96.52,487.0,0.59,0.8,-0.07,1.81,-3.41,-4.45
2024-12-06 12:31:40.341,90.22,502.0,0.59,0.8,-0.09,1.75,-1.7,-4.99
2024-12-06 12:31:40.355,89.77,498.0,0.59,0.8,-0.09,1.93,-0.79,-4.63
2024-12-06 12:31:40.448,95.4,498.0,0.59,0.79,-0.08,1.01,-1.83,-3.9
2024-12-06 12:31:40.451,97.65,492.0,0.59,0.79,-0.08,0.4,-2.31,-3.9
2024-12-06 12:31:40.460,93.82,503.0,0.59,0.79,-0.08,-0.02,-2.56,-3.83
2024-12-06 12:31:40.469,91.12,507.0,0.59,0.79,-0.08,-0.02,-2.56,-3.83
2024-12-06 12:31:40.482,95.17,530.0,0.58,0.79,-0.09,-0.45,-2.62,-3.77
2024-12-06 12:31:40.488,89.77,503.0,0.57,0.79,-0.09,-0.57,-2.19,-3.71
2024-12-06 12:31:40.493,90.67,501.0,0.57,0.79,-0.09,-0.39,-2.19,-3.59
2024-12-06 12:31:40.498,94.27,514.0,0.57,0.79,-0.09,-0.15,-2.19,-3.35
2024-12-06 12:31:40.510,95.4,521.0,0.57,0.8,-0.09,0.1,-1.64,-3.1
2024-12-06 12:31:40.517,92.02,507.0,0.57,0.8,-0.09,0.1,-1.64,-3.1
2024-12-06 12:31:40.525,94.95,515.0,0.57,0.8,-0.09,0.28,-1.34,-2.8
2024-12-06 12:31:40.529,95.17,511.0,0.57,0.79,-0.08,0.28,-1.64,-2.68
2024-12-06 12:31:40.539,94.5,523.0,0.57,0.78,-0.08,0.1,-2.07,-2.74
2024-12-06 12:31:40.573,91.12,510.0,0.58,0.78,-0.08,-0.82,-1.95,-2.43
2024-12-06 12:31:40.575,91.35,511.0,0.58,0.79,-0.08,-1.0,-2.13,-2.43
2024-12-06 12:31:40.587,96.52,505.0,0.58,0.79,-0.08,-1.12,-1.95,-2.55
2024-12-06 12:31:40.592,94.5,522.0,0.57,0.79,-0.08,-1.12,-1.83,-2.61
2024-12-06 12:31:40.603,93.38,511.0,0.57,0.8,-0.08,-1.12,-1.83,-2.61
2024-12-06 12:31:40.608,91.35,509.0,0.57,0.8,-0.08,-1.12,-1.7,-2.68
2024-12-06 12:31:40.615,94.5,510.0,0.57,0.8,-0.09,-1.06,-1.77,-2.8
2024-12-06 12:31:40.625,93.82,523.0,0.58,0.8,-0.09,-0.94,-2.01,-2.92
2024-12-06 12:31:40.635,94.05,504.0,0.58,0.8,-0.09,-0.94,-2.13,-2.74
2024-12-06 12:31:40.640,91.35,509.0,0.58,0.8,-0.09,-0.94,-2.38,-2.74
2024-12-06 12:31:40.647,90.9,518.0,0.57,0.81,-0.09,-0.94,-2.38,-2.74
2024-12-06 12:31:40.655,90.22,525.0,0.57,0.81,-0.1,-0.94,-2.31,-2.74
2024-12-06 12:31:40.662,91.12,495.0,0.57,0.81,-0.1,-1.0,-2.19,-2.68
2024-12-06 12:31:40.675,91.8,505.0,0.56,0.8,-0.1,-0.94,-2.31,-2.68
2024-12-06 12:31:40.684,90.67,515.0,0.56,0.8,-0.1,-1.0,-2.31,-2.68
2024-12-06 12:31:40.686,96.07,522.0,0.56,0.81,-0.1,-1.18,-2.13,-2.49
2024-12-06 12:31:40.696,95.85,510.0,0.57,0.81,-0.1,-1.18,-2.13,-2.49
2024-12-06 12:31:40.703,88.88,528.0,0.57,0.81,-0.09,-1.24,-1.95,-2.13
2024-12-06 12:31:40.716,91.57,516.0,0.57,0.81,-0.1,-1.18,-1.83,-1.82
2024-12-06 12:31:40.718,96.3,519.0,0.58,0.81,-0.1,-1.12,-1.46,-1.64
2024-12-06 12:31:40.729,94.5,513.0,0.58,0.8,-0.1,-1.12,-1.28,-1.52
2024-12-06 12:31:40.735,88.88,515.0,0.58,0.8,-0.1,-1.06,-1.28,-1.33
2024-12-06 12:31:40.743,95.62,509.0,0.58,0.8,-0.09,-1.06,-1.28,-1.33
2024-12-06 12:31:40.749,90.45,505.0,0.58,0.8,-0.09,-0.94,-1.22,-1.21
2024-12-06 12:31:40.757,91.8,517.0,0.58,0.8,-0.09,-0.76,-1.03,-1.09
2024-12-06 12:31:40.794,94.5,512.0,0.58,0.8,-0.09,-0.57,-1.03,-0.78
2024-12-06 12:31:40.802,91.57,508.0,0.57,0.8,-0.09,0.28,0.37,-0.29
2024-12-06 12:31:40.805,96.3,509.0,0.57,0.8,-0.09,0.47,0.8,-0.11
2024-12-06 12:31:40.819,96.75,525.0,0.57,0.8,-0.09,0.59,0.92,-0.05
2024-12-06 12:31:40.828,93.82,514.0,0.57,0.8,-0.09,0.65,0.92,-0.11
2024-12-06 12:31:40.830,95.17,510.0,0.57,0.81,-0.09,0.65,0.92,-0.11
2024-12-06 12:31:40.833,91.8,531.0,0.57,0.8,-0.09,0.59,0.98,-0.23
2024-12-06 12:31:40.840,90.0,519.0,0.57,0.8,-0.1,0.59,0.92,-0.42
2024-12-06 12:31:40.848,91.57,527.0,0.57,0.8,-0.1,0.53,0.86,-0.6
2024-12-06 12:31:40.860,95.62,512.0,0.57,0.8,-0.1,0.59,0.8,-0.84
2024-12-06 12:31:40.865,93.82,523.0,0.57,0.79,-0.1,0.59,0.8,-0.84
2024-12-06 12:31:40.877,93.38,509.0,0.57,0.79,-0.09,0.71,0.8,-1.03
2024-12-06 12:31:40.883,96.52,518.0,0.57,0.79,-0.09,0.83,0.86,-1.15
2024-12-06 12:31:40.888,90.45,505.0,0.57,0.79,-0.09,0.89,1.04,-1.33
2024-12-06 12:31:40.901,95.62,530.0,0.57,0.79,-0.08,0.95,1.29,-1.45
2024-12-06 12:31:40.903,94.5,500.0,0.57,0.79,-0.08,0.95,1.59,-1.45
2024-12-06 12:31:40.911,94.5,511.0,0.57,0.79,-0.08,0.95,1.59,-1.45
2024-12-06 12:31:40.928,93.15,509.0,0.57,0.79,-0.08,0.89,1.77,-1.39
2024-12-06 12:31:40.932,92.92,522.0,0.57,0.79,-0.08,0.89,1.9,-1.39
2024-12-06 12:31:40.938,96.52,514.0,0.57,0.8,-0.09,0.83,1.9,-1.33
2024-12-06 12:31:40.942,90.22,514.0,0.57,0.8,-0.09,0.77,1.84,-1.27
2024-12-06 12:31:40.950,94.27,507.0,0.58,0.8,-0.09,0.65,1.65,-1.27
2024-12-06 12:31:40.958,96.75,562.0,0.57,0.8,-0.09,0.65,1.65,-1.27
2024-12-06 12:31:40.966,94.72,518.0,0.57,0.8,-0.09,0.53,1.47,-1.33
2024-12-06 12:31:40.974,92.02,523.0,0.57,0.8,-0.09,0.4,1.23,-1.39
2024-12-06 12:31:40.982,96.52,510.0,0.57,0.8,-0.09,0.28,0.98,-1.52
2024-12-06 12:31:40.990,92.92,504.0,0.57,0.8,-0.09,0.1,0.74,-1.64
2024-12-06 12:31:41.21,92.92,516.0,0.57,0.8,-0.08,-0.08,0.19,-1.94
2024-12-06 12:31:41.27,96.3,523.0,0.57,0.8,-0.08,-0.08,0.13,-2.06
2024-12-06 12:31:41.29,90.22,511.0,0.57,0.8,-0.08,-0.08,0.13,-2.19
2024-12-06 12:31:41.36,92.92,512.0,0.57,0.8,-0.08,-0.02,0.0,-2.25
2024-12-06 12:31:41.44,94.27,523.0,0.57,0.8,-0.08,-0.02,0.0,-2.25
2024-12-06 12:31:41.51,96.97,529.0,0.57,0.8,-0.08,-0.02,0.0,-2.37
2024-12-06 12:31:41.62,93.15,502.0,0.57,0.79,-0.09,-0.02,0.07,-2.43
2024-12-06 12:31:41.77,89.32,532.0,0.58,0.79,-0.09,-0.08,-0.12,-2.43
2024-12-06 12:31:41.84,94.05,515.0,0.58,0.8,-0.09,-0.08,-15.74,-2.43
2024-12-06 12:31:41.91,94.95,524.0,0.58,0.8,-0.09,-0.21,-0.3,-2.43
2024-12-06 12:31:41.102,94.27,512.0,0.58,0.8,-0.09,-0.33,-0.48,-2.31
2024-12-06 12:31:41.105,96.07,514.0,0.58,0.8,-0.09,-0.39,-0.61,-2.19
2024-12-06 12:31:41.113,94.27,510.0,0.58,0.8,-0.09,-0.39,-0.79,-2.06
2024-12-06 12:31:41.122,93.82,522.0,0.58,0.8,-0.09,-0.33,-0.79,-2.0
2024-12-06 12:31:41.129,92.7,525.0,0.58,0.8,-0.09,-0.33,-0.73,-1.94
2024-12-06 12:31:41.139,94.72,524.0,0.57,0.79,-0.08,-0.33,-0.73,-1.94
2024-12-06 12:31:41.150,91.8,507.0,0.57,0.79,-0.08,-0.27,-0.79,-2.0
2024-12-06 12:31:41.152,94.27,499.0,0.57,0.79,-0.08,-0.33,-0.73,-2.19
2024-12-06 12:31:41.161,94.27,536.0,0.57,0.8,-0.08,-0.45,-0.61,-2.37
2024-12-06 12:31:41.168,89.1,514.0,0.57,0.8,-0.08,-0.57,-0.48,-2.61
2024-12-06 12:31:41.177,96.3,515.0,0.57,0.8,-0.08,-0.63,-0.48,-2.8
2024-12-06 12:31:41.185,96.52,514.0,0.57,0.8,-0.08,-0.63,-0.48,-2.8
2024-12-06 12:31:41.197,94.05,510.0,0.57,0.81,-0.09,-0.76,-0.42,-2.92
2024-12-06 12:31:41.200,94.95,518.0,0.57,0.81,-0.09,-0.82,-0.42,-2.98
2024-12-06 12:31:41.208,96.52,521.0,0.57,0.8,-0.09,-0.94,-0.42,-2.92
2024-12-06 12:31:41.217,93.6,512.0,0.57,0.8,-0.09,-1.0,-0.42,-2.86
2024-12-06 12:31:41.246,94.72,512.0,0.57,0.8,-0.09,-1.12,-0.54,-2.49
2024-12-06 12:31:41.249,93.6,512.0,0.57,0.8,-0.09,-1.12,-0.48,-2.31
2024-12-06 12:31:41.254,92.25,492.0,0.57,0.8,-0.09,-1.0,-0.48,-2.13
2024-12-06 12:31:41.263,90.45,506.0,0.57,0.8,-0.09,-0.88,-0.54,-2.06
2024-12-06 12:31:41.270,93.6,516.0,0.57,0.8,-0.09,-0.88,-0.54,-2.06
2024-12-06 12:31:41.283,93.6,518.0,0.57,0.81,-0.09,-0.76,-0.36,-2.06
2024-12-06 12:31:41.290,96.97,521.0,0.57,0.81,-0.09,-0.63,-0.24,-2.13
2024-12-06 12:31:41.293,92.7,526.0,0.57,0.81,-0.09,-0.51,-0.24,-2.19
2024-12-06 12:31:41.305,94.27,513.0,0.57,0.81,-0.09,-0.51,-0.36,-2.25
2024-12-06 12:31:41.314,90.22,511.0,0.57,0.81,-0.09,-0.51,-0.54,-2.31
2024-12-06 12:31:41.316,98.32,512.0,0.57,0.8,-0.09,-0.51,-0.54,-2.31
2024-12-06 12:31:41.324,96.97,499.0,0.57,0.8,-0.09,-0.69,-0.67,-2.19
2024-12-06 12:31:41.333,94.5,531.0,0.57,0.81,-0.08,-0.94,-0.48,-2.0
2024-12-06 12:31:41.340,90.45,514.0,0.57,0.81,-0.08,-1.18,0.0,-1.76
2024-12-06 12:31:41.350,94.05,521.0,0.57,0.81,-0.08,-1.37,0.37,-1.33
2024-12-06 12:31:41.361,92.25,504.0,0.57,0.81,-0.08,-1.37,0.49,-0.84
2024-12-06 12:31:41.365,94.27,506.0,0.57,0.81,-0.08,-1.37,0.49,-0.84
2024-12-06 12:31:41.372,93.38,501.0,0.57,0.82,-0.08,-1.3,0.92,-0.29
2024-12-06 12:31:41.381,90.9,513.0,0.57,0.82,-0.09,-1.06,1.35,0.25
2024-12-06 12:31:41.388,91.57,501.0,0.58,0.82,-0.09,-0.69,1.53,0.74
2024-12-06 12:31:41.395,95.85,511.0,0.58,0.82,-0.09,-0.39,1.47,1.11
2024-12-06 12:31:41.495,96.07,507.0,0.53,0.81,-0.08,-1.0,1.9,-1.21
2024-12-06 12:31:41.500,94.5,494.0,0.53,0.81,-0.08,-0.82,2.08,-1.52
2024-12-06 12:31:41.509,95.62,501.0,0.53,0.81,-0.08,-0.82,2.26,-1.88
2024-12-06 12:31:41.521,93.82,516.0,0.52,0.81,-0.07,-0.82,1.96,-2.31
2024-12-06 12:31:41.529,92.25,506.0,0.52,0.81,-0.07,-1.12,1.96,-2.31
2024-12-06 12:31:41.531,90.45,511.0,0.52,0.81,-0.08,-1.37,2.63,-2.86
2024-12-06 12:31:41.540,91.12,502.0,0.52,0.81,-0.08,-1.49,3.3,-3.29
2024-12-06 12:31:41.547,94.27,517.0,0.53,0.81,-0.09,-1.12,3.61,-3.59
2024-12-06 12:31:41.562,94.05,503.0,0.53,0.81,-0.09,-0.69,3.91,-3.71
2024-12-06 12:31:41.566,93.82,500.0,0.55,0.8,-0.1,-0.69,3.67,-3.71
2024-12-06 12:31:41.573,91.12,500.0,0.56,0.8,-0.09,-0.21,3.67,-3.71
2024-12-06 12:31:41.583,94.5,521.0,0.57,0.79,-0.09,0.28,3.48,-3.71
2024-12-06 12:31:41.587,92.47,546.0,0.57,0.79,-0.09,0.59,3.24,-3.77
2024-12-06 12:31:41.594,96.75,500.0,0.57,0.79,-0.08,0.71,3.0,-3.96
2024-12-06 12:31:41.603,96.97,513.0,0.57,0.79,-0.08,0.71,3.0,-4.14
2024-12-06 12:31:41.611,93.38,515.0,0.57,0.79,-0.07,0.71,3.0,-4.14
2024-12-06 12:31:41.620,92.25,506.0,0.58,0.78,-0.06,0.65,2.75,-4.26
2024-12-06 12:31:41.634,83.92,488.0,0.58,0.78,-0.05,0.59,2.75,-4.2
2024-12-06 12:31:41.639,94.72,507.0,0.58,0.78,-0.05,0.47,3.12,-4.08
2024-12-06 12:31:41.641,91.12,559.0,0.58,0.78,-0.05,0.47,3.3,-3.77
2024-12-06 12:31:41.649,93.6,510.0,0.58,0.79,-0.05,0.65,3.42,-3.47
2024-12-06 12:31:41.656,90.0,503.0,0.58,0.8,-0.06,0.65,3.42,-3.47
2024-12-06 12:31:41.665,91.12,495.0,0.58,0.81,-0.07,0.83,3.54,-3.16
2024-12-06 12:31:41.672,94.05,504.0,0.58,0.82,-0.07,0.95,3.48,-2.86
2024-12-06 12:31:41.730,93.38,494.0,0.57,0.83,-0.08,-0.08,0.8,-2.13
2024-12-06 12:31:41.733,95.4,510.0,0.57,0.82,-0.08,-0.08,0.8,-2.13
2024-12-06 12:31:41.743,91.12,510.0,0.57,0.82,-0.08,-0.08,0.43,-1.94
2024-12-06 12:31:41.750,89.1,491.0,0.57,0.81,-0.08,0.16,0.13,-1.64
2024-12-06 12:31:41.757,93.38,503.0,0.57,0.8,-0.08,0.4,0.0,-1.39
2024-12-06 12:31:41.764,91.8,510.0,0.57,0.8,-0.07,0.59,-0.06,-1.27
2024-12-06 12:31:41.772,94.27,496.0,0.57,0.8,-0.07,0.65,-0.06,-1.21
2024-12-06 12:31:41.787,93.82,502.0,0.57,0.79,-0.07,0.65,-0.12,-1.27
2024-12-06 12:31:41.793,93.38,489.0,0.57,0.79,-0.07,0.65,-0.12,-1.27
2024-12-06 12:31:41.797,96.52,504.0,0.56,0.8,-0.07,0.65,-0.12,-1.39
2024-12-06 12:31:41.803,91.8,490.0,0.56,0.8,-0.07,0.53,-0.24,-1.58
2024-12-06 12:31:41.826,94.72,498.0,0.56,0.81,-0.07,0.4,-0.18,-1.82
2024-12-06 12:31:41.828,94.72,507.0,0.55,0.81,-0.07,0.34,-0.18,-2.13
2024-12-06 12:31:41.835,94.05,512.0,0.55,0.8,-0.07,0.22,-0.24,-2.43
2024-12-06 12:31:41.843,94.05,515.0,0.54,0.8,-0.07,0.04,-0.24,-2.86
2024-12-06 12:31:41.856,94.05,496.0,0.54,0.8,-0.07,-0.15,-0.18,-3.35
2024-12-06 12:31:41.859,93.15,493.0,0.54,0.8,-0.07,-0.45,0.07,-3.96
2024-12-06 12:31:41.864,95.4,499.0,0.53,0.81,-0.07,-0.45,0.07,-3.96
2024-12-06 12:31:41.874,92.02,499.0,0.52,0.82,-0.07,-0.69,0.43,-4.63
2024-12-06 12:31:41.884,93.6,498.0,0.52,0.82,-0.06,-0.88,0.8,-5.24
2024-12-06 12:31:41.985,95.17,499.0,0.54,0.81,-0.07,0.28,3.42,-10.91
2024-12-06 12:31:41.996,90.22,532.0,0.54,0.8,-0.07,0.22,3.67,-11.46
2024-12-06 12:31:42.7,92.7,497.0,0.55,0.81,-0.07,-0.02,3.73,-12.07
2024-12-06 12:31:42.11,93.82,510.0,0.55,0.81,-0.07,-0.27,4.03,-12.68
2024-12-06 12:31:42.16,95.17,531.0,0.55,0.81,-0.07,-0.51,4.28,-13.6
2024-12-06 12:31:42.27,94.5,491.0,0.55,0.8,-0.06,-0.51,4.28,-13.6
2024-12-06 12:31:42.38,91.57,501.0,0.56,0.81,-0.06,-0.76,4.16,-14.64
2024-12-06 12:31:42.47,91.12,491.0,0.56,0.81,-0.07,-0.94,4.09,-15.43
2024-12-06 12:31:42.49,91.12,491.0,0.55,0.82,-0.06,-0.88,3.79,-15.86
2024-12-06 12:31:42.61,92.92,484.0,0.55,0.82,-0.07,-0.76,3.48,-16.22
2024-12-06 12:31:42.68,91.35,480.0,0.55,0.82,-0.07,-0.51,3.61,-16.65
2024-12-06 12:31:42.76,92.47,485.0,0.54,0.82,-0.07,-0.51,3.61,-16.65
2024-12-06 12:31:42.86,94.05,477.0,0.53,0.82,-0.07,0.04,3.54,-17.08
2024-12-06 12:31:42.88,93.38,484.0,0.52,0.82,-0.07,0.65,3.73,-17.63
2024-12-06 12:31:42.99,93.82,507.0,0.51,0.82,-0.07,1.38,3.97,-18.3
2024-12-06 12:31:42.108,95.62,493.0,0.51,0.83,-0.07,2.17,4.22,-18.73
2024-12-06 12:31:42.114,96.75,479.0,0.51,0.83,-0.07,2.85,4.58,-19.22
2024-12-06 12:31:42.156,94.95,500.0,0.45,0.87,-0.06,5.9,4.58,-18.24
2024-12-06 12:31:42.158,92.47,505.0,0.44,0.85,-0.07,5.9,4.58,-18.24
2024-12-06 12:31:42.166,95.4,475.0,0.47,0.83,-0.07,5.04,5.74,-19.4
2024-12-06 12:31:42.181,95.4,482.0,0.48,0.87,-0.06,6.08,5.62,-19.09
2024-12-06 12:31:42.185,98.32,480.0,0.49,0.88,-0.06,6.75,6.78,-18.48
2024-12-06 12:31:42.189,93.82,477.0,0.49,0.88,-0.06,7.0,8.06,-18.12
2024-12-06 12:31:42.197,92.47,469.0,0.48,0.89,-0.06,7.36,8.06,-17.87
2024-12-06 12:31:42.207,95.85,481.0,0.48,0.88,-0.07,7.36,8.06,-17.87
2024-12-06 12:31:42.273,94.5,490.0,0.47,0.87,-0.09,5.9,2.02,-16.47
2024-12-06 12:31:42.286,90.9,503.0,0.47,0.88,-0.09,5.47,1.41,-15.74
2024-12-06 12:31:42.291,92.02,485.0,0.46,0.89,-0.09,5.47,1.41,-15.74
2024-12-06 12:31:42.299,88.2,479.0,0.45,0.91,-0.09,4.86,0.98,-15.13
2024-12-06 12:31:42.305,94.05,482.0,0.47,0.94,-0.09,4.13,0.49,-13.66
2024-12-06 12:31:42.313,90.45,460.0,0.47,0.95,-0.09,3.52,1.04,-11.65
2024-12-06 12:31:42.323,89.32,483.0,0.47,0.94,-0.08,3.03,0.98,-9.57
2024-12-06 12:31:42.338,89.1,469.0,0.46,0.92,-0.09,2.3,1.16,-7.74
2024-12-06 12:31:42.370,93.82,484.0,0.46,0.91,-0.09,1.62,1.41,-6.58
2024-12-06 12:31:42.379,87.97,468.0,0.47,0.92,-0.09,0.53,1.1,-2.31
2024-12-06 12:31:42.382,90.45,476.0,0.45,0.9,-0.08,0.77,1.84,-1.09
2024-12-06 12:31:42.390,89.55,460.0,0.45,0.88,-0.08,1.01,2.81,-0.6
2024-12-06 12:31:42.558,77.62,477.0,0.46,0.87,-0.07,6.14,0.37,3.06
2024-12-06 12:31:42.561,76.72,467.0,0.47,0.87,-0.08,5.47,-0.18,3.25
2024-12-06 12:31:42.569,70.2,471.0,0.46,0.86,-0.08,5.04,-0.36,3.31
2024-12-06 12:31:42.617,74.47,482.0,0.47,0.86,-0.08,4.07,-2.44,3.25
2024-12-06 12:31:42.622,72.45,471.0,0.47,0.85,-0.08,4.01,-2.62,2.82
2024-12-06 12:31:42.627,67.05,484.0,0.47,0.85,-0.07,3.94,-3.17,2.45
2024-12-06 12:31:42.636,72.45,480.0,0.48,0.85,-0.07,3.82,-4.15,2.57
2024-12-06 12:31:42.647,68.4,465.0,0.48,0.86,-0.08,3.82,-4.15,2.57
2024-12-06 12:31:42.653,70.2,461.0,0.47,0.86,-0.08,3.76,-4.88,2.27
2024-12-06 12:31:42.655,70.42,483.0,0.46,0.85,-0.08,3.7,-4.63,1.41
2024-12-06 12:31:42.665,73.35,463.0,0.46,0.85,-0.09,3.64,-4.21,0.56
2024-12-06 12:31:42.670,65.47,457.0,0.46,0.85,-0.09,3.7,-4.08,0.19
2024-12-06 12:31:42.677,67.72,462.0,0.47,0.85,-0.09,3.76,-3.9,0.07
2024-12-06 12:31:42.685,67.95,460.0,0.48,0.85,-0.08,3.76,-3.9,0.07
2024-12-06 12:31:42.692,66.6,461.0,0.47,0.86,-0.08,3.76,-4.39,0.01
2024-12-06 12:31:42.709,67.95,461.0,0.47,0.86,-0.09,3.7,-4.27,0.01
2024-12-06 12:31:42.711,65.7,458.0,0.45,0.86,-0.09,3.58,-4.15,-0.36
2024-12-06 12:31:42.719,66.38,480.0,0.45,0.86,-0.09,3.39,-3.78,-1.21
2024-12-06 12:31:42.730,68.62,467.0,0.45,0.85,-0.09,3.39,-3.41,-1.94
2024-12-06 12:31:42.732,69.07,455.0,0.45,0.85,-0.1,3.09,-3.41,-1.94
2024-12-06 12:31:42.741,61.88,465.0,0.45,0.85,-0.1,2.78,-3.47,-2.49
2024-12-06 12:31:42.751,69.75,455.0,0.46,0.86,-0.1,2.42,-3.05,-2.8
2024-12-06 12:31:42.756,66.15,456.0,0.46,0.86,-0.1,2.17,-2.62,-2.74
2024-12-06 12:31:42.764,68.17,469.0,0.46,0.86,-0.1,2.24,-2.56,-2.92
2024-12-06 12:31:42.773,60.75,475.0,0.45,0.85,-0.1,2.05,-1.77,-3.47
2024-12-06 12:31:42.780,62.32,477.0,0.45,0.83,-0.11,2.05,-1.77,-3.47
2024-12-06 12:31:42.794,64.8,451.0,0.46,0.84,-0.1,1.93,-2.13,-3.65
2024-12-06 12:31:42.824,65.47,475.0,0.46,0.86,-0.11,1.62,-2.31,-3.41
2024-12-06 12:31:42.828,65.7,473.0,0.44,0.85,-0.11,0.1,-0.42,-4.63
2024-12-06 12:31:42.833,60.07,459.0,0.46,0.87,-0.11,-0.33,-0.36,-4.51
2024-12-06 12:31:42.843,56.02,460.0,0.46,0.88,-0.11,-0.69,0.19,-3.83
2024-12-06 12:31:42.859,60.75,461.0,0.45,0.87,-0.11,-0.88,0.98,-3.1
2024-12-06 12:31:42.863,58.05,461.0,0.45,0.87,-0.11,-0.94,1.77,-3.47
2024-12-06 12:31:42.870,56.25,501.0,0.44,0.86,-0.1,-0.94,1.77,-3.47
2024-12-06 12:31:42.872,58.72,471.0,0.46,0.86,-0.1,-1.37,2.57,-3.65
2024-12-06 12:31:42.880,55.8,478.0,0.48,0.87,-0.1,-1.43,1.77,-2.92
2024-12-06 12:31:42.888,54.9,470.0,0.45,0.85,-0.11,-1.37,1.59,-2.92
2024-12-06 12:31:42.898,56.7,488.0,0.45,0.84,-0.11,-1.3,2.45,-4.14
2024-12-06 12:31:42.904,57.15,474.0,0.45,0.84,-0.11,-1.37,2.14,-3.96
2024-12-06 12:31:42.913,58.72,472.0,0.48,0.87,-0.11,-1.37,2.14,-3.96
2024-12-06 12:31:42.926,53.77,465.0,0.46,0.88,-0.11,-1.3,1.41,-3.1
2024-12-06 12:31:42.930,56.7,456.0,0.44,0.86,-0.12,-1.3,2.32,-3.47
2024-12-06 12:31:42.936,51.52,480.0,0.46,0.87,-0.11,-1.55,2.87,-3.71
2024-12-06 12:31:42.944,54.0,464.0,0.47,0.88,-0.11,-1.67,2.14,-2.68
2024-12-06 12:31:42.954,50.85,459.0,0.47,0.88,-0.11,-1.73,2.51,-2.37
2024-12-06 12:31:42.964,56.47,521.0,0.45,0.87,-0.12,-1.98,3.73,-2.86
2024-12-06 12:31:42.976,51.97,460.0,0.47,0.87,-0.1,-2.1,2.81,-2.37
2024-12-06 12:31:42.991,51.52,463.0,0.46,0.86,-0.11,-1.98,1.77,-1.76
2024-12-06 12:31:42.999,46.8,471.0,0.45,0.84,-0.11,-1.67,1.65,-2.37
2024-12-06 12:31:43.5,48.38,479.0,0.45,0.84,-0.11,-1.55,0.92,-2.8
2024-12-06 12:31:43.20,49.27,462.0,0.47,0.86,-0.11,-1.55,0.92,-2.8
2024-12-06 12:31:43.22,46.8,455.0,0.46,0.88,-0.12,-1.12,-1.64,-1.64
2024-12-06 12:31:43.34,45.0,460.0,0.44,0.88,-0.12,-1.24,-1.22,-2.55
2024-12-06 12:31:43.75,49.95,484.0,0.43,0.86,-0.1,-1.92,-0.42,-3.47
2024-12-06 12:31:43.77,42.75,477.0,0.43,0.86,-0.1,-1.67,0.25,-3.77
2024-12-06 12:31:43.83,42.08,484.0,0.45,0.87,-0.09,-0.94,-0.79,-3.29
2024-12-06 12:31:43.92,45.45,455.0,0.46,0.87,-0.09,-0.94,-0.79,-3.29
2024-12-06 12:31:43.107,46.57,468.0,0.44,0.86,-0.1,-0.45,-0.73,-3.41
2024-12-06 12:31:43.109,45.9,491.0,0.43,0.85,-0.1,0.04,-0.36,-4.32
2024-12-06 12:31:43.113,40.05,472.0,0.44,0.85,-0.1,0.34,-0.36,-5.36
2024-12-06 12:31:43.162,44.1,486.0,0.44,0.85,-0.1,0.47,-0.67,-5.73
2024-12-06 12:31:43.166,45.45,482.0,0.44,0.86,-0.1,-0.15,-0.91,-6.83
2024-12-06 12:31:43.168,41.85,481.0,0.43,0.86,-0.1,-0.15,-0.91,-6.83
2024-12-06 12:31:43.174,41.85,475.0,0.43,0.86,-0.09,-0.21,-0.73,-7.37
2024-12-06 12:31:43.182,38.7,466.0,0.43,0.87,-0.09,-0.15,-0.73,-7.74
2024-12-06 12:31:43.200,43.65,487.0,0.44,0.87,-0.09,-0.21,-0.48,-7.99
2024-12-06 12:31:43.211,39.15,466.0,0.44,0.89,-0.09,-0.33,-0.06,-8.11
2024-12-06 12:31:43.215,40.72,504.0,0.44,0.9,-0.09,-0.57,0.62,-8.17
2024-12-06 12:31:43.221,41.4,468.0,0.44,0.9,-0.09,-0.69,1.16,-8.29
2024-12-06 12:31:43.230,39.83,469.0,0.43,0.88,-0.1,-0.63,0.92,-8.78
2024-12-06 12:31:43.245,35.55,515.0,0.44,0.88,-0.1,-0.63,0.86,-9.27
2024-12-06 12:31:43.280,40.05,471.0,0.45,0.87,-0.09,-0.57,-15.62,-9.76
2024-12-06 12:31:43.290,40.72,469.0,0.45,0.89,-0.09,-1.73,-0.42,-9.57
2024-12-06 12:31:43.292,38.92,472.0,0.44,0.9,-0.1,-1.92,-0.18,-9.51
2024-12-06 12:31:43.298,31.27,474.0,0.42,0.89,-0.1,-1.92,-0.18,-9.51
2024-12-06 12:31:43.306,37.58,485.0,0.42,0.88,-0.09,-1.92,0.19,-10.06
2024-12-06 12:31:43.316,36.67,482.0,0.43,0.86,-0.09,-1.85,0.31,-10.43
2024-12-06 12:31:43.325,33.3,471.0,0.42,0.86,-0.09,-1.61,-0.24,-10.61
2024-12-06 12:31:43.332,39.38,466.0,0.42,0.86,-0.09,-1.43,-0.12,-10.85
2024-12-06 12:31:43.340,36.0,464.0,0.42,0.85,-0.09,-1.24,0.07,-11.04
2024-12-06 12:31:43.347,33.3,488.0,0.42,0.86,-0.09,-1.24,0.07,-11.04
2024-12-06 12:31:43.355,36.22,488.0,0.43,0.88,-0.09,-1.24,0.37,-10.91
2024-12-06 12:31:43.375,35.33,480.0,0.42,0.89,-0.1,-1.37,0.74,-10.55
2024-12-06 12:31:43.378,37.58,473.0,0.41,0.9,-0.1,-1.43,1.04,-10.73
2024-12-06 12:31:43.385,37.58,483.0,0.41,0.89,-0.1,-1.43,1.04,-10.79
2024-12-06 12:31:43.403,34.2,478.0,0.42,0.89,-0.09,-1.61,0.62,-10.79
2024-12-06 12:31:43.411,33.97,488.0,0.44,0.89,-0.1,-2.16,-0.42,-9.94
2024-12-06 12:31:43.425,35.77,500.0,0.43,0.9,-0.09,-2.59,-0.42,-9.51
2024-12-06 12:31:43.429,31.95,484.0,0.43,0.9,-0.09,-2.83,-0.3,-9.14
2024-12-06 12:31:43.431,35.77,473.0,0.43,0.91,-0.09,-2.83,-0.3,-9.08
2024-12-06 12:31:43.444,35.1,466.0,0.42,0.91,-0.09,-2.77,-0.3,-9.08
2024-12-06 12:31:43.447,32.4,469.0,0.42,0.9,-0.09,-2.65,0.31,-9.27
2024-12-06 12:31:43.456,34.42,471.0,0.42,0.89,-0.09,-2.1,-0.06,-9.21
2024-12-06 12:31:43.467,29.47,491.0,0.42,0.88,-0.09,-1.3,-0.85,-9.27
2024-12-06 12:31:43.471,32.4,465.0,0.42,0.88,-0.09,-0.94,-1.64,-9.33
2024-12-06 12:31:43.600,30.82,470.0,0.38,0.89,-0.1,0.28,3.61,-7.37
2024-12-06 12:31:43.603,27.9,467.0,0.36,0.89,-0.12,0.59,3.61,-7.37
2024-12-06 12:31:43.607,30.15,472.0,0.38,0.9,-0.12,0.4,4.16,-7.19
2024-12-06 12:31:43.624,32.4,482.0,0.37,0.91,-0.12,0.53,2.08,-6.89
2024-12-06 12:31:43.627,28.8,490.0,0.37,0.91,-0.12,0.04,2.2,-6.76
2024-12-06 12:31:43.630,27.0,480.0,0.37,0.91,-0.12,-0.02,1.1,-6.76
2024-12-06 12:31:43.640,29.02,478.0,0.36,0.9,-0.11,-0.02,1.1,-6.76
2024-12-06 12:31:43.648,27.67,487.0,0.35,0.9,-0.11,-0.02,0.86,-7.56
2024-12-06 12:31:43.656,30.6,489.0,0.39,0.92,-0.09,-0.27,1.71,-7.37
2024-12-06 12:31:43.672,28.35,472.0,0.39,0.94,-0.08,-0.02,0.68,-5.73
2024-12-06 12:31:43.676,26.32,464.0,0.39,0.91,-0.09,0.34,0.25,-5.73
2024-12-06 12:31:43.685,32.17,472.0,0.34,0.91,-0.09,0.34,1.59,-7.25
2024-12-06 12:31:43.687,29.25,496.0,0.33,0.9,-0.1,0.34,1.59,-7.25
2024-12-06 12:31:43.696,31.72,466.0,0.37,0.92,-0.08,0.34,1.71,-7.62
2024-12-06 12:31:43.703,29.7,491.0,0.4,0.93,-0.07,0.04,1.41,-6.34
2024-12-06 12:31:43.710,27.45,506.0,0.39,0.93,-0.08,-0.21,1.53,-4.99
2024-12-06 12:31:43.718,29.7,475.0,0.39,0.93,-0.08,-0.39,1.77,-4.45
2024-12-06 12:31:43.725,26.32,470.0,0.37,0.92,-0.08,-0.39,1.77,-4.45
2024-12-06 12:31:43.754,29.02,481.0,0.4,0.9,-0.08,-0.88,0.0,-1.58
2024-12-06 12:31:43.765,28.57,487.0,0.39,0.9,-0.09,-0.88,-0.79,-1.15
2024-12-06 12:31:43.862,24.52,481.0,0.38,0.93,-0.09,-1.73,-5.24,3.98
2024-12-06 12:31:43.871,28.57,470.0,0.38,0.93,-0.09,-1.79,-5.43,4.34
2024-12-06 12:31:43.880,27.67,462.0,0.38,0.92,-0.08,-1.85,-5.85,4.53
2024-12-06 12:31:43.885,26.1,466.0,0.38,0.91,-0.08,-1.85,-5.85,4.53
2024-12-06 12:31:43.892,30.38,476.0,0.38,0.89,-0.07,-1.98,-6.34,4.53
2024-12-06 12:31:43.903,32.17,466.0,0.38,0.88,-0.07,-2.28,-6.53,4.53
2024-12-06 12:31:43.910,29.92,467.0,0.39,0.88,-0.07,-2.46,-7.14,4.47
2024-12-06 12:31:43.917,27.22,475.0,0.39,0.88,-0.07,-2.71,-8.05,4.28
2024-12-06 12:31:43.955,27.22,469.0,0.39,0.88,-0.07,-2.89,-8.97,4.04
2024-12-06 12:31:43.960,25.65,457.0,0.41,0.91,-0.09,-2.89,-11.71,3.49
2024-12-06 12:31:43.965,26.77,460.0,0.41,0.92,-0.09,-2.77,-12.39,3.31
2024-12-06 12:31:43.968,29.92,466.0,0.4,0.92,-0.1,-2.77,-12.39,3.31
2024-12-06 12:31:44.0,30.82,470.0,0.38,0.92,-0.1,-2.4,-12.93,2.7
2024-12-06 12:31:44.3,31.05,487.0,0.37,0.91,-0.1,-2.04,-11.84,1.72
2024-12-06 12:31:44.9,27.0,463.0,0.36,0.91,-0.1,-2.04,-11.84,1.72
2024-12-06 12:31:44.16,32.17,474.0,0.37,0.9,-0.1,-1.73,-10.98,1.48
2024-12-06 12:31:44.25,34.65,466.0,0.37,0.9,-0.09,-1.85,-9.88,1.66
2024-12-06 12:31:44.34,27.67,459.0,0.37,0.9,-0.09,-1.85,-8.48,1.9
2024-12-06 12:31:44.38,30.82,465.0,0.37,0.9,-0.09,-1.73,-7.01,1.96
2024-12-06 12:31:44.45,24.07,455.0,0.37,0.91,-0.09,-1.67,-5.43,2.02
2024-12-06 12:31:44.53,28.8,471.0,0.37,0.91,-0.1,-1.67,-5.43,2.02
2024-12-06 12:31:44.63,30.6,461.0,0.37,0.91,-0.09,-1.61,-4.57,2.09
2024-12-06 12:31:44.71,30.38,457.0,0.37,0.91,-0.08,-1.61,-3.96,2.02
2024-12-06 12:31:44.78,29.47,465.0,0.37,0.91,-0.09,-1.79,-3.23,1.78
2024-12-06 12:31:44.86,29.92,463.0,0.37,0.91,-0.09,-1.85,-2.8,1.35
2024-12-06 12:31:44.93,26.32,480.0,0.37,0.91,-0.09,-1.98,-3.35,0.93
2024-12-06 12:31:44.118,30.82,464.0,0.37,0.91,-0.08,-2.59,-4.63,-0.36
2024-12-06 12:31:44.124,32.17,455.0,0.36,0.91,-0.08,-2.65,-5.24,-1.27
2024-12-06 12:31:44.133,26.77,462.0,0.36,0.91,-0.08,-2.65,-6.1,-2.06
2024-12-06 12:31:44.142,27.67,451.0,0.36,0.91,-0.09,-2.65,-6.59,-2.74
2024-12-06 12:31:44.150,30.38,464.0,0.36,0.9,-0.09,-2.53,-6.59,-2.74
2024-12-06 12:31:44.181,25.42,450.0,0.36,0.9,-0.1,-1.55,-7.99,-3.77
2024-12-06 12:31:44.185,29.92,482.0,0.36,0.9,-0.1,-1.55,-7.99,-3.77
2024-12-06 12:31:44.196,29.47,452.0,0.36,0.9,-0.1,-1.85,-7.93,-4.08
2024-12-06 12:31:44.200,31.5,472.0,0.36,0.9,-0.09,-2.22,-7.93,-4.32
2024-12-06 12:31:44.213,28.12,473.0,0.36,0.9,-0.09,-2.53,-7.87,-4.57
2024-12-06 12:31:44.219,32.17,463.0,0.36,0.9,-0.09,-2.65,-7.87,-4.81
2024-12-06 12:31:44.228,27.9,460.0,0.36,0.89,-0.09,-2.65,-7.87,-4.93
2024-12-06 12:31:44.238,31.27,471.0,0.36,0.89,-0.09,-2.83,-7.81,-4.93
2024-12-06 12:31:44.240,21.6,453.0,0.36,0.89,-0.08,-3.14,-8.11,-4.87
2024-12-06 12:31:44.259,31.27,482.0,0.35,0.9,-0.09,-3.38,-7.44,-4.93
2024-12-06 12:31:44.295,28.12,467.0,0.34,0.92,-0.09,-3.87,-4.94,-5.67
2024-12-06 12:31:44.299,32.4,473.0,0.36,0.92,-0.08,-3.99,-2.25,-5.24
2024-12-06 12:31:44.318,27.0,467.0,0.36,0.92,-0.08,-4.05,-1.77,-4.87
2024-12-06 12:31:44.320,27.45,494.0,0.37,0.91,-0.09,-4.11,-1.64,-4.63
2024-12-06 12:31:44.324,30.15,472.0,0.37,0.92,-0.09,-4.05,-2.07,-4.51
2024-12-06 12:31:44.335,29.25,456.0,0.37,0.92,-0.09,-4.11,-2.31,-4.51
2024-12-06 12:31:44.345,28.12,465.0,0.37,0.92,-0.09,-4.17,-2.62,-4.51
2024-12-06 12:31:44.349,29.25,474.0,0.37,0.93,-0.09,-4.11,-2.74,-4.51
2024-12-06 12:31:44.357,29.7,460.0,0.37,0.93,-0.1,-4.11,-2.74,-4.51
2024-12-06 12:31:44.376,32.17,488.0,0.37,0.94,-0.09,-3.62,-2.44,-4.08
2024-12-06 12:31:44.409,32.17,455.0,0.37,0.93,-0.09,-2.59,-0.54,-2.49
2024-12-06 12:31:44.415,31.95,515.0,0.37,0.93,-0.1,-2.1,0.07,-2.06
2024-12-06 12:31:44.417,26.55,474.0,0.37,0.93,-0.1,-1.61,0.68,-1.58
2024-12-06 12:31:44.424,32.62,465.0,0.37,0.93,-0.1,-1.24,1.04,-1.09
2024-12-06 12:31:44.432,30.15,451.0,0.37,0.93,-0.09,-0.94,1.23,-0.48
2024-12-06 12:31:44.448,28.12,456.0,0.38,0.93,-0.09,-0.94,1.23,-0.48
2024-12-06 12:31:44.451,30.38,470.0,0.39,0.94,-0.09,-0.88,1.16,0.19
2024-12-06 12:31:44.460,26.77,483.0,0.39,0.94,-0.09,-0.82,0.92,0.99
2024-12-06 12:31:44.468,29.7,431.0,0.38,0.93,-0.09,-0.76,0.49,1.6
2024-12-06 12:31:44.471,29.7,461.0,0.38,0.93,-0.09,-0.63,0.19,2.02
2024-12-06 12:31:44.481,29.47,462.0,0.38,0.93,-0.09,-0.39,-0.42,2.33
2024-12-06 12:31:44.489,29.02,480.0,0.38,0.93,-0.09,-0.39,-0.42,2.33
2024-12-06 12:31:44.521,30.15,457.0,0.38,0.91,-0.08,0.22,-2.25,2.45
2024-12-06 12:31:44.525,25.2,474.0,0.38,0.91,-0.08,0.47,-2.74,2.57
2024-12-06 12:31:44.528,28.57,485.0,0.38,0.91,-0.09,0.47,-2.74,2.57
2024-12-06 12:31:44.533,27.0,475.0,0.38,0.91,-0.09,0.71,-3.11,2.82
2024-12-06 12:31:44.540,29.7,473.0,0.37,0.91,-0.09,1.01,-3.11,2.94
2024-12-06 12:31:44.649,31.5,478.0,0.36,0.9,-0.09,0.83,1.77,3.73
2024-12-06 12:31:44.653,29.02,460.0,0.36,0.9,-0.09,0.89,1.59,3.37
2024-12-06 12:31:44.663,28.35,463.0,0.36,0.9,-0.08,0.77,1.23,3.06
2024-12-06 12:31:44.668,32.4,463.0,0.37,0.9,-0.08,0.65,0.98,2.7
2024-12-06 12:31:44.681,32.17,466.0,0.37,0.91,-0.08,0.65,0.98,2.7
2024-12-06 12:31:44.684,29.92,461.0,0.37,0.92,-0.09,0.59,1.04,2.45
2024-12-06 12:31:44.694,26.77,482.0,0.37,0.93,-0.09,0.65,1.35,2.33
2024-12-06 12:31:44.705,25.65,490.0,0.38,0.93,-0.08,0.65,1.53,2.15
2024-12-06 12:31:44.713,33.08,472.0,0.38,0.93,-0.08,0.77,1.41,2.09
2024-12-06 12:31:44.715,30.15,471.0,0.37,0.92,-0.08,0.77,1.35,1.84
2024-12-06 12:31:44.724,32.62,455.0,0.37,0.92,-0.08,0.77,1.35,1.84
2024-12-06 12:31:44.738,29.92,468.0,0.37,0.91,-0.08,0.77,1.41,1.41
2024-12-06 12:31:44.743,29.92,457.0,0.37,0.91,-0.08,0.77,1.35,1.05
2024-12-06 12:31:44.747,27.22,512.0,0.38,0.91,-0.09,0.83,1.1,0.93
2024-12-06 12:31:44.755,30.15,452.0,0.38,0.91,-0.09,0.89,1.29,1.11
2024-12-06 12:31:44.763,30.38,463.0,0.39,0.92,-0.09,1.08,1.9,1.54
2024-12-06 12:31:44.771,30.6,471.0,0.39,0.92,-0.1,1.08,1.9,1.54
2024-12-06 12:31:44.795,29.25,470.0,0.38,0.91,-0.1,1.87,2.08,1.9
2024-12-06 12:31:44.798,29.02,471.0,0.38,0.91,-0.1,2.17,2.08,1.78
2024-12-06 12:31:44.801,28.12,466.0,0.38,0.91,-0.1,2.36,1.96,1.72
2024-12-06 12:31:44.812,24.3,456.0,0.38,0.91,-0.1,2.36,1.96,1.72
2024-12-06 12:31:44.817,24.07,463.0,0.39,0.91,-0.09,2.48,1.9,1.72
2024-12-06 12:31:44.824,30.15,467.0,0.39,0.91,-0.09,2.54,1.9,1.78
2024-12-06 12:31:44.861,28.12,458.0,0.39,0.89,-0.08,2.24,1.16,2.21
2024-12-06 12:31:44.864,26.55,465.0,0.39,0.89,-0.07,1.93,0.74,2.21
2024-12-06 12:31:44.873,32.62,466.0,0.39,0.88,-0.07,1.75,0.07,1.9
2024-12-06 12:31:44.878,31.27,482.0,0.39,0.88,-0.06,1.38,-0.48,1.54
2024-12-06 12:31:44.889,29.7,453.0,0.39,0.88,-0.06,0.77,-1.09,1.29
2024-12-06 12:31:44.894,29.47,464.0,0.39,0.88,-0.06,0.77,-1.09,1.05
2024-12-06 12:31:44.905,32.17,455.0,0.39,0.89,-0.05,-0.02,-1.64,1.05
2024-12-06 12:31:44.913,24.97,465.0,0.39,0.89,-0.05,-0.94,-1.77,0.62
2024-12-06 12:31:44.918,28.8,478.0,0.39,0.89,-0.05,-1.85,-1.77,0.25
2024-12-06 12:31:44.926,27.0,461.0,0.39,0.9,-0.05,-2.46,-1.95,-0.05
2024-12-06 12:31:44.935,27.22,459.0,0.39,0.9,-0.05,-2.77,-2.07,-0.23
2024-12-06 12:31:44.941,31.5,460.0,0.39,0.9,-0.06,-2.77,-2.07,-0.42
2024-12-06 12:31:44.952,25.88,459.0,0.38,0.9,-0.07,-2.71,-2.31,-0.42
2024-12-06 12:31:44.965,23.17,460.0,0.39,0.9,-0.09,-2.4,-3.17,-0.6
2024-12-06 12:31:44.968,26.77,485.0,0.4,0.91,-0.1,-2.16,-3.72,-0.78
2024-12-06 12:31:44.973,29.7,476.0,0.4,0.91,-0.1,-2.28,-3.54,-0.97
2024-12-06 12:31:44.982,30.6,473.0,0.4,0.91,-0.1,-2.46,-3.9,-1.03
2024-12-06 12:31:44.992,29.47,478.0,0.4,0.91,-0.1,-2.46,-3.9,-0.97
2024-12-06 12:31:44.997,30.38,474.0,0.4,0.91,-0.1,-2.53,-5.0,-0.97
2024-12-06 12:31:45.11,25.65,474.0,0.39,0.9,-0.1,-2.59,-5.98,-0.97
2024-12-06 12:31:45.17,30.6,457.0,0.39,0.9,-0.09,-2.65,-6.4,-1.09
2024-12-06 12:31:45.23,28.35,453.0,0.39,0.9,-0.09,-2.53,-6.65,-1.27
2024-12-06 12:31:45.27,31.72,461.0,0.38,0.9,-0.09,-2.4,-6.59,-1.21
2024-12-06 12:31:45.36,32.17,470.0,0.38,0.9,-0.09,-2.4,-6.59,-1.21
2024-12-06 12:31:45.44,29.47,467.0,0.38,0.91,-0.09,-2.22,-5.98,-0.97
2024-12-06 12:31:45.50,29.92,468.0,0.37,0.91,-0.09,-1.85,-5.06,-0.78
2024-12-06 12:31:45.58,27.9,455.0,0.37,0.91,-0.1,-1.37,-3.72,-0.66
2024-12-06 12:31:45.111,30.15,456.0,0.38,0.94,-0.12,2.11,3.85,1.72
2024-12-06 12:31:45.113,33.08,476.0,0.39,0.95,-0.12,2.11,3.85,1.72
2024-12-06 12:31:45.119,24.75,474.0,0.4,0.94,-0.12,2.24,4.83,2.76
2024-12-06 12:31:45.126,27.67,461.0,0.4,0.94,-0.11,2.3,5.44,3.79
2024-12-06 12:31:45.138,32.4,463.0,0.41,0.92,-0.1,2.17,5.56,4.71
2024-12-06 12:31:45.141,29.92,463.0,0.41,0.92,-0.1,2.11,5.56,5.44
2024-12-06 12:31:45.149,19.57,464.0,0.41,0.91,-0.09,2.05,5.13,5.87
2024-12-06 12:31:45.158,29.25,460.0,0.41,0.9,-0.08,2.05,5.13,5.87
2024-12-06 12:31:45.173,28.35,484.0,0.41,0.89,-0.08,1.99,4.7,6.36
2024-12-06 12:31:45.177,32.17,459.0,0.41,0.89,-0.08,2.05,3.91,6.66
2024-12-06 12:31:45.184,32.62,475.0,0.41,0.9,-0.07,1.99,3.3,6.85
2024-12-06 12:31:45.196,31.72,476.0,0.41,0.9,-0.07,2.24,3.18,6.79
2024-12-06 12:31:45.203,29.47,474.0,0.4,0.9,-0.07,2.24,3.18,6.79
2024-12-06 12:31:45.211,31.05,453.0,0.4,0.9,-0.08,2.72,2.26,6.42
