Timestamp,PosIsDeg,ForceIs,AccX,AccY,AccZ,GyroX,GyroY,GyroZ
2024-12-06 12:34:23.852,29.7,482.0,0.39,0.91,-0.07,-0.15,-0.18,-1.82
2024-12-06 12:34:23.877,27.22,483.0,0.4,0.91,-0.07,-1.12,0.55,-0.66
2024-12-06 12:34:23.905,28.8,469.0,0.54,1.0,-0.07,-1.79,6.11,14.17
2024-12-06 12:34:23.933,23.17,479.0,0.51,0.96,-0.07,-2.1,8.67,21.68
2024-12-06 12:34:23.968,20.25,497.0,0.44,0.86,-0.05,-2.04,0.74,21.31
2024-12-06 12:34:24.63,14.62,479.0,0.41,0.81,-0.04,-0.94,-8.24,16.18
2024-12-06 12:34:24.71,14.85,480.0,0.34,0.87,-0.06,1.2,-6.83,3.18
2024-12-06 12:34:24.77,3.38,454.0,0.34,0.9,-0.08,0.89,-1.77,-0.42
2024-12-06 12:34:24.103,11.02,500.0,0.39,0.89,-0.08,-0.21,2.93,-1.7
2024-12-06 12:34:24.127,10.12,487.0,0.41,0.87,-0.07,-1.43,4.03,-0.72
2024-12-06 12:34:24.153,4.95,482.0,0.49,0.89,-0.05,-1.98,2.81,-2.13
2024-12-06 12:34:24.187,5.62,484.0,0.47,0.89,-0.06,-1.18,-1.09,0.68
2024-12-06 12:34:24.210,8.77,485.0,0.45,0.87,-0.05,-1.18,-5.92,-1.88
2024-12-06 12:34:24.245,8.32,486.0,0.46,0.88,-0.05,-1.98,-7.81,-0.17
2024-12-06 12:34:24.270,6.75,485.0,0.41,0.88,-0.06,-2.34,-7.08,-0.84
2024-12-06 12:34:24.316,5.62,479.0,0.39,0.87,-0.06,-2.65,-5.79,-3.77
2024-12-06 12:34:24.320,7.42,487.0,0.44,0.88,-0.06,-2.95,-2.5,-2.68
2024-12-06 12:34:24.347,-0.67,505.0,0.42,0.89,-0.06,-3.01,-1.46,-1.76
2024-12-06 12:34:25.731,3.15,481.0,0.39,0.82,-0.04,2.3,1.23,1.05
2024-12-06 12:34:25.738,-2.02,475.0,0.44,0.93,-0.03,2.3,2.81,4.59
2024-12-06 12:34:25.747,-4.28,478.0,0.43,0.92,-0.03,2.11,2.57,4.34
2024-12-06 12:34:25.782,0.45,491.0,0.43,0.92,-0.03,2.11,2.57,4.34
2024-12-06 12:34:25.785,-0.45,489.0,0.42,0.93,-0.03,1.75,2.39,3.43
2024-12-06 12:34:25.790,-0.67,470.0,0.42,0.92,-0.03,1.75,2.39,3.43
2024-12-06 12:34:25.798,-4.28,476.0,0.42,0.92,-0.04,1.93,2.81,3.31
2024-12-06 12:34:25.808,-0.22,478.0,0.42,0.91,-0.04,1.99,3.67,3.43
2024-12-06 12:34:25.815,-2.7,484.0,0.42,0.91,-0.03,1.93,4.4,3.67
2024-12-06 12:34:25.822,0.45,477.0,0.42,0.91,-0.03,2.05,4.89,3.92
2024-12-06 12:34:25.831,-4.05,491.0,0.42,0.9,-0.04,2.05,4.89,3.92
2024-12-06 12:34:25.841,1.8,491.0,0.41,0.89,-0.04,2.05,5.74,4.1
2024-12-06 12:34:25.848,-2.92,498.0,0.41,0.88,-0.04,2.11,6.11,4.22
2024-12-06 12:34:25.854,1.57,497.0,0.41,0.87,-0.04,2.3,5.74,4.1
2024-12-06 12:34:25.888,0.9,488.0,0.42,0.87,-0.03,2.05,5.01,4.1
2024-12-06 12:34:25.891,3.6,490.0,0.42,0.88,-0.04,1.93,4.58,4.22
2024-12-06 12:34:25.898,-4.95,480.0,0.42,0.88,-0.04,1.81,4.22,4.1
2024-12-06 12:34:25.914,3.6,473.0,0.41,0.88,-0.04,1.81,3.54,3.86
2024-12-06 12:34:25.916,3.15,474.0,0.41,0.88,-0.04,1.81,3.54,3.86
2024-12-06 12:34:25.927,0.0,470.0,0.42,0.88,-0.04,1.87,3.18,3.61
2024-12-06 12:34:25.936,-1.8,484.0,0.42,0.88,-0.03,1.87,2.93,3.49
2024-12-06 12:34:25.939,0.9,464.0,0.42,0.89,-0.03,1.87,3.0,3.37
2024-12-06 12:34:25.946,0.9,478.0,0.42,0.89,-0.03,1.99,3.24,3.37
2024-12-06 12:34:25.956,-4.5,490.0,0.43,0.89,-0.04,1.99,3.67,3.37
2024-12-06 12:34:25.968,2.25,474.0,0.43,0.9,-0.04,2.11,3.67,3.37
2024-12-06 12:34:25.971,3.82,473.0,0.43,0.9,-0.03,2.24,4.09,3.31
2024-12-06 12:34:25.997,-0.45,489.0,0.42,0.89,-0.03,2.11,4.95,2.57
2024-12-06 12:34:25.999,-1.12,480.0,0.43,0.89,-0.03,2.11,4.95,2.57
2024-12-06 12:34:26.7,0.9,474.0,0.43,0.88,-0.04,2.05,4.64,2.51
2024-12-06 12:34:26.15,-0.22,471.0,0.43,0.88,-0.04,1.99,4.52,2.51
2024-12-06 12:34:26.26,0.9,468.0,0.44,0.88,-0.04,1.93,4.77,2.63
2024-12-06 12:34:26.32,0.9,486.0,0.44,0.88,-0.04,1.75,4.52,2.82
2024-12-06 12:34:26.39,-1.57,489.0,0.44,0.89,-0.04,1.69,4.46,2.94
2024-12-06 12:34:26.48,-1.12,483.0,0.44,0.89,-0.04,1.69,4.46,2.94
2024-12-06 12:34:26.57,2.92,474.0,0.44,0.89,-0.04,1.69,4.34,2.94
2024-12-06 12:34:26.62,0.9,522.0,0.44,0.89,-0.04,1.69,4.22,3.0
2024-12-06 12:34:26.182,-5.85,481.0,0.45,0.86,-0.03,0.89,2.2,3.61
2024-12-06 12:34:26.189,-0.67,466.0,0.46,0.86,-0.03,0.89,1.29,3.73
2024-12-06 12:34:26.236,1.35,471.0,0.46,0.87,-0.03,0.89,1.29,3.73
2024-12-06 12:34:26.243,0.0,478.0,0.45,0.89,-0.05,1.44,2.14,4.04
2024-12-06 12:34:26.255,0.67,492.0,0.46,0.89,-0.03,1.75,4.22,4.65
2024-12-06 12:34:26.258,0.9,480.0,0.46,0.89,-0.01,1.38,5.07,5.81
2024-12-06 12:34:26.269,0.22,469.0,0.47,0.89,-0.01,1.26,4.58,6.6
2024-12-06 12:34:26.273,-3.82,473.0,0.46,0.89,-0.01,1.26,4.58,6.6
2024-12-06 12:34:26.284,-2.25,483.0,0.45,0.89,-0.03,1.14,5.5,6.54
2024-12-06 12:34:26.288,0.22,482.0,0.45,0.89,-0.03,1.26,6.17,6.3
2024-12-06 12:34:26.309,-1.35,476.0,0.46,0.89,-0.04,1.5,5.93,6.36
2024-12-06 12:34:26.315,0.9,472.0,0.47,0.89,-0.04,2.05,6.54,6.6
2024-12-06 12:34:26.323,-2.7,480.0,0.46,0.89,-0.04,2.05,6.54,6.6
2024-12-06 12:34:26.327,1.35,483.0,0.47,0.89,-0.04,2.17,6.78,6.66
2024-12-06 12:34:26.336,-0.22,457.0,0.48,0.89,-0.03,2.11,7.08,7.09
2024-12-06 12:34:26.366,0.67,483.0,0.49,0.88,-0.03,1.87,5.56,9.1
2024-12-06 12:34:26.376,2.92,469.0,0.49,0.88,-0.03,1.93,4.58,9.65
2024-12-06 12:34:26.381,-1.35,469.0,0.48,0.88,-0.03,1.93,4.09,9.96
2024-12-06 12:34:26.388,2.47,474.0,0.48,0.88,-0.03,2.05,4.16,10.02
2024-12-06 12:34:26.396,0.67,482.0,0.48,0.87,-0.03,2.17,3.61,10.14
2024-12-06 12:34:26.407,-0.22,461.0,0.49,0.86,-0.02,2.17,3.61,10.14
2024-12-06 12:34:26.412,-2.25,474.0,0.49,0.86,-0.02,2.36,3.12,10.33
2024-12-06 12:34:26.423,0.9,471.0,0.49,0.86,-0.02,2.48,3.3,10.63
2024-12-06 12:34:26.450,1.35,489.0,0.48,0.86,-0.03,3.03,4.22,10.81
2024-12-06 12:34:26.453,-6.07,527.0,0.48,0.86,-0.03,3.33,4.89,10.63
2024-12-06 12:34:26.458,2.92,472.0,0.49,0.87,-0.03,3.52,5.38,10.57
2024-12-06 12:34:26.469,-1.12,469.0,0.49,0.87,-0.03,3.7,5.56,10.69
2024-12-06 12:34:26.476,-1.8,481.0,0.49,0.87,-0.03,3.7,5.62,10.81
2024-12-06 12:34:26.482,-1.57,469.0,0.49,0.86,-0.02,3.58,5.38,10.81
2024-12-06 12:34:26.491,0.45,474.0,0.49,0.86,-0.01,3.58,5.38,10.81
2024-12-06 12:34:26.497,-0.22,472.0,0.5,0.86,-0.01,3.64,4.64,10.87
2024-12-06 12:34:26.505,-1.57,462.0,0.49,0.85,-0.02,3.76,3.79,10.94
2024-12-06 12:34:26.513,-2.7,471.0,0.49,0.85,-0.03,3.64,3.79,10.63
2024-12-06 12:34:26.522,-2.7,477.0,0.49,0.85,-0.03,3.46,4.28,10.39
2024-12-06 12:34:26.529,1.57,474.0,0.49,0.85,-0.03,3.21,4.58,10.33
2024-12-06 12:34:26.538,0.9,490.0,0.5,0.86,-0.03,3.21,4.58,10.33
2024-12-06 12:34:26.571,-1.57,473.0,0.5,0.84,-0.03,2.48,4.52,11.3
2024-12-06 12:34:26.575,-0.67,483.0,0.51,0.84,-0.03,2.48,4.52,11.3
2024-12-06 12:34:26.587,-0.9,485.0,0.52,0.84,-0.02,2.11,4.09,11.55
2024-12-06 12:34:26.591,-2.25,442.0,0.51,0.84,-0.03,1.87,4.03,11.61
2024-12-06 12:34:26.599,-0.9,492.0,0.51,0.84,-0.02,1.44,4.16,11.67
2024-12-06 12:34:26.617,1.12,474.0,0.51,0.84,-0.02,1.14,3.79,11.85
2024-12-06 12:34:26.644,0.45,482.0,0.53,0.83,-0.01,0.53,3.67,12.77
2024-12-06 12:34:26.649,0.9,473.0,0.53,0.83,-0.01,0.4,3.24,12.95
2024-12-06 12:34:26.653,-2.02,470.0,0.54,0.82,-0.01,0.34,3.12,12.89
2024-12-06 12:34:26.662,1.57,498.0,0.54,0.81,-0.02,0.34,3.12,12.89
2024-12-06 12:34:26.693,-4.72,465.0,0.53,0.81,-0.02,-0.08,2.57,11.67
2024-12-06 12:34:26.695,1.57,481.0,0.53,0.81,-0.02,-0.39,1.35,11.18
2024-12-06 12:34:26.698,1.8,483.0,0.5,0.82,-0.0,-0.39,1.35,11.18
2024-12-06 12:34:26.706,1.57,474.0,0.46,0.81,-0.02,-0.51,-0.42,8.37
2024-12-06 12:34:26.716,2.02,481.0,0.48,0.8,-0.03,-0.88,2.69,4.89
2024-12-06 12:34:26.726,2.7,493.0,0.49,0.79,0.02,-0.45,0.92,2.45
2024-12-06 12:34:26.736,4.28,486.0,0.5,0.79,0.01,-0.15,-1.22,-0.17
2024-12-06 12:34:26.738,2.92,474.0,0.5,0.79,0.01,0.22,0.98,-2.13
2024-12-06 12:34:26.745,0.67,476.0,0.53,0.8,-0.01,0.22,0.98,-2.13
2024-12-06 12:34:26.758,0.0,478.0,0.54,0.81,-0.02,2.72,-0.85,-3.1
2024-12-06 12:34:26.761,3.6,470.0,0.5,0.79,-0.06,4.8,-1.58,-5.18
2024-12-06 12:34:26.769,5.85,486.0,0.51,0.78,-0.01,4.19,4.16,-8.53
2024-12-06 12:34:26.777,-0.45,481.0,0.51,0.78,0.08,3.46,2.45,-9.39
2024-12-06 12:34:26.785,3.6,474.0,0.55,0.81,0.08,3.76,-2.25,-9.33
2024-12-06 12:34:26.796,7.42,484.0,0.52,0.82,0.02,3.76,-2.25,-9.33
2024-12-06 12:34:26.800,6.07,470.0,0.49,0.82,-0.06,2.72,-0.3,-11.34
2024-12-06 12:34:26.814,11.02,477.0,0.52,0.84,-0.02,1.14,2.14,-12.56
2024-12-06 12:34:26.817,11.92,478.0,0.53,0.85,-0.01,1.08,-4.02,-12.14
2024-12-06 12:34:26.828,12.38,488.0,0.52,0.84,-0.06,-0.21,-3.17,-12.07
2024-12-06 12:34:26.832,11.7,477.0,0.52,0.84,-0.06,-1.37,-1.83,-12.01
2024-12-06 12:34:26.841,10.35,474.0,0.52,0.84,-0.03,-1.37,-5.67,-12.01
2024-12-06 12:34:26.850,9.22,510.0,0.51,0.82,-0.03,-1.12,-5.67,-12.01
2024-12-06 12:34:26.858,14.85,481.0,0.51,0.81,-0.04,-2.34,-2.38,-12.38
2024-12-06 12:34:26.868,15.52,463.0,0.52,0.82,-0.0,-2.53,-2.99,-12.32
2024-12-06 12:34:26.899,17.55,478.0,0.53,0.82,-0.02,-2.53,-4.63,-12.07
2024-12-06 12:34:26.916,20.92,479.0,0.54,0.84,-0.01,-2.46,-1.64,-12.07
2024-12-06 12:34:26.918,17.55,485.0,0.55,0.84,-0.01,-2.22,-0.91,-11.95
2024-12-06 12:34:26.921,18.23,495.0,0.55,0.83,-0.03,-1.18,-1.95,-11.71
2024-12-06 12:34:26.931,22.5,486.0,0.55,0.84,-0.02,-1.18,-0.79,-11.34
2024-12-06 12:34:26.936,20.92,491.0,0.55,0.84,-0.02,-0.76,-2.5,-11.04
2024-12-06 12:34:26.948,24.3,472.0,0.54,0.84,-0.01,-0.82,-2.19,-10.98
2024-12-06 12:34:26.958,26.32,482.0,0.53,0.84,-0.02,-0.82,-2.19,-10.98
2024-12-06 12:34:26.975,20.7,483.0,0.52,0.84,-0.03,-0.21,-3.54,-10.85
2024-12-06 12:34:26.979,26.77,505.0,0.52,0.84,-0.04,-0.63,-3.41,-11.04
2024-12-06 12:34:26.984,27.45,486.0,0.52,0.86,-0.03,-0.82,-2.74,-10.91
2024-12-06 12:34:27.6,25.65,474.0,0.52,0.86,-0.03,-0.69,-3.9,-10.37
2024-12-06 12:34:27.10,29.92,479.0,0.52,0.88,-0.04,-0.94,-2.31,-9.63
2024-12-06 12:34:27.17,28.12,484.0,0.53,0.88,-0.03,-0.82,-2.07,-8.29
2024-12-06 12:34:27.29,27.0,483.0,0.5,0.88,-0.04,-0.69,-2.74,-7.19
2024-12-06 12:34:27.33,32.17,489.0,0.5,0.88,-0.05,-1.0,-0.79,-6.7
2024-12-06 12:34:27.39,32.17,481.0,0.51,0.88,-0.05,-1.0,0.55,-5.36
2024-12-06 12:34:27.47,32.62,475.0,0.53,0.9,-0.03,-1.0,0.55,-5.36
2024-12-06 12:34:27.78,29.02,491.0,0.51,0.9,-0.03,-0.63,-0.79,-3.59
2024-12-06 12:34:27.88,31.27,492.0,0.48,0.87,-0.05,0.1,0.31,-2.92
2024-12-06 12:34:27.92,30.6,511.0,0.53,0.9,-0.05,0.1,0.31,-2.92
2024-12-06 12:34:27.96,33.75,502.0,0.52,0.9,-0.04,0.28,-1.28,-0.78
2024-12-06 12:34:27.207,39.15,486.0,0.51,0.85,-0.03,5.23,6.35,1.48
2024-12-06 12:34:27.216,40.5,480.0,0.52,0.86,-0.02,5.29,6.11,2.09
2024-12-06 12:34:27.221,38.25,496.0,0.51,0.85,-0.02,5.59,5.56,2.57
2024-12-06 12:34:27.229,40.72,486.0,0.51,0.85,-0.02,5.53,5.31,2.51
2024-12-06 12:34:27.237,41.4,491.0,0.5,0.83,-0.02,5.16,5.44,2.33
2024-12-06 12:34:27.244,38.92,482.0,0.51,0.83,-0.01,5.16,5.44,2.33
2024-12-06 12:34:27.262,40.05,483.0,0.53,0.86,-0.02,4.8,5.44,2.88
2024-12-06 12:34:27.265,39.38,485.0,0.52,0.88,-0.02,4.49,4.77,3.79
2024-12-06 12:34:27.268,42.52,520.0,0.5,0.87,-0.02,4.19,4.52,4.22
2024-12-06 12:34:27.282,43.65,490.0,0.5,0.87,-0.02,3.88,4.64,3.86
2024-12-06 12:34:27.284,45.22,489.0,0.5,0.84,-0.02,3.27,5.01,3.73
2024-12-06 12:34:27.292,40.72,488.0,0.52,0.83,-0.01,3.27,5.01,3.73
2024-12-06 12:34:27.300,41.85,491.0,0.53,0.84,-0.01,2.66,4.09,4.4
2024-12-06 12:34:27.308,45.22,496.0,0.51,0.83,-0.01,1.75,3.54,4.83
2024-12-06 12:34:27.315,47.47,500.0,0.5,0.81,0.0,0.89,3.61,4.53
2024-12-06 12:34:27.323,48.6,490.0,0.5,0.81,0.0,0.1,3.24,3.98
2024-12-06 12:34:27.331,49.05,491.0,0.5,0.81,0.0,-0.82,2.51,4.16
2024-12-06 12:34:27.340,49.05,491.0,0.53,0.83,0.0,-0.82,2.51,4.16
2024-12-06 12:34:27.347,45.0,487.0,0.53,0.86,-0.01,-1.37,0.98,4.95
2024-12-06 12:34:27.355,45.0,509.0,0.51,0.86,-0.02,-1.67,0.13,5.26
2024-12-06 12:34:27.391,49.27,500.0,0.52,0.85,-0.03,-2.65,-1.15,3.92
2024-12-06 12:34:27.393,50.85,487.0,0.52,0.86,-0.03,-2.83,-1.89,3.92
2024-12-06 12:34:27.402,50.62,497.0,0.51,0.85,-0.02,-3.14,-2.5,3.92
2024-12-06 12:34:27.412,50.17,486.0,0.51,0.82,-0.02,-2.95,-2.74,3.06
2024-12-06 12:34:27.418,50.62,492.0,0.49,0.82,-0.02,-3.07,-2.19,2.02
2024-12-06 12:34:27.425,51.75,500.0,0.49,0.81,-0.02,-3.07,-2.19,2.02
2024-12-06 12:34:27.436,45.22,489.0,0.51,0.83,-0.02,-3.38,-1.34,1.54
2024-12-06 12:34:27.441,49.72,512.0,0.51,0.84,-0.02,-3.32,-1.46,1.66
2024-12-06 12:34:27.455,52.42,513.0,0.51,0.85,-0.02,-3.32,-1.64,1.96
2024-12-06 12:34:27.458,50.4,489.0,0.5,0.83,-0.02,-3.26,-1.4,1.72
2024-12-06 12:34:27.463,43.42,500.0,0.5,0.83,-0.02,-3.2,-0.85,0.8
2024-12-06 12:34:27.473,54.22,504.0,0.51,0.82,-0.02,-3.2,-0.85,0.8
2024-12-06 12:34:27.484,54.45,488.0,0.52,0.83,-0.03,-3.26,-0.91,0.32
2024-12-06 12:34:27.502,52.88,490.0,0.53,0.84,-0.03,-3.26,-1.4,0.13
2024-12-06 12:34:27.507,53.1,506.0,0.52,0.84,-0.03,-2.89,-2.19,-0.17
2024-12-06 12:34:27.513,55.57,491.0,0.51,0.83,-0.03,-2.71,-2.01,-0.6
2024-12-06 12:34:27.523,55.35,484.0,0.52,0.83,-0.04,-2.71,-2.01,-0.6
2024-12-06 12:34:27.526,51.52,487.0,0.52,0.84,-0.04,-2.65,-2.01,-0.48
2024-12-06 12:34:27.534,54.22,501.0,0.53,0.86,-0.03,-2.71,-2.31,0.25
2024-12-06 12:34:27.542,55.12,485.0,0.52,0.86,-0.04,-2.83,-2.56,1.11
2024-12-06 12:34:27.550,60.75,499.0,0.52,0.86,-0.04,-2.59,-2.13,0.99
2024-12-06 12:34:27.558,56.02,486.0,0.5,0.84,-0.04,-2.46,-1.46,0.74
2024-12-06 12:34:27.613,57.82,498.0,0.51,0.83,-0.04,-2.46,-1.46,0.74
2024-12-06 12:34:27.617,54.45,503.0,0.5,0.85,-0.02,-2.59,0.19,1.41
2024-12-06 12:34:27.620,59.85,494.0,0.51,0.85,-0.02,-2.71,0.98,1.54
2024-12-06 12:34:27.629,58.5,506.0,0.51,0.85,-0.02,-2.59,1.23,1.84
2024-12-06 12:34:27.644,64.35,499.0,0.51,0.85,-0.02,-2.28,0.68,2.02
2024-12-06 12:34:27.653,62.55,504.0,0.51,0.84,-0.02,-2.28,0.68,2.02
2024-12-06 12:34:27.658,63.9,532.0,0.51,0.83,-0.02,-2.28,0.8,1.72
2024-12-06 12:34:27.660,63.9,499.0,0.52,0.85,-0.02,-2.53,1.77,1.6
2024-12-06 12:34:27.675,64.57,507.0,0.52,0.86,-0.02,-2.65,1.9,2.02
2024-12-06 12:34:27.677,62.32,495.0,0.52,0.86,-0.02,-2.46,1.77,2.45
2024-12-06 12:34:27.681,62.77,518.0,0.51,0.85,-0.01,-2.28,1.77,2.27
2024-12-06 12:34:27.688,66.82,508.0,0.52,0.83,0.0,-2.28,1.77,2.27
2024-12-06 12:34:27.699,63.0,503.0,0.53,0.83,0.0,-2.53,2.02,2.51
2024-12-06 12:34:27.709,66.6,510.0,0.53,0.85,-0.0,-2.89,2.08,3.0
2024-12-06 12:34:27.715,67.72,506.0,0.52,0.85,-0.0,-2.89,1.96,3.49
2024-12-06 12:34:27.720,68.4,519.0,0.52,0.85,-0.0,-2.59,1.65,3.37
2024-12-06 12:34:27.730,65.7,501.0,0.51,0.82,-0.0,-2.4,1.77,2.76
2024-12-06 12:34:27.736,65.92,503.0,0.52,0.81,-0.01,-2.4,1.77,2.76
2024-12-06 12:34:27.744,67.05,526.0,0.53,0.82,-0.01,-2.53,2.08,2.76
2024-12-06 12:34:27.753,69.53,521.0,0.53,0.83,-0.01,-2.53,1.9,2.88
2024-12-06 12:34:27.762,70.2,508.0,0.53,0.82,0.0,-2.1,1.77,2.76
2024-12-06 12:34:27.770,70.42,508.0,0.53,0.82,0.0,-1.73,1.35,2.39
2024-12-06 12:34:27.777,72.45,526.0,0.53,0.81,0.01,-1.61,1.35,1.78
2024-12-06 12:34:27.783,73.57,516.0,0.54,0.82,0.01,-1.61,1.35,1.78
2024-12-06 12:34:27.820,70.88,516.0,0.54,0.84,0.0,-0.63,1.1,0.86
2024-12-06 12:34:27.823,69.07,534.0,0.54,0.83,0.01,-0.63,1.1,0.86
2024-12-06 12:34:27.828,68.85,511.0,0.55,0.85,0.0,-0.94,1.29,0.93
2024-12-06 12:34:27.836,72.67,503.0,0.55,0.86,-0.01,-0.94,1.04,1.48
2024-12-06 12:34:27.848,74.47,508.0,0.53,0.86,-0.01,-0.82,0.43,1.96
2024-12-06 12:34:27.856,75.82,522.0,0.53,0.86,-0.01,-0.76,0.43,2.09
2024-12-06 12:34:27.865,76.05,508.0,0.52,0.85,-0.01,-0.94,0.31,2.15
2024-12-06 12:34:27.870,70.88,509.0,0.52,0.84,-0.01,-0.94,0.31,2.15
2024-12-06 12:34:27.880,76.5,510.0,0.53,0.83,-0.01,-1.18,0.37,2.33
2024-12-06 12:34:27.886,74.03,504.0,0.53,0.84,-0.02,-1.37,0.8,2.57
2024-12-06 12:34:27.892,75.82,510.0,0.53,0.84,-0.02,-1.43,0.92,3.18
2024-12-06 12:34:27.900,78.53,508.0,0.53,0.84,-0.02,-1.3,0.68,3.92
2024-12-06 12:34:27.910,73.12,509.0,0.53,0.84,-0.02,-1.06,0.74,4.34
2024-12-06 12:34:27.917,74.03,510.0,0.53,0.84,-0.02,-1.06,0.74,4.65
2024-12-06 12:34:27.924,74.03,525.0,0.53,0.83,-0.02,-0.88,0.49,4.65
2024-12-06 12:34:27.937,74.25,508.0,0.54,0.82,-0.02,-0.88,0.49,4.59
2024-12-06 12:34:27.942,78.07,509.0,0.54,0.83,-0.01,-1.06,0.31,4.59
2024-12-06 12:34:27.950,76.95,565.0,0.54,0.84,-0.02,-1.18,0.07,4.71
2024-12-06 12:34:27.965,79.88,518.0,0.54,0.84,-0.02,-1.18,-0.06,4.95
2024-12-06 12:34:27.968,78.07,528.0,0.54,0.85,-0.01,-1.18,0.0,5.26
2024-12-06 12:34:27.971,79.65,509.0,0.54,0.85,-0.01,-1.12,0.0,5.26
2024-12-06 12:34:27.981,79.65,519.0,0.54,0.85,-0.0,-1.3,0.25,5.75
2024-12-06 12:34:27.990,79.42,520.0,0.54,0.84,-0.0,-1.49,0.68,6.24
2024-12-06 12:34:27.998,78.97,516.0,0.54,0.84,-0.0,-1.55,1.23,6.85
2024-12-06 12:34:28.3,78.53,544.0,0.54,0.84,-0.0,-1.67,1.23,7.46
2024-12-06 12:34:28.36,79.88,525.0,0.55,0.84,-0.0,-1.67,1.23,8.13
2024-12-06 12:34:28.38,75.6,523.0,0.57,0.85,0.01,-2.34,2.45,9.9
2024-12-06 12:34:28.41,77.62,521.0,0.57,0.85,0.01,-2.46,2.39,10.63
2024-12-06 12:34:28.48,76.72,526.0,0.57,0.84,0.01,-2.53,2.32,11.49
2024-12-06 12:34:28.60,81.0,527.0,0.57,0.84,0.0,-2.53,2.32,11.49
2024-12-06 12:34:28.67,81.0,530.0,0.56,0.84,-0.0,-2.4,2.26,12.34
2024-12-06 12:34:28.77,79.88,539.0,0.55,0.84,0.0,-2.22,1.71,13.26
2024-12-06 12:34:28.85,81.22,514.0,0.55,0.84,0.0,-1.92,1.35,14.35
2024-12-06 12:34:28.111,81.22,509.0,0.55,0.83,0.0,-1.18,0.68,16.55
2024-12-06 12:34:28.117,78.3,511.0,0.56,0.82,0.01,-0.69,0.19,17.41
2024-12-06 12:34:28.119,78.97,515.0,0.58,0.82,0.01,-0.33,0.13,17.34
2024-12-06 12:34:28.128,79.42,531.0,0.58,0.82,0.01,-0.08,0.62,16.98
2024-12-06 12:34:28.146,75.15,523.0,0.59,0.81,0.01,0.22,1.04,16.06
2024-12-06 12:34:28.148,81.45,518.0,0.6,0.82,0.01,0.22,1.04,16.06
2024-12-06 12:34:28.150,82.35,508.0,0.59,0.82,0.01,0.95,1.41,15.39
2024-12-06 12:34:28.162,79.88,525.0,0.6,0.81,0.0,1.81,2.02,13.74
2024-12-06 12:34:28.265,82.35,514.0,0.55,0.81,0.01,2.78,2.81,14.11
2024-12-06 12:34:28.270,82.35,513.0,0.57,0.77,0.01,2.42,3.85,13.93
2024-12-06 12:34:28.278,80.32,501.0,0.59,0.76,0.01,2.3,4.09,13.13
2024-12-06 12:34:28.294,83.03,529.0,0.59,0.76,0.01,2.6,4.22,12.28
2024-12-06 12:34:28.302,82.8,511.0,0.59,0.78,-0.0,3.03,4.46,11.73
2024-12-06 12:34:28.308,78.75,511.0,0.59,0.79,-0.0,3.03,4.46,11.73
2024-12-06 12:34:28.312,83.03,521.0,0.59,0.78,0.0,3.39,4.64,11.36
2024-12-06 12:34:28.320,79.88,513.0,0.6,0.78,0.01,3.76,4.4,11.06
2024-12-06 12:34:28.346,81.67,500.0,0.6,0.78,0.02,3.7,3.91,10.57
2024-12-06 12:34:28.348,79.42,503.0,0.61,0.78,0.02,3.76,3.12,10.26
2024-12-06 12:34:28.356,78.97,505.0,0.61,0.78,0.02,3.58,2.08,9.72
2024-12-06 12:34:28.371,82.12,504.0,0.62,0.78,0.02,3.46,1.1,8.74
2024-12-06 12:34:28.375,82.12,502.0,0.65,0.76,0.02,3.33,0.31,7.4
2024-12-06 12:34:28.379,83.92,514.0,0.62,0.76,0.02,3.39,-0.36,5.99
2024-12-06 12:34:28.387,85.28,509.0,0.64,0.74,0.02,3.39,-0.36,5.99
2024-12-06 12:34:28.395,80.55,526.0,0.63,0.73,0.02,3.58,-0.73,4.83
2024-12-06 12:34:28.404,83.92,516.0,0.62,0.73,0.02,3.76,-0.48,3.86
2024-12-06 12:34:28.412,82.35,505.0,0.61,0.73,0.02,3.94,0.37,3.06
2024-12-06 12:34:28.420,85.95,507.0,0.61,0.73,0.03,4.19,1.59,2.57
2024-12-06 12:34:28.428,82.57,504.0,0.6,0.73,0.03,4.31,3.0,2.02
2024-12-06 12:34:28.436,82.57,516.0,0.6,0.74,0.04,4.31,3.0,2.02
2024-12-06 12:34:28.442,85.05,495.0,0.6,0.74,0.03,4.25,4.22,1.35
2024-12-06 12:34:28.450,84.82,521.0,0.61,0.74,0.03,4.01,4.77,0.44
2024-12-06 12:34:28.484,83.92,511.0,0.65,0.72,0.01,3.15,4.03,-2.43
2024-12-06 12:34:28.488,85.28,501.0,0.64,0.74,0.0,2.97,3.61,-3.22
2024-12-06 12:34:28.499,84.38,512.0,0.63,0.75,0.0,3.03,3.42,-3.9
2024-12-06 12:34:28.507,80.55,493.0,0.63,0.75,0.0,3.39,3.12,-4.51
2024-12-06 12:34:28.516,82.8,494.0,0.63,0.75,0.0,3.64,3.12,-4.99
2024-12-06 12:34:28.522,82.57,494.0,0.62,0.75,0.0,3.64,3.12,-4.99
2024-12-06 12:34:28.526,81.67,491.0,0.63,0.75,0.0,3.82,2.87,-5.6
2024-12-06 12:34:28.544,83.47,491.0,0.65,0.74,0.0,3.94,1.84,-6.09
2024-12-06 12:34:28.546,83.47,491.0,0.66,0.74,-0.01,4.01,0.92,-6.46
2024-12-06 12:34:28.550,77.62,503.0,0.66,0.74,-0.01,3.94,0.25,-6.76
2024-12-06 12:34:28.563,82.12,502.0,0.66,0.74,-0.01,3.82,-0.12,-6.95
2024-12-06 12:34:28.565,79.2,487.0,0.65,0.74,-0.01,3.82,-0.12,-6.95
2024-12-06 12:34:28.573,83.25,506.0,0.65,0.75,-0.01,3.7,-0.36,-7.01
2024-12-06 12:34:28.581,83.25,503.0,0.65,0.75,-0.0,3.58,-0.24,-6.95
2024-12-06 12:34:28.589,81.67,483.0,0.64,0.75,-0.0,3.58,-0.12,-6.83
2024-12-06 12:34:28.598,79.42,504.0,0.64,0.75,-0.0,3.76,-0.24,-6.76
2024-12-06 12:34:28.609,80.1,489.0,0.64,0.75,-0.0,3.94,-0.67,-6.76
2024-12-06 12:34:28.613,81.9,506.0,0.64,0.76,-0.01,3.94,-0.67,-6.76
2024-12-06 12:34:28.624,83.03,489.0,0.65,0.76,-0.02,4.13,-0.91,-6.89
2024-12-06 12:34:28.635,79.65,505.0,0.65,0.76,-0.02,4.37,-1.7,-7.01
2024-12-06 12:34:28.638,81.9,493.0,0.65,0.75,-0.02,4.49,-2.07,-7.44
2024-12-06 12:34:28.646,80.78,503.0,0.65,0.75,-0.01,4.31,-1.7,-7.92
2024-12-06 12:34:28.653,81.45,506.0,0.66,0.75,-0.01,4.25,-1.89,-8.17
2024-12-06 12:34:28.662,80.1,509.0,0.65,0.76,-0.01,4.25,-1.89,-8.17
2024-12-06 12:34:28.669,76.95,500.0,0.64,0.78,-0.01,4.49,-2.19,-8.23
2024-12-06 12:34:28.678,81.22,505.0,0.63,0.78,-0.01,4.92,-2.25,-8.11
2024-12-06 12:34:28.691,78.75,489.0,0.63,0.78,-0.01,5.41,-1.95,-8.17
2024-12-06 12:34:28.693,79.65,483.0,0.63,0.78,-0.01,5.71,-1.28,-8.29
2024-12-06 12:34:28.707,83.92,491.0,0.63,0.78,-0.01,6.08,-1.03,-8.53
2024-12-06 12:34:28.713,83.92,485.0,0.63,0.76,-0.01,6.08,-1.03,-8.84
2024-12-06 12:34:28.717,81.45,496.0,0.62,0.75,-0.02,6.45,-1.15,-8.84
2024-12-06 12:34:28.725,85.5,492.0,0.63,0.75,-0.02,6.51,-1.58,-9.02
2024-12-06 12:34:28.738,78.75,505.0,0.63,0.75,-0.02,6.02,-2.13,-9.02
2024-12-06 12:34:28.742,80.78,502.0,0.63,0.75,-0.02,5.41,-2.25,-8.9
2024-12-06 12:34:28.747,82.57,492.0,0.62,0.76,-0.02,5.04,-2.62,-8.72
2024-12-06 12:34:28.793,82.8,491.0,0.62,0.77,-0.02,5.04,-2.62,-8.72
2024-12-06 12:34:28.797,82.35,507.0,0.61,0.78,-0.02,3.82,-4.57,-7.62
2024-12-06 12:34:28.807,83.25,501.0,0.6,0.78,-0.02,3.33,-4.69,-7.37
2024-12-06 12:34:28.814,78.3,521.0,0.6,0.78,-0.02,2.97,-5.12,-6.95
2024-12-06 12:34:28.818,85.28,502.0,0.6,0.79,-0.03,2.54,-4.45,-6.34
2024-12-06 12:34:28.824,81.67,516.0,0.6,0.79,-0.03,2.17,-3.6,-5.6
2024-12-06 12:34:28.833,83.92,511.0,0.6,0.8,-0.04,1.81,-3.11,-4.81
2024-12-06 12:34:28.841,79.42,500.0,0.6,0.81,-0.03,1.81,-3.11,-4.81
2024-12-06 12:34:28.851,82.8,526.0,0.59,0.81,-0.03,1.69,-3.17,-4.2
2024-12-06 12:34:28.856,78.07,524.0,0.59,0.8,-0.03,1.62,-3.17,-3.9
2024-12-06 12:34:28.863,83.03,507.0,0.59,0.8,-0.04,1.56,-3.23,-3.71
2024-12-06 12:34:28.871,82.57,513.0,0.59,0.8,-0.04,1.5,-3.96,-3.59
2024-12-06 12:34:28.885,79.42,516.0,0.59,0.8,-0.04,1.32,-4.39,-3.41
2024-12-06 12:34:28.889,82.8,512.0,0.59,0.8,-0.03,1.32,-4.39,-3.41
2024-12-06 12:34:28.895,83.03,516.0,0.59,0.8,-0.03,1.08,-4.82,-3.35
2024-12-06 12:34:28.978,82.35,530.0,0.56,0.8,-0.03,0.28,-3.29,-4.75
2024-12-06 12:34:28.986,80.1,530.0,0.55,0.8,-0.03,0.4,-3.05,-5.12
2024-12-06 12:34:28.994,82.57,531.0,0.55,0.8,-0.03,0.53,-3.47,-5.48
2024-12-06 12:34:29.2,84.6,532.0,0.55,0.8,-0.04,0.65,-3.05,-5.79
2024-12-06 12:34:29.10,79.88,521.0,0.56,0.8,-0.04,0.65,-3.05,-5.79
2024-12-06 12:34:29.21,77.17,512.0,0.56,0.81,-0.03,0.59,-3.54,-5.85
2024-12-06 12:34:29.26,79.2,538.0,0.56,0.8,-0.03,0.4,-4.33,-5.85
2024-12-06 12:34:29.34,79.65,508.0,0.56,0.8,-0.03,-0.02,-4.08,-5.91
2024-12-06 12:34:29.45,78.97,525.0,0.56,0.8,-0.03,-0.39,-3.84,-6.22
2024-12-06 12:34:29.53,82.57,517.0,0.56,0.79,-0.03,-0.88,-3.96,-6.46
2024-12-06 12:34:29.61,80.55,547.0,0.56,0.78,-0.03,-0.88,-3.96,-6.46
2024-12-06 12:34:29.72,82.35,519.0,0.57,0.77,-0.04,-1.24,-3.54,-6.7
2024-12-06 12:34:29.75,81.22,508.0,0.56,0.77,-0.04,-1.24,-4.33,-7.07
2024-12-06 12:34:29.81,82.8,509.0,0.57,0.77,-0.04,-1.3,-5.12,-7.5
2024-12-06 12:34:29.88,79.2,519.0,0.57,0.77,-0.04,-1.55,-5.49,-7.8
2024-12-06 12:34:29.96,82.57,508.0,0.57,0.79,-0.04,-1.92,-5.43,-7.86
2024-12-06 12:34:29.105,84.15,504.0,0.57,0.81,-0.03,-1.92,-5.43,-7.86
2024-12-06 12:34:29.112,79.2,538.0,0.57,0.83,-0.03,-2.04,-5.18,-7.74
2024-12-06 12:34:29.122,81.22,533.0,0.56,0.84,-0.03,-2.28,-3.96,-7.56
2024-12-06 12:34:29.164,72.22,511.0,0.56,0.85,-0.03,-2.4,-2.5,-7.19
2024-12-06 12:34:29.171,82.57,532.0,0.58,0.83,-0.05,-1.98,0.74,-4.75
2024-12-06 12:34:29.174,80.32,527.0,0.58,0.83,-0.05,-1.92,0.37,-4.32
2024-12-06 12:34:29.182,82.57,534.0,0.58,0.82,-0.05,-1.92,0.37,-3.77
2024-12-06 12:34:29.188,84.15,527.0,0.59,0.82,-0.06,-1.98,-0.18,-3.77
2024-12-06 12:34:29.197,84.82,506.0,0.6,0.82,-0.06,-2.1,-0.97,-2.98
2024-12-06 12:34:29.305,82.12,542.0,0.57,0.81,-0.03,-1.49,-3.41,1.05
2024-12-06 12:34:29.312,79.88,511.0,0.56,0.81,-0.04,-1.37,-2.8,1.05
2024-12-06 12:34:29.327,84.38,504.0,0.56,0.81,-0.05,-0.82,-2.86,0.74
2024-12-06 12:34:29.333,82.12,515.0,0.56,0.81,-0.05,-0.51,-2.92,0.5
2024-12-06 12:34:29.342,79.2,528.0,0.56,0.81,-0.05,-0.51,-2.92,0.5
2024-12-06 12:34:29.348,79.88,505.0,0.56,0.81,-0.05,-0.39,-2.92,0.25
2024-12-06 12:34:29.357,82.12,523.0,0.56,0.81,-0.04,-0.39,-2.74,0.01
2024-12-06 12:34:29.388,81.45,530.0,0.56,0.8,-0.04,-0.57,-2.13,-1.09
2024-12-06 12:34:29.394,83.92,527.0,0.56,0.8,-0.04,-0.45,-1.7,-1.52
2024-12-06 12:34:29.402,77.4,525.0,0.56,0.8,-0.04,-0.39,-1.4,-1.82
2024-12-06 12:34:29.410,76.95,516.0,0.57,0.8,-0.04,-0.21,-1.03,-2.0
2024-12-06 12:34:29.425,79.2,511.0,0.57,0.8,-0.04,0.04,-0.79,-2.06
2024-12-06 12:34:29.429,78.07,526.0,0.57,0.8,-0.04,0.04,-0.79,-2.06
2024-12-06 12:34:29.434,80.1,531.0,0.57,0.8,-0.04,0.22,-0.67,-2.19
2024-12-06 12:34:29.441,84.38,522.0,0.57,0.81,-0.04,0.34,-0.67,-2.25
2024-12-06 12:34:29.452,72.67,526.0,0.57,0.81,-0.04,0.47,-0.67,-2.37
2024-12-06 12:34:29.457,76.5,515.0,0.57,0.81,-0.04,0.47,-0.73,-2.55
2024-12-06 12:34:29.465,82.8,526.0,0.57,0.81,-0.04,0.47,-0.85,-2.74
2024-12-06 12:34:29.473,81.67,514.0,0.57,0.81,-0.04,0.47,-0.85,-2.8
2024-12-06 12:34:29.488,83.25,518.0,0.57,0.82,-0.05,0.4,-1.03,-2.8
2024-12-06 12:34:29.491,82.12,508.0,0.57,0.82,-0.05,0.4,-1.15,-2.86
2024-12-06 12:34:29.497,78.53,543.0,0.56,0.82,-0.05,0.34,-1.09,-2.92
2024-12-06 12:34:29.504,80.32,514.0,0.56,0.82,-0.05,0.28,-1.22,-2.86
2024-12-06 12:34:29.512,82.8,513.0,0.56,0.82,-0.05,0.16,-1.22,-2.74
2024-12-06 12:34:29.522,79.42,532.0,0.57,0.82,-0.05,0.16,-1.22,-2.74
2024-12-06 12:34:29.534,82.12,542.0,0.57,0.82,-0.05,0.04,-1.09,-2.68
2024-12-06 12:34:29.537,83.25,506.0,0.57,0.82,-0.05,0.04,-1.03,-2.55
2024-12-06 12:34:29.543,83.03,513.0,0.57,0.82,-0.04,0.04,-1.22,-2.37
2024-12-06 12:34:29.550,81.0,506.0,0.57,0.82,-0.04,0.1,-1.52,-2.19
2024-12-06 12:34:29.558,82.12,526.0,0.57,0.81,-0.04,0.16,-1.58,-2.13
2024-12-06 12:34:29.567,84.38,535.0,0.57,0.81,-0.04,0.16,-1.58,-2.13
2024-12-06 12:34:29.579,83.47,516.0,0.56,0.82,-0.04,0.22,-1.52,-2.06
2024-12-06 12:34:29.615,82.12,544.0,0.56,0.82,-0.04,0.4,-1.22,-1.7
2024-12-06 12:34:29.621,83.92,526.0,0.56,0.82,-0.04,0.34,-1.09,-1.58
2024-12-06 12:34:29.632,85.05,545.0,0.56,0.82,-0.04,0.22,-0.91,-1.45
2024-12-06 12:34:29.637,79.42,518.0,0.56,0.82,-0.04,0.16,-0.67,-1.39
2024-12-06 12:34:29.645,74.7,520.0,0.55,0.82,-0.04,0.1,-0.54,-1.33
2024-12-06 12:34:29.652,82.35,525.0,0.56,0.82,-0.04,0.1,-0.54,-1.33
2024-12-06 12:34:29.667,82.35,517.0,0.56,0.81,-0.04,0.22,-0.42,-1.21
2024-12-06 12:34:29.669,84.38,509.0,0.56,0.81,-0.04,0.22,-0.42,-1.09
2024-12-06 12:34:29.677,83.25,515.0,0.56,0.81,-0.04,0.22,-0.79,-1.03
2024-12-06 12:34:29.683,79.2,542.0,0.56,0.81,-0.04,0.04,-0.79,-1.09
2024-12-06 12:34:29.690,86.85,519.0,0.56,0.81,-0.04,0.04,-0.61,-1.15
2024-12-06 12:34:29.698,82.12,517.0,0.56,0.81,-0.04,0.04,-0.61,-1.15
2024-12-06 12:34:29.706,84.6,498.0,0.56,0.81,-0.04,0.1,-0.73,-1.09
2024-12-06 12:34:29.714,83.03,517.0,0.56,0.81,-0.04,0.16,-0.85,-1.03
2024-12-06 12:34:29.724,72.0,519.0,0.56,0.81,-0.04,0.22,-0.85,-1.09
2024-12-06 12:34:29.730,83.92,516.0,0.56,0.81,-0.04,0.28,-0.79,-1.15
2024-12-06 12:34:29.741,82.57,516.0,0.56,0.81,-0.04,0.34,-0.79,-1.27
2024-12-06 12:34:29.760,78.75,507.0,0.56,0.81,-0.04,0.34,-0.97,-1.45
2024-12-06 12:34:29.763,78.97,521.0,0.56,0.81,-0.05,0.34,-1.03,-1.52
2024-12-06 12:34:29.771,84.6,531.0,0.56,0.81,-0.05,0.47,-1.09,-1.58
2024-12-06 12:34:29.777,82.57,487.0,0.56,0.81,-0.05,0.47,-1.22,-1.64
2024-12-06 12:34:29.785,82.12,531.0,0.56,0.81,-0.05,0.47,-1.15,-1.7
2024-12-06 12:34:29.793,82.8,515.0,0.56,0.81,-0.05,0.47,-1.15,-1.7
2024-12-06 12:34:29.801,83.25,541.0,0.56,0.81,-0.04,0.47,-1.03,-1.76
2024-12-06 12:34:29.810,83.92,516.0,0.55,0.81,-0.04,0.4,-0.91,-1.76
2024-12-06 12:34:29.817,78.75,528.0,0.55,0.82,-0.04,0.28,-0.73,-1.76
2024-12-06 12:34:29.849,80.32,525.0,0.55,0.81,-0.05,0.1,-0.48,-2.13
2024-12-06 12:34:29.854,81.22,521.0,0.55,0.81,-0.05,0.1,-0.42,-2.37
2024-12-06 12:34:29.863,86.85,508.0,0.55,0.81,-0.05,0.04,-0.24,-2.55
2024-12-06 12:34:29.870,85.72,509.0,0.55,0.81,-0.05,-0.02,-0.42,-2.68
2024-12-06 12:34:29.878,81.45,521.0,0.55,0.81,-0.05,-0.02,-0.42,-2.68
2024-12-06 12:34:29.890,79.88,529.0,0.55,0.81,-0.05,-0.02,-0.42,-2.8
2024-12-06 12:34:29.894,81.0,516.0,0.56,0.81,-0.05,-0.02,-0.42,-2.86
2024-12-06 12:34:29.903,82.57,518.0,0.55,0.81,-0.04,-0.02,-0.67,-2.86
2024-12-06 12:34:29.913,74.92,533.0,0.55,0.81,-0.05,0.04,-0.61,-2.86
2024-12-06 12:34:29.919,79.65,518.0,0.55,0.81,-0.05,0.04,-0.48,-2.86
2024-12-06 12:34:29.930,83.03,511.0,0.55,0.81,-0.05,0.04,-0.48,-2.86
2024-12-06 12:34:29.934,84.82,525.0,0.55,0.81,-0.05,0.16,-0.18,-2.92
2024-12-06 12:34:29.941,82.57,522.0,0.55,0.82,-0.05,0.28,0.13,-2.8
2024-12-06 12:34:29.953,82.8,504.0,0.56,0.82,-0.05,0.34,0.31,-2.61
2024-12-06 12:34:29.958,80.32,531.0,0.56,0.82,-0.05,0.4,0.37,-2.31
2024-12-06 12:34:29.965,82.8,516.0,0.56,0.82,-0.05,0.47,0.55,-2.06
2024-12-06 12:34:29.972,81.9,525.0,0.56,0.82,-0.05,0.47,0.55,-2.06
2024-12-06 12:34:29.980,84.82,509.0,0.56,0.82,-0.05,0.34,0.62,-1.94
2024-12-06 12:34:29.991,83.03,510.0,0.56,0.82,-0.05,0.22,0.68,-1.76
2024-12-06 12:34:29.996,81.67,532.0,0.56,0.82,-0.05,0.22,0.62,-1.58
2024-12-06 12:34:30.5,83.25,520.0,0.56,0.82,-0.05,0.34,0.62,-1.39
2024-12-06 12:34:30.11,83.25,533.0,0.57,0.82,-0.06,0.53,0.43,-1.21
2024-12-06 12:34:30.23,82.8,517.0,0.57,0.83,-0.06,0.53,0.43,-1.21
2024-12-06 12:34:30.29,84.38,532.0,0.57,0.83,-0.05,0.77,0.25,-0.97
2024-12-06 12:34:30.35,83.03,507.0,0.57,0.82,-0.05,0.95,0.13,-0.72
2024-12-06 12:34:30.70,84.6,520.0,0.57,0.82,-0.05,1.26,-0.24,0.13
2024-12-06 12:34:30.73,83.03,527.0,0.56,0.82,-0.05,1.26,-0.36,0.38
2024-12-06 12:34:30.81,83.25,518.0,0.56,0.82,-0.05,1.32,-0.73,0.68
2024-12-06 12:34:30.105,79.88,515.0,0.55,0.82,-0.05,1.26,-0.85,1.11
2024-12-06 12:34:30.113,83.03,524.0,0.55,0.82,-0.05,1.14,-0.85,1.29
2024-12-06 12:34:30.123,82.35,518.0,0.55,0.82,-0.05,0.95,-0.73,1.35
2024-12-06 12:34:30.129,81.9,515.0,0.55,0.82,-0.05,0.77,-0.48,1.41
2024-12-06 12:34:30.139,79.88,544.0,0.55,0.82,-0.05,0.65,-0.24,1.41
2024-12-06 12:34:30.147,81.9,515.0,0.55,0.82,-0.04,0.65,-0.12,1.23
2024-12-06 12:34:30.156,81.22,513.0,0.55,0.81,-0.05,0.65,-0.12,1.23
2024-12-06 12:34:30.159,80.78,510.0,0.55,0.81,-0.05,0.65,0.43,0.99
2024-12-06 12:34:30.167,80.1,525.0,0.55,0.81,-0.04,0.59,0.25,0.62
2024-12-06 12:34:30.175,79.65,519.0,0.55,0.81,-0.04,0.53,0.31,0.25
2024-12-06 12:34:30.188,82.8,516.0,0.55,0.81,-0.04,0.47,0.55,-0.29
2024-12-06 12:34:30.192,83.03,514.0,0.55,0.8,-0.04,0.4,0.55,-0.84
2024-12-06 12:34:30.199,83.47,503.0,0.56,0.8,-0.04,0.4,0.55,-0.84
2024-12-06 12:34:30.207,81.45,517.0,0.56,0.8,-0.04,0.4,0.62,-1.45
2024-12-06 12:34:30.216,79.65,527.0,0.56,0.8,-0.04,0.47,0.49,-2.06
2024-12-06 12:34:30.221,79.65,510.0,0.56,0.8,-0.04,0.47,0.49,-2.49
2024-12-06 12:34:30.230,82.12,511.0,0.56,0.8,-0.04,0.47,0.25,-2.86
2024-12-06 12:34:30.238,77.85,546.0,0.56,0.8,-0.04,0.47,0.37,-3.29
2024-12-06 12:34:30.359,83.25,524.0,0.55,0.81,-0.05,-0.51,-1.7,-5.06
2024-12-06 12:34:30.370,84.82,531.0,0.56,0.81,-0.05,-0.33,-1.95,-4.93
2024-12-06 12:34:30.375,82.57,513.0,0.56,0.81,-0.05,-0.08,-1.95,-4.75
2024-12-06 12:34:30.383,79.2,522.0,0.56,0.81,-0.04,0.04,-2.07,-4.51
2024-12-06 12:34:30.391,83.7,528.0,0.56,0.81,-0.04,-0.02,-2.01,-4.26
2024-12-06 12:34:30.402,78.75,534.0,0.56,0.81,-0.04,-0.02,-2.01,-4.26
2024-12-06 12:34:30.415,79.2,515.0,0.55,0.81,-0.04,-0.33,-1.7,-4.14
2024-12-06 12:34:30.417,82.35,519.0,0.54,0.82,-0.04,-0.63,-0.67,-4.2
2024-12-06 12:34:30.421,85.28,526.0,0.53,0.83,-0.04,-0.94,0.19,-4.45
2024-12-06 12:34:30.432,83.47,526.0,0.53,0.83,-0.04,-1.12,1.1,-4.69
2024-12-06 12:34:30.440,77.62,511.0,0.53,0.84,-0.05,-1.37,1.9,-4.75
2024-12-06 12:34:30.444,82.12,520.0,0.53,0.85,-0.05,-1.37,1.9,-4.75
2024-12-06 12:34:30.452,80.32,520.0,0.54,0.84,-0.05,-1.49,3.67,-4.81
2024-12-06 12:34:30.462,82.57,527.0,0.54,0.83,-0.05,-1.55,5.62,-4.75
2024-12-06 12:34:30.470,81.9,518.0,0.55,0.83,-0.04,-1.61,4.83,-4.45
2024-12-06 12:34:30.478,82.35,508.0,0.55,0.83,-0.06,-1.24,4.77,-4.08
2024-12-06 12:34:30.490,84.82,520.0,0.56,0.83,-0.06,-0.88,6.05,-3.96
2024-12-06 12:34:30.530,82.12,511.0,0.56,0.84,-0.06,-0.88,6.05,-3.96
2024-12-06 12:34:30.535,78.3,521.0,0.54,0.8,-0.02,-0.94,6.6,-6.7
2024-12-06 12:34:30.543,83.7,513.0,0.55,0.79,-0.03,-1.0,6.35,-7.92
2024-12-06 12:34:30.548,81.67,502.0,0.55,0.78,-0.04,-0.51,6.11,-9.33
2024-12-06 12:34:30.555,82.57,508.0,0.56,0.79,-0.04,-0.21,6.29,-10.24
2024-12-06 12:34:30.562,83.25,494.0,0.56,0.79,-0.04,0.22,5.74,-10.61
2024-12-06 12:34:30.570,84.82,517.0,0.56,0.8,-0.04,0.65,5.31,-11.22
2024-12-06 12:34:30.576,80.32,505.0,0.54,0.8,-0.05,0.65,5.31,-11.22
2024-12-06 12:34:30.584,81.67,505.0,0.53,0.8,-0.05,1.26,5.44,-12.14
2024-12-06 12:34:30.593,84.82,505.0,0.52,0.82,-0.05,2.05,5.56,-12.68
2024-12-06 12:34:30.601,80.1,501.0,0.52,0.84,-0.05,3.03,4.52,-12.75
2024-12-06 12:34:30.608,81.67,495.0,0.51,0.85,-0.05,4.01,3.85,-12.26
2024-12-06 12:34:30.616,80.1,508.0,0.51,0.85,-0.05,4.74,4.22,-11.71
2024-12-06 12:34:30.628,81.67,490.0,0.5,0.85,-0.05,4.74,4.83,-11.4
2024-12-06 12:34:30.634,81.22,487.0,0.5,0.86,-0.04,5.29,4.83,-11.4
2024-12-06 12:34:30.640,78.53,484.0,0.51,0.86,-0.03,5.59,5.25,-11.16
2024-12-06 12:34:30.649,80.55,496.0,0.51,0.87,-0.03,5.78,5.68,-10.91
2024-12-06 12:34:30.672,84.15,491.0,0.5,0.82,-0.04,5.9,10.38,-14.76
2024-12-06 12:34:30.689,78.97,487.0,0.52,0.78,-0.03,5.9,10.38,-14.76
2024-12-06 12:34:30.691,81.0,500.0,0.48,0.89,-0.02,6.08,11.24,-15.13
2024-12-06 12:34:30.695,79.65,484.0,0.45,0.86,-0.06,8.4,7.94,-11.71
2024-12-06 12:34:30.706,81.67,501.0,0.45,0.86,-0.09,6.93,8.37,-12.62
2024-12-06 12:34:30.710,80.32,500.0,0.5,0.82,-0.06,7.48,8.0,-12.26
2024-12-06 12:34:30.747,78.53,499.0,0.49,0.88,-0.04,7.3,10.38,-11.34
2024-12-06 12:34:30.750,79.88,499.0,0.49,0.88,-0.04,7.24,10.38,-10.98
2024-12-06 12:34:30.757,81.45,495.0,0.49,0.89,-0.05,7.06,10.62,-10.43
2024-12-06 12:34:30.765,82.12,499.0,0.49,0.89,-0.05,7.06,10.62,-10.43
2024-12-06 12:34:30.775,83.03,501.0,0.49,0.87,-0.05,6.63,10.93,-10.0
2024-12-06 12:34:30.781,82.8,490.0,0.49,0.85,-0.05,6.26,10.69,-9.69
2024-12-06 12:34:30.788,81.9,484.0,0.49,0.84,-0.05,5.78,10.08,-9.45
2024-12-06 12:34:30.797,78.97,500.0,0.49,0.84,-0.05,5.41,9.1,-9.21
2024-12-06 12:34:30.810,82.35,492.0,0.5,0.84,-0.05,4.98,8.0,-8.84
2024-12-06 12:34:30.812,81.67,483.0,0.5,0.85,-0.05,4.98,8.0,-8.84
2024-12-06 12:34:30.820,79.42,495.0,0.5,0.87,-0.05,4.68,6.84,-8.47
2024-12-06 12:34:30.834,80.55,502.0,0.49,0.87,-0.05,4.37,6.78,-8.29
2024-12-06 12:34:30.840,84.6,489.0,0.49,0.87,-0.04,4.01,6.47,-8.23
2024-12-06 12:34:30.847,82.35,484.0,0.49,0.87,-0.03,4.01,5.62,-7.92
2024-12-06 12:34:30.853,83.25,524.0,0.49,0.85,-0.03,4.07,6.78,-7.99
2024-12-06 12:34:30.860,79.42,494.0,0.47,0.83,-0.05,4.07,6.78,-7.99
2024-12-06 12:34:30.871,85.28,497.0,0.47,0.84,-0.03,4.07,6.54,-8.35
2024-12-06 12:34:30.877,78.75,474.0,0.48,0.84,-0.03,4.49,5.5,-8.29
2024-12-06 12:34:30.885,86.4,499.0,0.5,0.85,-0.04,4.25,6.78,-8.11
2024-12-06 12:34:30.891,80.55,494.0,0.49,0.85,-0.04,4.55,6.66,-8.11
2024-12-06 12:34:30.899,78.97,490.0,0.49,0.85,-0.04,4.68,6.17,-8.53
2024-12-06 12:34:30.923,79.88,482.0,0.49,0.85,-0.04,4.68,6.17,-9.39
2024-12-06 12:34:30.928,79.42,497.0,0.49,0.85,-0.03,4.68,4.7,-10.3
2024-12-06 12:34:30.932,80.55,480.0,0.49,0.86,-0.03,4.31,4.28,-10.85
2024-12-06 12:34:30.942,79.65,485.0,0.49,0.86,-0.03,4.07,3.73,-11.1
2024-12-06 12:34:30.970,82.12,486.0,0.47,0.87,-0.04,3.94,2.93,-11.65
2024-12-06 12:34:30.978,80.1,497.0,0.47,0.86,-0.03,3.52,1.84,-12.75
2024-12-06 12:34:30.986,80.32,495.0,0.47,0.86,-0.03,3.21,1.16,-13.17
2024-12-06 12:34:30.993,81.67,508.0,0.47,0.85,-0.03,2.72,0.8,-13.66
2024-12-06 12:34:31.1,84.38,478.0,0.47,0.85,-0.03,2.72,0.8,-13.66
2024-12-06 12:34:31.9,81.45,501.0,0.47,0.87,-0.03,1.99,0.74,-14.45
2024-12-06 12:34:31.20,78.53,484.0,0.48,0.93,-0.04,1.01,1.1,-13.54
2024-12-06 12:34:31.32,69.07,491.0,0.46,0.95,-0.05,0.89,1.04,-10.67
2024-12-06 12:34:31.35,76.5,506.0,0.46,0.95,-0.05,0.4,2.2,-9.33
2024-12-06 12:34:31.45,78.07,482.0,0.47,0.93,-0.06,-0.21,2.81,-7.56
2024-12-06 12:34:31.51,80.55,495.0,0.46,0.93,-0.06,-0.21,2.81,-7.56
2024-12-06 12:34:31.59,82.35,486.0,0.44,0.92,-0.06,-0.39,3.0,-6.34
2024-12-06 12:34:31.67,80.55,490.0,0.45,0.91,-0.06,-1.3,4.03,-5.42
2024-12-06 12:34:31.73,75.15,474.0,0.45,0.91,-0.06,-2.22,3.97,-4.2
2024-12-06 12:34:31.80,79.65,485.0,0.45,0.91,-0.06,-3.07,4.22,-2.92
2024-12-06 12:34:31.90,77.4,493.0,0.46,0.91,-0.06,-3.5,4.52,-1.45
2024-12-06 12:34:31.100,77.85,467.0,0.46,0.9,-0.06,-3.5,4.52,-1.45
2024-12-06 12:34:31.106,77.17,486.0,0.46,0.88,-0.07,-3.32,4.89,-0.72
2024-12-06 12:34:31.112,72.9,481.0,0.47,0.88,-0.07,-3.01,5.13,-0.11
2024-12-06 12:34:31.119,75.6,494.0,0.48,0.89,-0.06,-2.59,4.77,0.86
2024-12-06 12:34:31.128,74.03,494.0,0.47,0.88,-0.06,-1.61,4.77,1.41
2024-12-06 12:34:31.137,72.45,477.0,0.47,0.88,-0.06,-0.45,5.38,0.99
2024-12-06 12:34:31.143,71.78,488.0,0.48,0.86,-0.05,-0.45,5.38,1.29
2024-12-06 12:34:31.160,69.3,502.0,0.51,0.87,-0.05,0.71,5.13,1.29
2024-12-06 12:34:31.165,72.9,490.0,0.51,0.88,-0.05,1.93,4.22,2.27
2024-12-06 12:34:31.197,74.92,487.0,0.49,0.9,-0.02,4.68,4.03,2.21
2024-12-06 12:34:31.199,70.88,489.0,0.48,0.9,-0.03,5.1,3.48,2.7
2024-12-06 12:34:31.206,67.72,488.0,0.46,0.89,-0.05,5.71,4.34,2.15
2024-12-06 12:34:31.212,67.28,480.0,0.46,0.88,-0.05,6.51,4.7,1.72
2024-12-06 12:34:31.220,66.6,485.0,0.47,0.88,-0.05,7.24,3.61,1.78
2024-12-06 12:34:31.228,67.72,478.0,0.47,0.87,-0.05,7.24,3.61,1.78
2024-12-06 12:34:31.236,67.05,497.0,0.47,0.87,-0.04,7.3,3.24,1.84
2024-12-06 12:34:31.244,66.82,485.0,0.46,0.85,-0.04,7.18,2.81,1.66
2024-12-06 12:34:31.253,67.28,485.0,0.45,0.84,-0.04,6.93,2.75,0.86
2024-12-06 12:34:31.265,65.7,491.0,0.46,0.86,-0.03,6.57,2.02,0.38
2024-12-06 12:34:31.274,63.9,493.0,0.46,0.86,-0.03,6.2,0.8,0.25
2024-12-06 12:34:31.276,63.0,486.0,0.47,0.87,-0.04,6.2,-14.83,0.44
2024-12-06 12:34:31.284,65.92,495.0,0.47,0.88,-0.04,5.96,-0.3,0.44
2024-12-06 12:34:31.294,68.4,501.0,0.46,0.87,-0.05,6.02,-1.46,0.38
2024-12-06 12:34:31.303,62.1,483.0,0.45,0.85,-0.05,5.78,-1.95,-0.36
2024-12-06 12:34:31.307,63.22,490.0,0.47,0.85,-0.04,5.04,-2.07,-0.78
2024-12-06 12:34:31.400,62.32,488.0,0.47,0.85,-0.04,4.13,-2.38,-0.42
2024-12-06 12:34:31.410,59.62,489.0,0.46,0.85,-0.04,0.95,-5.79,-2.37
2024-12-06 12:34:31.419,59.62,489.0,0.48,0.88,-0.04,0.1,-6.77,-2.37
2024-12-06 12:34:31.422,62.55,495.0,0.48,0.89,-0.03,-0.51,-7.5,-1.82
2024-12-06 12:34:31.431,59.85,496.0,0.48,0.89,-0.03,-1.06,-7.44,-2.0
2024-12-06 12:34:31.441,61.88,496.0,0.45,0.86,-0.04,-1.55,-6.83,-3.29
2024-12-06 12:34:31.444,55.57,489.0,0.43,0.83,-0.04,-1.55,-6.83,-3.29
2024-12-06 12:34:31.452,58.05,492.0,0.45,0.83,-0.04,-1.85,-7.08,-4.32
2024-12-06 12:34:31.491,58.72,511.0,0.42,0.85,-0.05,-2.16,-7.08,-4.57
2024-12-06 12:34:31.498,55.12,511.0,0.43,0.85,-0.05,-2.59,-6.16,-5.79
2024-12-06 12:34:31.500,53.1,505.0,0.44,0.86,-0.05,-2.71,-6.1,-6.15
2024-12-06 12:34:31.509,55.35,493.0,0.44,0.86,-0.07,-2.77,-6.4,-6.76
2024-12-06 12:34:31.514,56.25,501.0,0.44,0.86,-0.07,-2.1,-6.77,-7.74
2024-12-06 12:34:31.530,50.62,515.0,0.43,0.84,-0.08,-1.61,-8.54,-8.6
2024-12-06 12:34:31.540,45.0,518.0,0.44,0.82,-0.07,-1.61,-8.54,-8.6
2024-12-06 12:34:31.543,54.67,501.0,0.46,0.85,-0.06,-2.59,-9.09,-8.9
2024-12-06 12:34:31.547,54.9,505.0,0.46,0.88,-0.06,-3.32,-9.52,-8.53
2024-12-06 12:34:31.554,51.3,496.0,0.42,0.88,-0.08,-3.75,-9.88,-8.66
2024-12-06 12:34:31.561,51.07,521.0,0.42,0.88,-0.08,-4.3,-9.03,-9.69
2024-12-06 12:34:31.569,49.5,538.0,0.41,0.87,-0.09,-4.91,-8.97,-9.63
2024-12-06 12:34:31.577,45.22,523.0,0.45,0.88,-0.06,-4.91,-8.97,-9.63
2024-12-06 12:34:31.585,49.27,507.0,0.46,0.87,-0.06,-5.21,-9.82,-8.66
2024-12-06 12:34:31.595,50.62,514.0,0.43,0.85,-0.06,-5.58,-9.64,-8.41
2024-12-06 12:34:31.606,49.72,509.0,0.41,0.85,-0.06,-6.0,-9.09,-9.21
2024-12-06 12:34:31.617,46.12,501.0,0.43,0.88,-0.05,-6.31,-8.36,-9.63
2024-12-06 12:34:31.645,47.47,514.0,0.41,0.89,-0.06,-6.8,-5.18,-8.6
2024-12-06 12:34:31.647,48.15,501.0,0.44,0.88,-0.05,-6.86,-3.9,-9.39
2024-12-06 12:34:31.655,42.3,507.0,0.44,0.88,-0.05,-6.55,-5.18,-8.96
2024-12-06 12:34:31.662,46.57,490.0,0.46,0.88,-0.05,-6.55,-5.18,-8.96
2024-12-06 12:34:31.670,42.97,513.0,0.44,0.86,-0.05,-6.13,-7.08,-8.84
2024-12-06 12:34:31.679,45.45,506.0,0.42,0.86,-0.06,-6.07,-7.87,-9.82
2024-12-06 12:34:31.686,42.97,502.0,0.42,0.88,-0.06,-6.31,-7.69,-10.98
2024-12-06 12:34:31.708,40.5,495.0,0.44,0.91,-0.05,-6.74,-7.38,-11.04
2024-12-06 12:34:31.710,42.97,529.0,0.43,0.92,-0.05,-6.92,-5.55,-10.24
2024-12-06 12:34:31.718,39.15,501.0,0.41,0.9,-0.06,-6.86,-5.55,-10.24
2024-12-06 12:34:31.726,41.85,488.0,0.39,0.88,-0.06,-6.31,-4.39,-10.85
2024-12-06 12:34:31.734,44.1,507.0,0.41,0.88,-0.05,-6.07,-3.41,-11.16
2024-12-06 12:34:31.743,40.72,482.0,0.42,0.9,-0.04,-5.76,-3.29,-10.49
2024-12-06 12:34:31.750,37.12,492.0,0.42,0.9,-0.04,-5.7,-2.56,-9.63
2024-12-06 12:34:31.758,39.6,500.0,0.42,0.92,-0.05,-5.76,-0.73,-9.14
2024-12-06 12:34:31.765,39.6,487.0,0.4,0.93,-0.05,-5.76,-0.73,-9.14
2024-12-06 12:34:31.778,42.08,483.0,0.41,0.93,-0.06,-5.52,1.1,-9.02
2024-12-06 12:34:31.784,41.62,499.0,0.42,0.92,-0.06,-4.91,2.08,-8.53
2024-12-06 12:34:31.793,35.33,491.0,0.43,0.91,-0.06,-4.23,2.57,-8.17
2024-12-06 12:34:31.801,41.17,488.0,0.43,0.9,-0.06,-3.75,3.0,-8.05
2024-12-06 12:34:31.805,37.58,487.0,0.43,0.9,-0.06,-3.38,3.18,-7.99
2024-12-06 12:34:31.813,35.55,499.0,0.42,0.89,-0.05,-3.38,3.18,-7.99
2024-12-06 12:34:31.821,38.02,488.0,0.41,0.9,-0.05,-2.59,3.24,-8.53
2024-12-06 12:34:31.832,38.92,468.0,0.42,0.91,-0.05,-2.04,3.61,-8.96
2024-12-06 12:34:31.844,35.55,485.0,0.42,0.93,-0.05,-1.24,3.06,-8.84
2024-12-06 12:34:31.848,32.62,487.0,0.42,0.93,-0.05,-0.69,2.81,-8.72
2024-12-06 12:34:31.854,33.3,498.0,0.42,0.92,-0.05,-0.33,2.63,-8.84
2024-12-06 12:34:31.860,32.85,522.0,0.42,0.91,-0.04,-0.33,2.63,-8.84
2024-12-06 12:34:31.869,28.35,492.0,0.41,0.9,-0.04,-0.08,2.02,-9.08
2024-12-06 12:34:31.876,29.92,489.0,0.4,0.9,-0.05,0.28,1.1,-9.69
2024-12-06 12:34:31.887,32.62,488.0,0.4,0.92,-0.05,0.22,1.23,-10.12
2024-12-06 12:34:31.893,30.6,491.0,0.4,0.95,-0.05,0.16,1.23,-10.06
2024-12-06 12:34:31.901,31.05,517.0,0.4,0.95,-0.05,0.28,1.77,-9.88
2024-12-06 12:34:31.937,31.05,496.0,0.39,0.96,-0.06,0.28,3.73,-9.57
2024-12-06 12:34:31.950,30.82,501.0,0.37,0.9,-0.06,1.38,7.45,-8.78
2024-12-06 12:34:31.953,28.57,488.0,0.38,0.91,-0.06,1.62,7.45,-8.78
2024-12-06 12:34:31.962,25.2,493.0,0.4,0.92,-0.05,1.81,7.39,-8.29
2024-12-06 12:34:31.983,30.38,510.0,0.41,0.93,-0.05,1.81,7.33,-7.86
2024-12-06 12:34:31.995,30.6,462.0,0.4,0.93,-0.05,1.99,6.23,-7.56
2024-12-06 12:34:31.997,27.22,493.0,0.39,0.9,-0.05,1.99,6.23,-7.56
2024-12-06 12:34:32.1,27.0,493.0,0.37,0.88,-0.05,2.11,5.68,-8.53
2024-12-06 12:34:32.12,28.8,507.0,0.39,0.88,-0.05,2.17,5.31,-9.39
2024-12-06 12:34:32.18,26.32,489.0,0.41,0.9,-0.04,2.11,4.7,-9.08
2024-12-06 12:34:32.25,25.42,512.0,0.41,0.9,-0.04,2.11,4.28,-8.41
2024-12-06 12:34:32.32,29.47,487.0,0.4,0.92,-0.04,2.05,4.58,-7.86
2024-12-06 12:34:32.39,28.35,491.0,0.39,0.94,-0.04,2.05,4.58,-7.86
2024-12-06 12:34:32.47,28.35,506.0,0.39,0.95,-0.04,2.05,4.64,-7.31
2024-12-06 12:34:32.55,25.2,499.0,0.38,0.94,-0.04,2.3,4.22,-7.01
2024-12-06 12:34:32.63,26.55,521.0,0.37,0.92,-0.04,2.42,4.7,-7.37
2024-12-06 12:34:32.98,29.25,507.0,0.37,0.92,-0.03,2.54,4.64,-7.62
2024-12-06 12:34:32.101,26.77,492.0,0.37,0.92,-0.04,2.85,5.62,-7.44
2024-12-06 12:34:32.104,23.62,489.0,0.37,0.93,-0.05,3.39,6.23,-7.01
2024-12-06 12:34:32.109,24.07,487.0,0.37,0.93,-0.05,4.01,6.41,-6.58
2024-12-06 12:34:32.118,22.27,493.0,0.37,0.94,-0.05,4.25,6.84,-6.15
2024-12-06 12:34:32.125,26.1,495.0,0.37,0.93,-0.04,4.25,6.84,-6.15
2024-12-06 12:34:32.135,23.4,500.0,0.37,0.92,-0.04,4.37,6.6,-5.97
2024-12-06 12:34:32.141,23.85,506.0,0.36,0.9,-0.04,4.49,6.17,-6.28
2024-12-06 12:34:32.150,24.07,508.0,0.36,0.9,-0.05,4.37,5.86,-6.76
2024-12-06 12:34:32.159,27.0,491.0,0.36,0.91,-0.05,4.25,4.95,-6.89
2024-12-06 12:34:32.164,23.4,511.0,0.36,0.91,-0.05,4.13,3.73,-7.01
2024-12-06 12:34:32.171,19.8,481.0,0.35,0.91,-0.05,4.13,3.73,-7.01
2024-12-06 12:34:32.211,26.55,504.0,0.35,0.92,-0.04,3.94,3.18,-7.13
2024-12-06 12:34:32.214,22.27,495.0,0.35,0.91,-0.05,3.94,3.18,-6.76
2024-12-06 12:34:32.219,24.52,499.0,0.34,0.9,-0.05,3.7,3.67,-6.76
2024-12-06 12:34:32.226,24.75,511.0,0.34,0.9,-0.04,3.58,4.09,-6.58
2024-12-06 12:34:32.237,26.32,494.0,0.33,0.91,-0.04,3.27,4.28,-6.52
2024-12-06 12:34:32.244,18.23,502.0,0.34,0.93,-0.04,2.97,5.07,-6.46
2024-12-06 12:34:32.249,20.02,516.0,0.34,0.93,-0.04,2.91,4.77,-6.03
2024-12-06 12:34:32.262,22.05,504.0,0.34,0.93,-0.04,2.91,4.77,-6.03
2024-12-06 12:34:32.269,24.97,497.0,0.33,0.93,-0.05,2.85,4.77,-5.97
2024-12-06 12:34:32.277,20.02,489.0,0.34,0.92,-0.04,2.66,4.52,-5.91
2024-12-06 12:34:32.285,24.07,496.0,0.36,0.91,-0.04,2.24,4.4,-5.85
2024-12-06 12:34:32.290,23.4,510.0,0.39,0.91,-0.03,1.81,4.7,-4.38
2024-12-06 12:34:32.322,26.1,492.0,0.35,0.9,-0.02,1.56,2.87,-6.58
2024-12-06 12:34:32.330,24.07,517.0,0.38,0.92,-0.01,1.93,0.19,-6.4
2024-12-06 12:34:32.344,25.65,506.0,0.39,0.93,-0.01,1.38,-0.36,-3.96
2024-12-06 12:34:32.351,21.38,511.0,0.38,0.93,-0.01,1.38,-0.36,-3.96
2024-12-06 12:34:32.453,25.65,503.0,0.33,0.94,-0.05,1.44,3.24,-1.76
2024-12-06 12:34:32.455,24.3,502.0,0.32,0.94,-0.04,1.44,3.24,-1.76
2024-12-06 12:34:32.463,23.4,498.0,0.32,0.94,-0.04,1.69,3.67,-2.0
2024-12-06 12:34:32.471,23.4,487.0,0.32,0.95,-0.04,1.93,4.28,-2.19
2024-12-06 12:34:32.480,26.1,504.0,0.32,0.94,-0.04,2.24,4.89,-2.31
2024-12-06 12:34:32.488,20.92,504.0,0.33,0.94,-0.04,2.54,5.93,-2.55
2024-12-06 12:34:32.495,23.62,500.0,0.33,0.94,-0.04,2.97,6.47,-2.43
2024-12-06 12:34:32.503,21.15,512.0,0.34,0.93,-0.04,2.97,6.6,-2.25
2024-12-06 12:34:32.513,20.48,492.0,0.35,0.93,-0.05,3.33,6.6,-2.25
2024-12-06 12:34:32.518,20.7,507.0,0.35,0.94,-0.05,3.64,6.41,-2.13
2024-12-06 12:34:32.550,20.48,507.0,0.37,0.93,-0.05,3.88,3.3,-2.31
2024-12-06 12:34:32.558,21.82,500.0,0.37,0.92,-0.06,4.07,1.71,-2.37
2024-12-06 12:34:32.564,18.45,512.0,0.37,0.92,-0.06,4.25,0.0,-2.19
2024-12-06 12:34:32.573,20.25,497.0,0.36,0.92,-0.06,4.31,-1.09,-2.0
2024-12-06 12:34:32.585,16.42,488.0,0.36,0.92,-0.06,4.13,-1.58,-1.76
2024-12-06 12:34:32.592,27.0,491.0,0.35,0.92,-0.06,4.13,-1.64,-1.33
2024-12-06 12:34:32.600,22.95,489.0,0.34,0.92,-0.07,3.94,-1.64,-1.33
2024-12-06 12:34:32.609,13.27,491.0,0.34,0.93,-0.07,3.58,-1.52,-0.66
2024-12-06 12:34:32.615,19.35,492.0,0.34,0.93,-0.07,3.15,-1.28,0.01
2024-12-06 12:34:32.622,22.95,522.0,0.34,0.93,-0.06,2.72,-1.09,0.62
2024-12-06 12:34:32.629,26.55,508.0,0.34,0.93,-0.06,2.42,-1.28,1.29
2024-12-06 12:34:32.659,17.55,490.0,0.34,0.9,-0.06,1.69,-2.86,2.45
2024-12-06 12:34:32.669,23.62,489.0,0.34,0.9,-0.06,1.5,-3.23,2.51
2024-12-06 12:34:32.677,20.02,492.0,0.34,0.89,-0.06,1.32,-3.6,2.7
2024-12-06 12:34:32.682,21.6,510.0,0.34,0.89,-0.05,1.32,-3.6,2.7
2024-12-06 12:34:32.698,24.07,490.0,0.34,0.91,-0.07,1.08,-3.84,2.82
2024-12-06 12:34:32.705,24.07,488.0,0.35,0.92,-0.06,0.95,-3.54,3.25
2024-12-06 12:34:32.718,23.62,498.0,0.35,0.92,-0.06,0.95,-4.15,3.79
2024-12-06 12:34:32.721,19.8,483.0,0.35,0.93,-0.06,0.95,-4.15,3.98
2024-12-06 12:34:32.742,21.38,496.0,0.34,0.92,-0.06,0.65,-4.21,3.98
2024-12-06 12:34:32.744,21.38,475.0,0.35,0.9,-0.05,-0.21,-5.18,4.04
2024-12-06 12:34:32.798,21.15,518.0,0.36,0.92,-0.09,-1.49,-8.72,5.08
2024-12-06 12:34:32.804,22.95,504.0,0.36,0.92,-0.08,-1.37,-8.72,5.08
2024-12-06 12:34:32.815,20.48,476.0,0.36,0.93,-0.08,-1.49,-9.27,5.26
2024-12-06 12:34:32.818,26.1,503.0,0.36,0.93,-0.07,-1.73,-10.07,5.26
2024-12-06 12:34:32.829,22.27,483.0,0.36,0.93,-0.07,-2.16,-11.1,5.32
2024-12-06 12:34:32.838,25.65,487.0,0.36,0.93,-0.07,-2.83,-11.96,5.44
2024-12-06 12:34:32.844,22.95,476.0,0.36,0.93,-0.05,-2.83,-11.96,5.44
2024-12-06 12:34:32.850,18.67,495.0,0.36,0.93,-0.05,-3.5,-12.81,5.69
2024-12-06 12:34:32.897,23.17,496.0,0.36,0.92,-0.05,-4.23,-13.24,5.99
2024-12-06 12:34:32.899,20.25,486.0,0.37,0.92,-0.07,-4.54,-12.81,6.6
2024-12-06 12:34:32.904,18.67,504.0,0.38,0.92,-0.08,-3.87,-11.65,7.03
2024-12-06 12:34:32.912,22.05,486.0,0.38,0.92,-0.07,-3.32,-10.13,7.4
2024-12-06 12:34:32.919,23.62,484.0,0.38,0.92,-0.07,-2.77,-9.39,7.64
2024-12-06 12:34:32.936,23.4,479.0,0.38,0.92,-0.06,-2.53,-8.42,7.58
2024-12-06 12:34:32.939,21.15,491.0,0.37,0.92,-0.05,-2.53,-8.42,7.58
2024-12-06 12:34:32.944,21.6,503.0,0.38,0.92,-0.04,-2.77,-7.69,7.46
2024-12-06 12:34:32.950,20.48,484.0,0.38,0.92,-0.03,-3.07,-7.99,7.46
2024-12-06 12:34:32.959,21.82,472.0,0.37,0.91,-0.04,-3.44,-7.75,7.03
2024-12-06 12:34:32.993,19.12,476.0,0.36,0.9,-0.07,-3.07,-7.62,4.47
2024-12-06 12:34:33.3,24.97,498.0,0.36,0.91,-0.07,-2.71,-7.56,3.67
2024-12-06 12:34:33.8,24.07,480.0,0.36,0.91,-0.07,-2.34,-7.87,2.94
2024-12-06 12:34:33.16,23.85,474.0,0.36,0.9,-0.07,-2.34,-7.87,2.33
2024-12-06 12:34:33.29,21.82,484.0,0.37,0.9,-0.08,-2.28,-7.69,2.33
2024-12-06 12:34:33.31,19.57,486.0,0.37,0.9,-0.08,-2.16,-6.77,2.15
2024-12-06 12:34:33.35,23.62,491.0,0.37,0.9,-0.09,-1.79,-6.16,2.09
2024-12-06 12:34:33.45,22.05,485.0,0.38,0.91,-0.08,-1.73,-6.22,2.27
2024-12-06 12:34:33.51,25.65,491.0,0.38,0.91,-0.08,-1.73,-6.04,2.63
2024-12-06 12:34:33.58,24.75,490.0,0.38,0.91,-0.08,-1.73,-6.04,2.63
2024-12-06 12:34:33.66,25.42,487.0,0.37,0.9,-0.09,-1.79,-5.85,2.76
2024-12-06 12:34:33.74,25.65,488.0,0.36,0.9,-0.09,-1.92,-5.43,2.45
2024-12-06 12:34:33.88,20.25,491.0,0.36,0.91,-0.09,-1.92,-5.31,2.15
2024-12-06 12:34:33.97,21.82,488.0,0.37,0.91,-0.08,-1.98,-5.55,2.15
2024-12-06 12:34:33.110,24.07,497.0,0.37,0.91,-0.08,-2.1,-5.98,2.33
2024-12-06 12:34:33.115,25.65,491.0,0.38,0.92,-0.08,-2.1,-5.98,2.33
2024-12-06 12:34:33.118,19.35,472.0,0.38,0.91,-0.08,-2.28,-6.4,2.51
2024-12-06 12:34:33.122,20.7,481.0,0.37,0.9,-0.09,-2.22,-6.59,2.39
2024-12-06 12:34:33.134,23.17,476.0,0.36,0.89,-0.09,-1.98,-7.32,1.78
2024-12-06 12:34:33.139,21.6,485.0,0.36,0.89,-0.09,-1.92,-7.75,0.86
2024-12-06 12:34:33.146,24.3,475.0,0.35,0.89,-0.09,-2.04,-7.87,0.07
2024-12-06 12:34:33.153,25.42,502.0,0.36,0.9,-0.08,-2.04,-7.87,0.07
2024-12-06 12:34:33.162,21.38,483.0,0.37,0.91,-0.07,-2.46,-7.93,-0.29
2024-12-06 12:34:33.169,26.1,480.0,0.38,0.93,-0.06,-2.95,-7.44,0.01
2024-12-06 12:34:33.182,24.52,500.0,0.39,0.93,-0.06,-3.32,-6.59,0.86
2024-12-06 12:34:33.192,22.95,479.0,0.39,0.92,-0.05,-3.81,-6.1,1.78
2024-12-06 12:34:33.196,24.52,486.0,0.39,0.92,-0.05,-4.3,-5.85,2.33
2024-12-06 12:34:33.229,23.17,486.0,0.37,0.9,-0.05,-5.21,-6.53,1.17
2024-12-06 12:34:33.244,23.4,477.0,0.37,0.9,-0.05,-5.09,-7.32,0.19
2024-12-06 12:34:33.246,20.25,485.0,0.37,0.9,-0.05,-5.09,-7.69,-0.97
2024-12-06 12:34:33.254,22.95,496.0,0.38,0.9,-0.04,-5.27,-8.17,-1.58
2024-12-06 12:34:33.268,24.07,489.0,0.4,0.91,-0.04,-5.52,-8.48,-1.64
2024-12-06 12:34:33.275,19.12,484.0,0.39,0.92,-0.04,-5.64,-8.85,-1.33
2024-12-06 12:34:33.284,22.27,469.0,0.39,0.92,-0.04,-5.7,-9.21,-1.45
2024-12-06 12:34:33.323,25.42,482.0,0.38,0.92,-0.04,-5.7,-9.21,-2.0
2024-12-06 12:34:33.327,24.3,490.0,0.37,0.89,-0.04,-6.98,-9.27,-3.47
2024-12-06 12:34:33.330,20.92,501.0,0.38,0.89,-0.04,-7.1,-8.72,-3.35
2024-12-06 12:34:33.344,23.85,507.0,0.39,0.9,-0.05,-6.98,-7.81,-2.8
2024-12-06 12:34:33.349,20.25,495.0,0.4,0.91,-0.06,-6.68,-6.95,-2.0
2024-12-06 12:34:33.354,23.85,499.0,0.4,0.91,-0.06,-6.43,-6.22,-1.15
2024-12-06 12:34:33.364,22.27,496.0,0.4,0.92,-0.06,-6.13,-5.55,-0.48
2024-12-06 12:34:33.381,23.85,483.0,0.4,0.92,-0.06,-6.13,-5.55,-0.48
2024-12-06 12:34:33.384,24.07,487.0,0.39,0.92,-0.07,-5.76,-5.37,-0.11
2024-12-06 12:34:33.387,25.42,506.0,0.39,0.92,-0.07,-5.27,-5.85,0.01
2024-12-06 12:34:33.395,21.15,479.0,0.38,0.92,-0.08,-4.72,-6.59,-0.17
2024-12-06 12:34:33.403,23.85,516.0,0.38,0.92,-0.08,-4.36,-7.38,-0.6
2024-12-06 12:34:33.411,24.52,511.0,0.37,0.92,-0.08,-4.23,-7.93,-1.09
2024-12-06 12:34:33.508,22.72,503.0,0.36,0.93,-0.06,-2.34,-2.19,-0.36
2024-12-06 12:34:33.518,22.27,499.0,0.37,0.93,-0.06,-2.34,-1.58,-0.05
2024-12-06 12:34:33.524,24.07,499.0,0.37,0.93,-0.06,-2.34,-1.15,0.19
2024-12-06 12:34:33.533,18.45,484.0,0.37,0.92,-0.06,-2.34,-1.09,0.32
2024-12-06 12:34:33.544,22.95,491.0,0.37,0.92,-0.05,-2.34,-1.09,0.32
2024-12-06 12:34:33.552,23.85,487.0,0.37,0.91,-0.05,-2.16,-1.46,0.38
2024-12-06 12:34:33.558,24.3,481.0,0.37,0.91,-0.05,-2.04,-1.83,0.32
2024-12-06 12:34:33.562,22.95,481.0,0.38,0.9,-0.05,-2.04,-2.07,0.25
2024-12-06 12:34:33.570,21.82,479.0,0.38,0.9,-0.05,-2.1,-2.44,0.32
2024-12-06 12:34:33.586,27.0,480.0,0.38,0.9,-0.04,-2.1,-2.99,0.32
2024-12-06 12:34:33.601,26.55,482.0,0.38,0.9,-0.04,-1.98,-3.84,0.13
2024-12-06 12:34:33.622,23.85,494.0,0.39,0.9,-0.04,-1.98,-4.27,0.13
2024-12-06 12:34:33.625,21.82,481.0,0.39,0.9,-0.05,-1.73,-4.57,0.38
2024-12-06 12:34:33.633,21.38,485.0,0.4,0.91,-0.05,-1.55,-4.27,0.68
2024-12-06 12:34:33.641,24.97,497.0,0.4,0.93,-0.04,-1.37,-4.69,1.11
2024-12-06 12:34:33.675,23.85,485.0,0.41,0.94,-0.04,-1.49,-4.76,1.72
2024-12-06 12:34:33.678,20.7,475.0,0.42,0.96,-0.04,-2.59,-3.41,3.25
2024-12-06 12:34:33.681,24.3,479.0,0.41,0.96,-0.05,-2.65,-2.92,3.92
2024-12-06 12:34:33.686,23.4,477.0,0.39,0.95,-0.07,-2.22,-3.72,4.1
2024-12-06 12:34:33.694,23.85,480.0,0.39,0.94,-0.08,-1.49,-4.08,3.61
2024-12-06 12:34:33.702,24.07,476.0,0.38,0.94,-0.08,-1.0,-4.45,3.06
2024-12-06 12:34:33.711,26.1,486.0,0.38,0.93,-0.07,-1.0,-4.45,3.06
2024-12-06 12:34:33.720,23.85,475.0,0.38,0.91,-0.06,-0.45,-4.88,2.51
2024-12-06 12:34:33.726,25.65,500.0,0.38,0.9,-0.07,0.16,-5.18,1.96
2024-12-06 12:34:33.734,23.62,489.0,0.37,0.89,-0.07,1.01,-5.55,1.35
2024-12-06 12:34:33.744,24.52,507.0,0.37,0.88,-0.07,1.81,-6.22,0.8
2024-12-06 12:34:33.752,22.95,498.0,0.37,0.88,-0.07,2.36,-6.59,0.32
2024-12-06 12:34:33.758,20.7,484.0,0.38,0.88,-0.07,2.3,-5.55,0.01
2024-12-06 12:34:33.766,23.62,487.0,0.38,0.89,-0.06,2.3,-5.55,0.01
2024-12-06 12:34:33.774,23.62,482.0,0.39,0.9,-0.05,1.99,-3.96,0.01
2024-12-06 12:34:33.785,22.5,493.0,0.38,0.91,-0.05,1.93,-2.99,0.25
2024-12-06 12:34:33.789,23.17,480.0,0.38,0.91,-0.05,1.99,-2.44,0.56
2024-12-06 12:34:33.797,24.97,484.0,0.38,0.91,-0.05,2.11,-1.28,0.86
2024-12-06 12:34:33.805,23.17,488.0,0.38,0.9,-0.05,2.42,0.68,1.05
2024-12-06 12:34:33.814,21.82,476.0,0.37,0.89,-0.05,2.42,0.68,1.05
2024-12-06 12:34:33.821,23.4,511.0,0.37,0.9,-0.05,2.66,1.29,1.35
2024-12-06 12:34:33.837,22.5,477.0,0.37,0.91,-0.05,2.54,1.65,1.6
2024-12-06 12:34:33.839,26.1,493.0,0.37,0.92,-0.04,2.05,3.18,1.72
2024-12-06 12:34:33.845,22.27,486.0,0.37,0.92,-0.04,1.38,4.52,1.72
2024-12-06 12:34:33.855,23.62,481.0,0.38,0.92,-0.04,0.95,5.19,1.9
2024-12-06 12:34:33.864,24.52,484.0,0.38,0.93,-0.05,0.95,5.19,1.9
2024-12-06 12:34:33.875,24.07,484.0,0.39,0.92,-0.06,0.71,5.44,1.96
2024-12-06 12:34:33.905,25.42,487.0,0.39,0.88,-0.06,1.2,2.32,0.8
2024-12-06 12:34:33.907,24.97,493.0,0.39,0.89,-0.05,0.95,0.74,0.01
2024-12-06 12:34:33.913,20.48,502.0,0.39,0.9,-0.04,0.47,-0.67,-0.78
2024-12-06 12:34:33.921,23.62,494.0,0.39,0.9,-0.05,0.1,-1.64,-1.58
2024-12-06 12:34:33.930,24.52,484.0,0.39,0.9,-0.05,-0.02,-2.68,-2.13
2024-12-06 12:34:33.938,23.4,492.0,0.39,0.91,-0.05,-0.27,-3.47,-2.49
2024-12-06 12:34:33.945,22.05,493.0,0.39,0.91,-0.04,-0.27,-3.47,-2.49
2024-12-06 12:34:33.955,23.85,490.0,0.39,0.91,-0.04,-0.39,-3.35,-2.61
2024-12-06 12:34:33.963,25.42,505.0,0.39,0.91,-0.04,-0.51,-3.05,-2.49
2024-12-06 12:34:33.969,24.97,493.0,0.38,0.91,-0.04,-0.69,-2.56,-2.19
2024-12-06 12:34:33.977,18.9,493.0,0.38,0.91,-0.04,-0.88,-1.34,-1.88
2024-12-06 12:34:33.989,23.62,498.0,0.38,0.9,-0.04,-0.82,-0.3,-1.58
2024-12-06 12:34:34.2,23.85,483.0,0.38,0.89,-0.05,-0.88,0.13,-1.15
2024-12-06 12:34:34.8,24.3,501.0,0.38,0.89,-0.05,-1.0,0.92,-0.72
2024-12-06 12:34:34.15,22.95,510.0,0.38,0.9,-0.05,-1.24,1.77,-0.6
2024-12-06 12:34:34.25,21.15,504.0,0.38,0.9,-0.05,-1.55,2.08,-0.48
2024-12-06 12:34:34.31,20.92,495.0,0.38,0.91,-0.06,-1.55,2.39,-0.36
2024-12-06 12:34:34.39,21.82,490.0,0.39,0.91,-0.06,-1.79,2.39,-0.36
2024-12-06 12:34:34.47,21.38,497.0,0.39,0.9,-0.06,-1.85,2.32,-0.23
2024-12-06 12:34:34.55,23.85,491.0,0.39,0.9,-0.06,-1.85,1.53,-0.11
2024-12-06 12:34:34.63,19.8,490.0,0.4,0.9,-0.06,-1.92,0.62,0.01
2024-12-06 12:34:34.76,23.17,493.0,0.4,0.9,-0.06,-2.04,0.0,0.01
2024-12-06 12:34:34.80,20.25,479.0,0.4,0.9,-0.05,-2.16,-0.67,0.01
2024-12-06 12:34:34.86,25.88,504.0,0.4,0.9,-0.05,-2.16,-0.67,0.01
2024-12-06 12:34:34.94,22.05,484.0,0.4,0.9,-0.04,-2.22,-1.03,0.01
2024-12-06 12:34:34.103,23.17,501.0,0.4,0.9,-0.04,-2.04,-1.28,0.01
2024-12-06 12:34:34.110,24.3,486.0,0.4,0.9,-0.04,-1.92,-1.4,0.13
2024-12-06 12:34:34.150,23.85,545.0,0.4,0.9,-0.04,-1.85,-1.4,0.13
2024-12-06 12:34:34.158,22.05,508.0,0.39,0.92,-0.06,-1.61,-1.22,-0.23
2024-12-06 12:34:34.171,21.38,489.0,0.39,0.92,-0.06,-1.3,-1.15,-0.29
2024-12-06 12:34:34.174,18.9,494.0,0.39,0.93,-0.08,-0.94,-1.03,-0.29
2024-12-06 12:34:34.179,21.38,506.0,0.39,0.93,-0.08,-0.69,-0.79,-0.05
2024-12-06 12:34:34.200,23.4,494.0,0.39,0.93,-0.08,-0.39,-0.67,0.19
2024-12-06 12:34:34.231,20.92,500.0,0.41,0.95,-0.06,-0.39,0.55,1.72
2024-12-06 12:34:34.234,20.02,519.0,0.37,0.89,-0.06,0.83,1.47,2.02
2024-12-06 12:34:34.241,24.07,485.0,0.4,0.91,-0.06,0.95,1.16,2.82
2024-12-06 12:34:34.249,24.75,488.0,0.39,0.9,-0.03,0.95,1.16,2.82
2024-12-06 12:34:34.255,24.75,492.0,0.38,0.9,-0.05,1.5,2.63,3.12
2024-12-06 12:34:34.266,24.97,498.0,0.38,0.91,-0.05,1.69,4.83,3.49
2024-12-06 12:34:34.271,26.55,488.0,0.38,0.91,-0.04,1.56,5.74,4.1
2024-12-06 12:34:34.284,20.48,488.0,0.38,0.91,-0.04,1.5,7.45,4.53
2024-12-06 12:34:34.289,20.48,491.0,0.38,0.91,-0.03,1.44,9.59,4.59
2024-12-06 12:34:34.303,19.8,503.0,0.38,0.91,-0.03,1.44,9.59,4.59
2024-12-06 12:34:34.321,23.4,503.0,0.39,0.91,-0.04,1.44,10.75,4.53
2024-12-06 12:34:34.350,21.15,487.0,0.42,0.9,-0.04,1.87,7.27,4.04
2024-12-06 12:34:34.355,21.38,489.0,0.42,0.91,-0.04,1.62,5.62,3.67
2024-12-06 12:34:34.363,24.07,499.0,0.42,0.91,-0.04,1.38,3.97,3.37
2024-12-06 12:34:34.374,25.65,491.0,0.43,0.91,-0.04,1.38,3.97,3.06
2024-12-06 12:34:34.379,22.72,501.0,0.42,0.91,-0.04,1.14,2.57,3.06
2024-12-06 12:34:34.388,22.5,500.0,0.42,0.9,-0.04,0.95,1.47,2.76
2024-12-06 12:34:34.395,23.85,492.0,0.42,0.9,-0.03,0.83,0.86,2.51
2024-12-06 12:34:34.406,24.3,481.0,0.41,0.89,-0.03,0.71,0.37,2.33
2024-12-06 12:34:34.410,24.07,533.0,0.41,0.89,-0.03,0.53,0.55,1.84
2024-12-06 12:34:34.422,24.75,495.0,0.4,0.89,-0.03,0.28,1.1,1.48
2024-12-06 12:34:34.428,25.2,505.0,0.4,0.88,-0.03,0.28,1.1,1.48
2024-12-06 12:34:34.434,25.65,506.0,0.4,0.88,-0.03,0.16,1.65,1.17
2024-12-06 12:34:34.442,26.32,490.0,0.4,0.88,-0.03,0.04,2.45,1.11
2024-12-06 12:34:34.451,23.85,490.0,0.4,0.88,-0.03,-0.02,3.12,1.11
2024-12-06 12:34:34.462,22.05,500.0,0.4,0.88,-0.03,0.1,3.3,1.11
2024-12-06 12:34:34.598,20.25,475.0,0.43,0.89,-0.04,-1.55,5.8,6.85
2024-12-06 12:34:34.601,22.95,493.0,0.43,0.89,-0.04,-1.37,5.68,7.33
2024-12-06 12:34:34.603,23.17,488.0,0.43,0.89,-0.04,-1.24,4.77,7.82
2024-12-06 12:34:34.615,23.62,483.0,0.43,0.89,-0.04,-1.37,4.09,8.43
2024-12-06 12:34:34.618,26.55,496.0,0.45,0.9,-0.04,-1.67,3.67,9.29
2024-12-06 12:34:34.628,21.6,485.0,0.45,0.91,-0.04,-1.67,3.67,9.29
2024-12-06 12:34:34.637,20.92,482.0,0.46,0.92,-0.05,-1.79,3.36,10.26
2024-12-06 12:34:34.642,21.82,515.0,0.46,0.92,-0.05,-1.79,2.63,11.24
2024-12-06 12:34:34.651,18.9,483.0,0.44,0.91,-0.05,-1.55,1.59,11.79
2024-12-06 12:34:34.658,23.85,484.0,0.44,0.9,-0.05,-1.49,1.16,11.79
2024-12-06 12:34:34.666,24.75,486.0,0.43,0.9,-0.05,-1.37,1.23,11.73
2024-12-06 12:34:34.675,21.38,482.0,0.43,0.89,-0.04,-1.37,1.23,11.73
2024-12-06 12:34:34.680,21.15,482.0,0.44,0.89,-0.04,-1.12,1.1,11.97
2024-12-06 12:34:34.690,23.62,482.0,0.44,0.89,-0.03,-1.0,1.65,12.58
2024-12-06 12:34:34.699,24.07,505.0,0.43,0.89,-0.03,-0.82,2.45,13.07
2024-12-06 12:34:34.705,22.95,475.0,0.42,0.89,-0.03,-0.63,3.54,13.07
2024-12-06 12:34:34.714,23.17,461.0,0.42,0.89,-0.03,-0.27,4.89,12.95
2024-12-06 12:34:34.721,24.75,477.0,0.42,0.88,-0.03,0.1,5.56,12.83
2024-12-06 12:34:34.730,21.38,486.0,0.43,0.88,-0.03,0.1,5.56,12.83
2024-12-06 12:34:34.748,25.2,491.0,0.44,0.89,-0.04,0.47,7.39,12.64
2024-12-06 12:34:34.753,25.42,486.0,0.44,0.89,-0.04,0.71,8.12,12.52
2024-12-06 12:34:34.764,26.77,505.0,0.44,0.89,-0.04,0.89,8.31,12.4
2024-12-06 12:34:34.767,23.4,493.0,0.45,0.88,-0.04,0.89,8.31,12.16
2024-12-06 12:34:34.777,21.38,502.0,0.45,0.87,-0.04,1.08,8.31,12.16
2024-12-06 12:34:34.811,24.07,486.0,0.46,0.87,-0.04,1.2,7.94,11.79
2024-12-06 12:34:34.819,21.82,492.0,0.47,0.87,-0.03,1.14,5.8,10.57
2024-12-06 12:34:34.829,24.75,494.0,0.47,0.88,-0.03,0.95,4.95,10.39
2024-12-06 12:34:34.834,26.1,489.0,0.47,0.88,-0.03,0.71,4.4,10.33
2024-12-06 12:34:34.837,28.35,496.0,0.48,0.88,-0.03,0.34,4.22,10.14
2024-12-06 12:34:34.847,24.75,526.0,0.48,0.88,-0.03,0.04,3.73,10.08
2024-12-06 12:34:34.855,24.3,490.0,0.48,0.88,-0.02,-0.15,3.0,10.14
2024-12-06 12:34:34.862,18.9,498.0,0.48,0.87,-0.02,-0.15,3.0,10.14
2024-12-06 12:34:34.876,24.97,492.0,0.48,0.86,-0.02,-0.27,2.81,10.08
2024-12-06 12:34:34.879,22.05,503.0,0.49,0.85,-0.03,-0.27,2.87,10.02
2024-12-06 12:34:34.890,26.32,515.0,0.5,0.85,-0.02,-0.21,2.75,10.02
2024-12-06 12:34:34.897,23.17,490.0,0.5,0.85,-0.02,-0.27,2.26,10.26
2024-12-06 12:34:34.903,24.52,499.0,0.5,0.86,-0.02,-0.33,2.14,10.39
2024-12-06 12:34:34.914,25.42,510.0,0.5,0.86,-0.02,-0.33,2.14,10.39
2024-12-06 12:34:34.922,26.77,506.0,0.5,0.87,-0.02,-0.45,2.45,10.39
2024-12-06 12:34:34.927,26.1,507.0,0.5,0.86,-0.02,-0.45,2.57,10.33
2024-12-06 12:34:34.932,20.92,493.0,0.51,0.86,-0.01,-0.51,2.14,10.45
2024-12-06 12:34:34.946,24.97,491.0,0.51,0.85,-0.01,-0.76,1.71,10.51
2024-12-06 12:34:34.949,21.38,532.0,0.51,0.85,-0.01,-1.12,1.65,10.45
2024-12-06 12:34:34.967,22.95,510.0,0.51,0.85,-0.01,-1.12,1.65,10.45
2024-12-06 12:34:34.969,22.95,514.0,0.52,0.85,-0.01,-1.43,1.84,10.26
2024-12-06 12:34:34.972,26.77,510.0,0.52,0.85,-0.01,-1.61,1.59,10.14
2024-12-06 12:34:34.979,21.38,494.0,0.53,0.86,-0.01,-1.73,0.68,10.39
2024-12-06 12:34:34.992,22.95,496.0,0.53,0.86,-0.0,-2.04,-0.42,10.63
2024-12-06 12:34:34.997,24.52,506.0,0.53,0.86,-0.0,-2.22,-1.64,10.63
2024-12-06 12:34:35.24,22.27,511.0,0.53,0.86,-0.0,-2.22,-1.64,10.63
2024-12-06 12:34:35.27,26.1,501.0,0.52,0.85,-0.02,-2.83,-4.69,10.02
2024-12-06 12:34:35.37,23.85,502.0,0.52,0.85,-0.02,-3.14,-5.12,9.9
2024-12-06 12:34:35.41,24.52,501.0,0.52,0.85,-0.02,-3.14,-5.12,9.72
2024-12-06 12:34:35.49,25.88,522.0,0.52,0.84,-0.02,-3.44,-4.88,9.72
2024-12-06 12:34:35.83,21.82,499.0,0.52,0.84,-0.01,-3.5,-4.76,9.59
2024-12-06 12:34:35.86,23.85,504.0,0.47,0.83,-0.01,-2.77,-6.65,6.24
2024-12-06 12:34:35.88,20.02,497.0,0.43,0.79,-0.03,-2.77,-6.65,6.24
2024-12-06 12:34:35.98,23.4,492.0,0.45,0.79,-0.02,-2.95,-3.41,3.06
2024-12-06 12:34:35.104,25.2,497.0,0.48,0.79,0.01,-2.28,-4.63,1.23
2024-12-06 12:34:35.112,26.1,496.0,0.49,0.79,-0.01,-1.55,-5.24,-0.66
2024-12-06 12:34:35.121,29.02,488.0,0.49,0.79,0.0,-1.12,-3.29,-2.86
2024-12-06 12:34:35.136,28.57,500.0,0.49,0.79,0.0,-0.45,-3.47,-5.18
2024-12-06 12:34:35.156,28.35,496.0,0.48,0.79,0.02,-0.45,-3.47,-5.18
2024-12-06 12:34:35.158,23.4,506.0,0.51,0.82,0.02,2.24,-2.8,-11.59
2024-12-06 12:34:35.168,30.6,496.0,0.51,0.82,0.02,3.03,-2.07,-13.78
2024-12-06 12:34:35.176,28.35,493.0,0.51,0.82,0.01,3.33,-1.77,-15.07
2024-12-06 12:34:35.184,32.17,485.0,0.51,0.82,0.02,3.33,-1.77,-15.07
2024-12-06 12:34:35.194,31.95,509.0,0.5,0.81,-0.01,4.49,-4.69,-16.77
2024-12-06 12:34:35.200,32.62,498.0,0.51,0.83,-0.02,4.13,-2.13,-17.99
2024-12-06 12:34:35.211,35.33,500.0,0.5,0.84,-0.01,4.55,-3.17,-18.54
2024-12-06 12:34:35.215,37.35,485.0,0.5,0.84,-0.01,4.43,-3.05,-18.67
2024-12-06 12:34:35.220,36.67,493.0,0.5,0.85,-0.01,4.43,-2.5,-18.48
2024-12-06 12:34:35.230,38.92,512.0,0.49,0.85,-0.02,4.49,-2.5,-18.48
2024-12-06 12:34:35.261,38.7,494.0,0.46,0.86,-0.03,2.42,0.92,-16.9
2024-12-06 12:34:35.267,41.85,510.0,0.47,0.86,-0.04,2.42,0.92,-16.9
2024-12-06 12:34:35.281,41.4,489.0,0.49,0.87,-0.04,2.3,0.68,-15.61
2024-12-06 12:34:35.283,44.77,493.0,0.51,0.87,-0.05,1.93,0.8,-13.84
2024-12-06 12:34:35.294,43.65,490.0,0.5,0.87,-0.04,1.81,-0.3,-12.26
2024-12-06 12:34:35.303,47.25,503.0,0.5,0.87,-0.04,1.08,-0.85,-11.28
2024-12-06 12:34:35.308,48.82,512.0,0.5,0.87,-0.04,1.08,-0.73,-10.73
2024-12-06 12:34:35.315,46.12,506.0,0.5,0.88,-0.06,1.08,0.8,-10.12
2024-12-06 12:34:35.331,51.75,493.0,0.5,0.89,-0.07,0.95,0.8,-10.12
2024-12-06 12:34:35.334,49.5,510.0,0.51,0.91,-0.03,1.14,-1.22,-8.9
2024-12-06 12:34:35.341,49.27,490.0,0.51,0.91,-0.02,0.59,-1.52,-7.56
2024-12-06 12:34:35.348,51.97,492.0,0.49,0.91,-0.01,0.1,-1.89,-6.46
2024-12-06 12:34:35.356,49.5,490.0,0.49,0.91,-0.01,0.22,-1.64,-6.34
2024-12-06 12:34:35.363,50.4,516.0,0.47,0.88,-0.02,0.22,13.98,-7.07
2024-12-06 12:34:35.370,55.8,505.0,0.47,0.86,-0.03,-0.08,-0.24,-7.07
2024-12-06 12:34:35.377,53.77,491.0,0.47,0.87,-0.02,0.22,-0.67,-7.56
2024-12-06 12:34:35.388,57.82,495.0,0.49,0.88,-0.03,0.65,0.13,-7.5
2024-12-06 12:34:35.395,55.57,497.0,0.49,0.89,-0.03,1.32,-0.61,-7.07
2024-12-06 12:34:35.410,58.27,503.0,0.49,0.89,-0.03,1.56,-0.06,-6.4
2024-12-06 12:34:35.417,50.4,515.0,0.49,0.91,-0.03,1.81,0.68,-5.3
2024-12-06 12:34:35.419,55.57,521.0,0.5,0.93,-0.03,1.81,0.68,-5.3
2024-12-06 12:34:35.425,60.3,492.0,0.48,0.92,-0.04,2.3,-0.18,-4.32
2024-12-06 12:34:35.439,51.97,498.0,0.47,0.9,-0.05,2.24,0.55,-3.96
2024-12-06 12:34:35.442,60.75,495.0,0.47,0.89,-0.05,2.36,1.35,-3.59
2024-12-06 12:34:35.453,60.07,503.0,0.47,0.89,-0.05,2.66,1.16,-3.16
2024-12-06 12:34:35.461,61.2,501.0,0.47,0.88,-0.05,2.66,1.16,-3.16
2024-12-06 12:34:35.487,62.1,515.0,0.46,0.89,-0.04,2.48,3.0,-0.11
2024-12-06 12:34:35.496,59.17,523.0,0.46,0.88,-0.04,2.48,3.3,0.62
2024-12-06 12:34:35.502,60.3,498.0,0.46,0.88,-0.04,2.48,3.3,0.62
2024-12-06 12:34:35.616,67.05,544.0,0.48,0.84,-0.02,2.3,3.48,5.2
2024-12-06 12:34:35.619,69.07,507.0,0.49,0.84,-0.02,2.05,3.48,5.2
2024-12-06 12:34:35.622,67.95,504.0,0.49,0.85,-0.02,1.87,2.14,5.02
2024-12-06 12:34:35.633,69.53,504.0,0.49,0.87,-0.01,1.69,1.04,4.95
2024-12-06 12:34:35.648,68.62,517.0,0.49,0.88,-0.01,1.26,0.74,5.56
2024-12-06 12:34:35.662,66.38,502.0,0.47,0.88,-0.01,1.26,0.74,5.56
2024-12-06 12:34:35.667,66.6,506.0,0.46,0.86,-0.02,1.38,0.74,5.32
2024-12-06 12:34:35.669,68.62,524.0,0.47,0.86,-0.02,1.26,0.98,4.89
2024-12-06 12:34:35.681,71.1,480.0,0.48,0.86,-0.03,1.08,1.04,4.71
2024-12-06 12:34:35.685,71.78,518.0,0.48,0.86,-0.03,1.01,0.62,4.59
2024-12-06 12:34:35.697,72.0,507.0,0.48,0.86,-0.03,1.01,0.13,4.34
2024-12-06 12:34:35.710,72.0,515.0,0.47,0.85,-0.02,1.01,0.13,4.34
2024-12-06 12:34:35.712,70.65,556.0,0.48,0.84,-0.02,0.89,-0.18,3.73
2024-12-06 12:34:35.717,72.22,520.0,0.48,0.86,-0.02,0.34,0.13,3.49
2024-12-06 12:34:35.726,71.32,514.0,0.48,0.86,-0.03,-0.08,0.0,3.31
2024-12-06 12:34:35.741,69.3,504.0,0.48,0.86,-0.03,-0.08,0.19,2.88
2024-12-06 12:34:35.743,74.92,506.0,0.47,0.84,-0.02,-0.08,0.19,2.88
2024-12-06 12:34:35.747,75.15,533.0,0.48,0.83,-0.02,0.04,0.31,2.39
2024-12-06 12:34:35.755,75.82,510.0,0.49,0.84,-0.02,0.16,0.13,2.39
2024-12-06 12:34:35.788,73.12,504.0,0.49,0.82,-0.02,0.1,0.0,1.48
2024-12-06 12:34:35.796,79.88,514.0,0.5,0.84,-0.02,-0.21,0.13,1.48
2024-12-06 12:34:35.801,72.9,516.0,0.5,0.85,-0.03,-0.33,-0.24,1.9
2024-12-06 12:34:35.809,80.32,512.0,0.5,0.84,-0.03,0.04,-0.73,2.09
2024-12-06 12:34:35.816,76.72,526.0,0.5,0.84,-0.03,-0.02,-0.61,2.33
2024-12-06 12:34:35.826,83.47,508.0,0.51,0.85,-0.02,-0.33,-0.54,2.82
2024-12-06 12:34:35.834,81.45,515.0,0.51,0.86,-0.03,-0.33,-0.54,2.82
2024-12-06 12:34:35.842,84.6,521.0,0.5,0.87,-0.04,-0.33,-1.03,3.25
2024-12-06 12:34:35.848,85.28,529.0,0.5,0.86,-0.04,-0.08,-1.4,3.37
2024-12-06 12:34:35.856,83.7,513.0,0.51,0.87,-0.04,-0.27,-1.52,3.55
2024-12-06 12:34:35.866,79.88,524.0,0.51,0.87,-0.04,-0.45,-1.7,3.86
2024-12-06 12:34:35.873,82.57,525.0,0.51,0.87,-0.04,-0.45,-2.92,4.22
2024-12-06 12:34:35.880,86.17,512.0,0.51,0.86,-0.04,-0.45,-2.92,4.22
2024-12-06 12:34:35.896,84.6,508.0,0.51,0.84,-0.03,-0.51,-3.54,4.4
2024-12-06 12:34:35.898,81.67,527.0,0.52,0.85,-0.03,-0.63,-3.78,4.65
2024-12-06 12:34:35.906,86.62,520.0,0.51,0.86,-0.04,-0.76,-4.57,5.08
2024-12-06 12:34:35.942,87.07,521.0,0.51,0.87,-0.03,-1.12,-5.18,6.24
2024-12-06 12:34:35.944,89.1,535.0,0.51,0.87,-0.02,-1.49,-5.92,6.85
2024-12-06 12:34:35.950,80.78,524.0,0.51,0.87,-0.02,-1.85,-5.98,7.33
2024-12-06 12:34:35.958,85.95,521.0,0.51,0.87,-0.02,-2.1,-5.92,7.88
2024-12-06 12:34:35.970,87.52,519.0,0.51,0.86,-0.02,-2.1,-5.92,7.88
2024-12-06 12:34:35.975,90.45,558.0,0.52,0.85,-0.03,-2.28,-6.16,8.56
2024-12-06 12:34:35.982,89.77,536.0,0.51,0.86,-0.04,-2.53,-6.16,9.17
2024-12-06 12:34:35.990,88.88,544.0,0.51,0.86,-0.04,-2.83,-5.85,9.78
2024-12-06 12:34:35.996,87.97,534.0,0.51,0.86,-0.04,-2.89,-5.85,10.45
2024-12-06 12:34:36.5,93.6,540.0,0.51,0.85,-0.04,-2.83,-5.92,10.87
2024-12-06 12:34:36.13,91.12,542.0,0.51,0.83,-0.04,-2.83,-5.92,10.87
2024-12-06 12:34:36.30,90.67,546.0,0.52,0.83,-0.04,-2.83,-5.79,11.18
2024-12-06 12:34:36.34,89.77,549.0,0.53,0.84,-0.04,-3.07,-5.61,11.67
2024-12-06 12:34:36.37,88.88,526.0,0.53,0.85,-0.04,-3.2,-5.49,12.34
2024-12-06 12:34:36.45,90.9,547.0,0.53,0.85,-0.03,-3.26,-5.49,12.83
2024-12-06 12:34:36.57,92.02,537.0,0.53,0.85,-0.03,-3.2,-5.31,12.77
2024-12-06 12:34:36.60,92.47,588.0,0.52,0.85,-0.03,-3.2,-5.31,12.77
2024-12-06 12:34:36.72,90.9,554.0,0.52,0.85,-0.03,-3.14,-5.12,12.58
2024-12-06 12:34:36.80,94.27,572.0,0.52,0.85,-0.03,-2.95,-4.88,12.22
2024-12-06 12:34:36.85,93.6,553.0,0.52,0.85,-0.03,-2.71,-4.88,11.97
2024-12-06 12:34:36.92,95.85,555.0,0.52,0.86,-0.03,-2.22,-5.37,12.28
2024-12-06 12:34:36.111,96.52,555.0,0.52,0.86,-0.03,-1.55,-5.61,13.01
2024-12-06 12:34:36.114,92.02,560.0,0.52,0.86,-0.04,-0.94,-5.67,13.5
2024-12-06 12:34:36.120,95.85,550.0,0.52,0.84,-0.04,-0.94,-5.67,13.5
2024-12-06 12:34:36.128,96.07,539.0,0.53,0.83,-0.04,-0.51,-5.06,13.5
2024-12-06 12:34:36.134,95.4,539.0,0.53,0.82,-0.04,0.1,-3.96,13.5
2024-12-06 12:34:36.139,95.17,537.0,0.53,0.81,-0.04,0.71,-2.92,13.26
2024-12-06 12:34:36.147,93.6,543.0,0.53,0.81,-0.04,1.14,-2.31,12.64
2024-12-06 12:34:36.154,89.55,561.0,0.53,0.81,-0.04,1.14,-2.31,11.85
2024-12-06 12:34:36.162,94.95,538.0,0.54,0.81,-0.03,1.38,-1.7,11.85
2024-12-06 12:34:36.215,96.97,538.0,0.54,0.82,-0.03,0.4,-1.34,8.86
2024-12-06 12:34:36.219,94.27,537.0,0.54,0.82,-0.03,0.28,-1.58,8.74
2024-12-06 12:34:36.223,93.6,545.0,0.54,0.82,-0.04,0.1,-1.64,8.62
2024-12-06 12:34:36.239,100.12,558.0,0.54,0.82,-0.04,0.04,-1.64,8.37
2024-12-06 12:34:36.244,101.02,553.0,0.54,0.8,-0.04,0.04,-1.64,8.37
2024-12-06 12:34:36.247,93.82,550.0,0.55,0.79,-0.03,-0.02,-1.4,8.07
2024-12-06 12:34:36.259,97.2,550.0,0.56,0.78,-0.03,0.04,-1.22,7.95
2024-12-06 12:34:36.272,97.65,564.0,0.56,0.78,-0.03,-0.02,-0.79,7.95
2024-12-06 12:34:36.276,96.75,546.0,0.56,0.78,-0.03,-0.21,-0.73,8.07
2024-12-06 12:34:36.278,96.3,549.0,0.57,0.78,-0.03,-0.39,-0.73,8.13
2024-12-06 12:34:36.297,97.88,562.0,0.57,0.79,-0.03,-0.39,-0.73,8.13
2024-12-06 12:34:36.299,98.77,538.0,0.57,0.81,-0.02,-0.45,-0.67,8.31
2024-12-06 12:34:36.302,96.07,552.0,0.56,0.83,-0.02,-0.45,-1.28,8.86
2024-12-06 12:34:36.326,97.65,542.0,0.54,0.84,-0.04,0.1,-1.58,9.9
2024-12-06 12:34:36.330,95.62,560.0,0.55,0.82,-0.04,0.34,-1.46,9.84
2024-12-06 12:34:36.338,100.35,546.0,0.57,0.8,-0.04,0.34,-1.46,9.84
2024-12-06 12:34:36.344,98.55,547.0,0.6,0.8,-0.04,0.71,-1.15,9.72
2024-12-06 12:34:36.349,101.02,555.0,0.61,0.8,-0.04,0.77,-0.3,9.59
2024-12-06 12:34:36.357,102.15,557.0,0.61,0.8,-0.04,1.01,-0.06,9.23
2024-12-06 12:34:36.364,94.95,544.0,0.61,0.8,-0.04,0.89,0.31,9.17
2024-12-06 12:34:36.397,96.97,559.0,0.61,0.81,-0.04,1.01,-0.54,9.23
2024-12-06 12:34:36.409,102.82,565.0,0.59,0.81,-0.06,1.26,-1.77,8.98
2024-12-06 12:34:36.413,101.02,548.0,0.59,0.8,-0.05,1.99,-2.07,8.92
2024-12-06 12:34:36.420,98.55,555.0,0.6,0.78,-0.05,1.99,-2.07,8.92
2024-12-06 12:34:36.437,101.7,554.0,0.61,0.78,-0.03,2.54,-1.4,10.02
2024-12-06 12:34:36.441,90.67,550.0,0.61,0.8,-0.03,2.54,-1.09,10.69
2024-12-06 12:34:36.450,101.7,539.0,0.61,0.8,-0.03,2.54,0.13,11.06
2024-12-06 12:34:36.457,99.45,564.0,0.59,0.8,-0.03,2.42,0.19,11.18
2024-12-06 12:34:36.465,101.7,545.0,0.59,0.81,-0.03,2.42,0.19,11.18
2024-12-06 12:34:36.480,103.05,555.0,0.58,0.81,-0.04,2.6,0.68,10.81
2024-12-06 12:34:36.485,98.77,549.0,0.58,0.8,-0.04,2.85,0.86,9.96
2024-12-06 12:34:36.488,100.8,542.0,0.58,0.79,-0.04,3.15,0.25,8.98
2024-12-06 12:34:36.496,99.67,542.0,0.58,0.79,-0.04,3.52,-0.3,7.64
2024-12-06 12:34:36.504,92.25,542.0,0.59,0.77,-0.04,4.19,-1.28,6.36
2024-12-06 12:34:36.512,100.35,540.0,0.6,0.77,-0.05,4.19,-1.28,6.36
2024-12-06 12:34:36.521,103.5,537.0,0.59,0.78,-0.05,4.25,-1.28,5.2
2024-12-06 12:34:36.534,97.88,538.0,0.59,0.77,-0.04,4.19,-1.95,4.1
2024-12-06 12:34:36.544,102.6,532.0,0.59,0.75,-0.03,4.13,-0.79,3.18
2024-12-06 12:34:36.547,103.27,544.0,0.59,0.75,-0.04,4.55,0.0,2.63
2024-12-06 12:34:36.554,99.9,539.0,0.6,0.74,-0.04,4.55,0.43,2.39
2024-12-06 12:34:36.673,98.1,551.0,0.62,0.79,-0.05,0.59,-1.09,2.82
2024-12-06 12:34:36.681,101.25,528.0,0.62,0.79,-0.05,0.53,-2.07,2.39
2024-12-06 12:34:36.691,97.88,545.0,0.61,0.79,-0.05,0.4,-2.8,1.72
2024-12-06 12:34:36.699,98.1,529.0,0.61,0.79,-0.05,0.28,-2.8,0.93
2024-12-06 12:34:36.705,98.1,539.0,0.61,0.79,-0.05,0.28,-2.8,0.01
2024-12-06 12:34:36.713,105.52,528.0,0.61,0.77,-0.04,0.4,-2.56,-0.91
2024-12-06 12:34:36.720,101.02,526.0,0.6,0.75,-0.04,0.4,-2.56,-0.91
2024-12-06 12:34:36.728,101.7,527.0,0.61,0.73,-0.04,0.53,-1.89,-1.76
2024-12-06 12:34:36.737,102.15,526.0,0.61,0.71,-0.04,0.77,-1.28,-2.49
2024-12-06 12:34:36.747,100.35,519.0,0.61,0.7,-0.04,0.83,-0.67,-3.1
2024-12-06 12:34:36.778,94.05,520.0,0.61,0.71,-0.04,0.83,-0.06,-3.71
2024-12-06 12:34:36.782,103.27,521.0,0.6,0.72,-0.03,0.65,1.23,-5.12
2024-12-06 12:34:36.789,101.02,520.0,0.6,0.73,-0.03,0.59,1.71,-5.91
2024-12-06 12:34:36.795,101.7,532.0,0.6,0.73,-0.04,0.65,2.08,-6.76
2024-12-06 12:34:36.802,100.57,486.0,0.6,0.73,-0.04,0.77,2.08,-7.62
2024-12-06 12:34:36.806,104.17,534.0,0.6,0.72,-0.05,0.83,2.87,-8.53
2024-12-06 12:34:36.843,101.47,530.0,0.61,0.71,-0.05,0.83,2.87,-8.53
2024-12-06 12:34:36.848,101.92,529.0,0.62,0.76,-0.04,0.71,2.87,-10.67
2024-12-06 12:34:36.852,102.38,515.0,0.62,0.78,-0.04,0.71,2.87,-10.67
2024-12-06 12:34:36.864,102.38,516.0,0.62,0.79,-0.04,0.59,2.69,-10.67
2024-12-06 12:34:36.871,101.47,513.0,0.62,0.8,-0.04,0.4,2.39,-10.55
2024-12-06 12:34:36.877,102.6,528.0,0.62,0.81,-0.05,0.1,1.9,-10.24
2024-12-06 12:34:36.884,103.05,509.0,0.62,0.82,-0.06,-0.27,1.35,-9.82
2024-12-06 12:34:36.893,102.38,531.0,0.62,0.82,-0.06,-0.57,0.68,-9.21
2024-12-06 12:34:36.904,104.4,509.0,0.62,0.82,-0.07,-0.82,-0.12,-8.35
2024-12-06 12:34:36.910,99.9,509.0,0.62,0.82,-0.07,-0.82,-0.12,-8.35
2024-12-06 12:34:36.917,99.9,516.0,0.62,0.81,-0.08,-1.12,-0.67,-7.44
2024-12-06 12:34:36.928,101.02,540.0,0.62,0.8,-0.08,-1.3,-1.03,-6.46
2024-12-06 12:34:36.933,104.17,516.0,0.61,0.8,-0.08,-1.55,-1.46,-5.42
2024-12-06 12:34:36.943,98.32,508.0,0.61,0.8,-0.07,-1.79,-1.46,-4.57
2024-12-06 12:34:36.948,101.02,516.0,0.61,0.79,-0.07,-1.73,-1.4,-3.77
2024-12-06 12:34:36.964,98.77,516.0,0.6,0.8,-0.07,-1.73,-1.4,-3.77
2024-12-06 12:34:36.966,101.02,517.0,0.6,0.8,-0.07,-1.49,-1.4,-2.86
2024-12-06 12:34:36.972,101.7,517.0,0.6,0.8,-0.07,-0.88,-1.4,-2.19
2024-12-06 12:34:36.983,101.47,526.0,0.59,0.79,-0.07,-0.45,-0.91,-1.88
2024-12-06 12:34:36.987,101.92,515.0,0.59,0.79,-0.04,-0.08,-0.24,-1.94
2024-12-06 12:34:36.996,102.15,515.0,0.59,0.79,-0.06,0.22,0.62,-2.25
2024-12-06 12:34:37.5,98.1,520.0,0.59,0.79,-0.06,0.22,0.62,-2.25
2024-12-06 12:34:37.13,103.72,526.0,0.59,0.78,-0.05,0.71,1.23,-2.55
2024-12-06 12:34:37.22,101.02,520.0,0.59,0.78,-0.05,1.44,1.23,-2.86
2024-12-06 12:34:37.29,104.17,514.0,0.59,0.77,-0.05,1.87,1.41,-3.29
2024-12-06 12:34:37.42,101.02,524.0,0.59,0.77,-0.04,2.17,1.65,-3.65
2024-12-06 12:34:37.71,102.38,526.0,0.58,0.78,-0.03,2.36,2.02,-4.87
2024-12-06 12:34:37.76,102.38,517.0,0.58,0.78,-0.04,2.36,2.14,-5.48
2024-12-06 12:34:37.96,101.7,551.0,0.58,0.78,-0.04,2.3,2.51,-6.46
2024-12-06 12:34:37.104,104.17,553.0,0.58,0.78,-0.04,2.3,2.51,-6.46
2024-12-06 12:34:37.114,96.52,567.0,0.58,0.78,-0.04,2.24,2.39,-6.83
2024-12-06 12:34:37.116,103.5,514.0,0.57,0.79,-0.04,1.99,2.39,-7.19
2024-12-06 12:34:37.120,103.95,518.0,0.57,0.79,-0.04,1.75,2.51,-7.56
2024-12-06 12:34:37.137,98.1,546.0,0.57,0.8,-0.04,1.5,2.26,-7.8
2024-12-06 12:34:37.157,97.88,514.0,0.57,0.8,-0.04,1.32,1.59,-8.23
2024-12-06 12:34:37.160,99.9,513.0,0.57,0.8,-0.03,0.28,0.37,-9.14
2024-12-06 12:34:37.166,97.42,536.0,0.57,0.8,-0.03,-0.39,0.25,-9.69
2024-12-06 12:34:37.177,104.4,522.0,0.57,0.8,-0.04,-0.39,0.25,-9.94
2024-12-06 12:34:37.182,100.35,497.0,0.58,0.8,-0.04,-0.82,0.49,-9.94
2024-12-06 12:34:37.190,100.12,517.0,0.58,0.8,-0.05,-0.88,0.25,-9.88
2024-12-06 12:34:37.211,98.55,508.0,0.58,0.8,-0.05,-0.63,-0.91,-9.51
2024-12-06 12:34:37.215,104.62,505.0,0.57,0.81,-0.05,-0.39,-1.15,-8.66
2024-12-06 12:34:37.225,102.82,511.0,0.57,0.81,-0.04,-0.39,-1.15,-8.66
2024-12-06 12:34:37.234,99.45,509.0,0.57,0.82,-0.04,-0.45,-0.67,-8.23
2024-12-06 12:34:37.236,97.88,505.0,0.57,0.82,-0.05,-0.63,-0.3,-7.92
2024-12-06 12:34:37.244,101.92,520.0,0.57,0.82,-0.05,-0.76,-0.12,-7.62
2024-12-06 12:34:37.257,102.6,508.0,0.57,0.82,-0.06,-0.88,-0.3,-7.19
2024-12-06 12:34:37.260,103.72,521.0,0.57,0.82,-0.06,-0.88,-0.54,-6.7
2024-12-06 12:34:37.300,101.02,499.0,0.57,0.83,-0.07,-0.82,-0.85,-4.26
2024-12-06 12:34:37.313,103.95,506.0,0.57,0.83,-0.07,-0.69,-1.03,-3.53
2024-12-06 12:34:37.315,103.72,511.0,0.57,0.84,-0.07,-0.69,-1.03,-3.53
2024-12-06 12:34:37.323,101.02,527.0,0.57,0.84,-0.06,-0.51,-0.91,-2.86
2024-12-06 12:34:37.337,99.9,511.0,0.56,0.83,-0.06,-0.21,-0.54,-2.43
2024-12-06 12:34:37.343,102.38,514.0,0.56,0.82,-0.06,0.1,-0.06,-2.13
2024-12-06 12:34:37.346,101.47,514.0,0.56,0.82,-0.06,0.47,0.49,-1.82
2024-12-06 12:34:37.354,98.55,532.0,0.57,0.82,-0.06,0.89,0.74,-1.45
2024-12-06 12:34:37.362,103.05,501.0,0.57,0.81,-0.06,0.89,0.74,-1.45
2024-12-06 12:34:37.370,103.72,528.0,0.57,0.81,-0.05,1.32,0.74,-1.09
2024-12-06 12:34:37.378,100.35,528.0,0.57,0.81,-0.05,1.56,0.62,-0.78
2024-12-06 12:34:37.389,97.65,519.0,0.56,0.81,-0.04,1.56,0.8,-0.66
2024-12-06 12:34:37.394,99.45,511.0,0.56,0.82,-0.05,1.5,1.16,-0.6
2024-12-06 12:34:37.402,102.6,525.0,0.56,0.82,-0.05,1.5,1.47,-0.6
2024-12-06 12:34:37.421,102.15,525.0,0.55,0.82,-0.06,1.56,1.53,-0.72
2024-12-06 12:34:37.430,101.92,515.0,0.55,0.82,-0.06,1.75,1.35,-0.72
2024-12-06 12:34:37.436,99.9,514.0,0.55,0.82,-0.06,1.81,1.23,-0.72
2024-12-06 12:34:37.449,98.77,517.0,0.55,0.82,-0.05,1.87,1.23,-0.78
2024-12-06 12:34:37.453,102.6,528.0,0.55,0.82,-0.05,1.87,1.23,-0.91
2024-12-06 12:34:37.456,99.45,519.0,0.55,0.82,-0.05,1.87,1.23,-0.91
2024-12-06 12:34:37.464,100.57,515.0,0.55,0.82,-0.05,1.93,1.35,-1.09
2024-12-06 12:34:37.471,100.8,509.0,0.56,0.82,-0.05,1.99,1.35,-1.27
2024-12-06 12:34:37.480,104.17,517.0,0.56,0.82,-0.04,1.99,1.1,-1.27
2024-12-06 12:34:37.489,101.25,519.0,0.56,0.82,-0.04,1.81,0.86,-1.39
2024-12-06 12:34:37.520,103.5,510.0,0.56,0.79,-0.03,0.65,0.19,-2.06
2024-12-06 12:34:37.530,99.45,508.0,0.56,0.79,-0.03,0.16,0.13,-2.31
2024-12-06 12:34:37.534,98.1,529.0,0.56,0.79,-0.03,-0.21,0.07,-2.43
2024-12-06 12:34:37.551,100.12,520.0,0.57,0.79,-0.03,-0.27,0.0,-2.68
2024-12-06 12:34:37.554,101.7,518.0,0.57,0.8,-0.04,-0.27,0.0,-2.68
2024-12-06 12:34:37.561,102.15,521.0,0.57,0.8,-0.04,-0.27,-0.24,-2.86
2024-12-06 12:34:37.567,101.02,533.0,0.57,0.8,-0.03,-0.39,-0.67,-3.1
2024-12-06 12:34:37.578,102.6,517.0,0.56,0.8,-0.03,-0.63,-0.91,-3.41
2024-12-06 12:34:37.582,101.02,520.0,0.56,0.8,-0.03,-1.06,-1.03,-3.77
2024-12-06 12:34:37.594,101.7,530.0,0.56,0.81,-0.03,-1.55,-1.03,-4.02
2024-12-06 12:34:37.598,101.92,534.0,0.57,0.81,-0.03,-1.55,-1.03,-4.02
2024-12-06 12:34:37.715,101.7,516.0,0.54,0.83,-0.05,-2.89,-3.66,-6.46
2024-12-06 12:34:37.747,100.12,519.0,0.53,0.84,-0.06,-2.1,-2.99,-7.19
2024-12-06 12:34:37.750,100.57,522.0,0.52,0.83,-0.06,-1.85,-1.83,-7.25
2024-12-06 12:34:37.758,105.07,548.0,0.53,0.83,-0.06,-1.85,-1.83,-7.25
2024-12-06 12:34:37.769,102.38,524.0,0.54,0.83,-0.06,-1.37,-0.97,-6.76
2024-12-06 12:34:37.774,101.7,532.0,0.54,0.82,-0.06,-0.82,-0.67,-6.28
2024-12-06 12:34:37.783,99.45,522.0,0.53,0.82,-0.07,-0.39,0.25,-5.91
2024-12-06 12:34:37.792,101.47,527.0,0.53,0.83,-0.07,0.16,1.16,-5.97
2024-12-06 12:34:37.805,102.38,522.0,0.52,0.83,-0.07,0.47,1.77,-6.03
2024-12-06 12:34:37.815,99.9,523.0,0.52,0.84,-0.06,0.47,1.77,-6.03
2024-12-06 12:34:37.822,98.77,546.0,0.53,0.85,-0.05,0.83,1.84,-6.09
2024-12-06 12:34:37.831,98.55,521.0,0.53,0.85,-0.05,1.01,1.96,-6.09
2024-12-06 12:34:37.833,101.25,533.0,0.53,0.85,-0.05,1.01,2.51,-6.09
2024-12-06 12:34:37.836,99.0,536.0,0.53,0.85,-0.05,1.2,3.06,-5.97
2024-12-06 12:34:37.845,100.35,527.0,0.53,0.85,-0.05,1.2,3.54,-5.79
2024-12-06 12:34:37.854,101.7,527.0,0.54,0.84,-0.06,1.69,3.54,-5.79
2024-12-06 12:34:37.862,101.7,523.0,0.55,0.84,-0.06,2.24,3.67,-5.3
2024-12-06 12:34:37.872,103.5,532.0,0.55,0.82,-0.05,2.85,3.3,-4.75
2024-12-06 12:34:37.879,103.72,524.0,0.55,0.81,-0.04,3.21,2.69,-4.45
2024-12-06 12:34:37.888,103.72,517.0,0.55,0.81,-0.04,3.33,2.75,-4.14
2024-12-06 12:34:37.894,102.15,531.0,0.56,0.8,-0.04,3.27,2.57,-3.71
2024-12-06 12:34:37.900,100.8,528.0,0.56,0.81,-0.04,3.27,2.57,-3.71
2024-12-06 12:34:37.909,101.92,523.0,0.56,0.82,-0.04,3.21,2.26,-3.16
2024-12-06 12:34:37.919,101.92,536.0,0.56,0.83,-0.04,3.15,2.14,-2.61
2024-12-06 12:34:37.935,102.15,530.0,0.55,0.83,-0.04,3.09,2.14,-2.0
2024-12-06 12:34:37.939,97.65,530.0,0.55,0.84,-0.04,2.85,2.2,-0.84
2024-12-06 12:34:37.969,102.38,512.0,0.54,0.85,-0.04,2.85,2.2,-0.84
2024-12-06 12:34:37.973,102.6,515.0,0.53,0.85,-0.05,2.48,2.39,0.44
2024-12-06 12:34:37.977,101.7,516.0,0.53,0.85,-0.05,2.54,2.08,0.74
2024-12-06 12:34:37.985,99.45,522.0,0.54,0.85,-0.06,2.54,2.08,0.74
2024-12-06 12:34:37.994,102.15,510.0,0.54,0.84,-0.06,2.6,1.65,0.93
2024-12-06 12:34:38.11,100.8,530.0,0.53,0.82,-0.06,2.85,0.86,0.74
2024-12-06 12:34:38.17,104.17,518.0,0.53,0.82,-0.06,2.85,0.55,0.5
2024-12-06 12:34:38.35,101.25,533.0,0.53,0.82,-0.06,2.72,0.55,0.19
2024-12-06 12:34:38.40,99.45,515.0,0.52,0.82,-0.05,2.72,0.55,0.19
2024-12-06 12:34:38.43,102.6,514.0,0.52,0.82,-0.04,2.6,0.86,-0.23
2024-12-06 12:34:38.47,102.15,533.0,0.52,0.82,-0.04,2.54,1.41,-0.54
2024-12-06 12:34:38.58,98.77,517.0,0.52,0.82,-0.04,2.6,1.84,-0.78
2024-12-06 12:34:38.66,98.55,531.0,0.52,0.82,-0.04,2.6,2.39,-1.09
2024-12-06 12:34:38.72,101.92,511.0,0.52,0.81,-0.05,2.54,2.75,-1.21
2024-12-06 12:34:38.79,104.4,515.0,0.53,0.81,-0.04,2.54,2.75,-1.21
2024-12-06 12:34:38.92,98.77,526.0,0.53,0.81,-0.04,2.42,3.18,-1.33
2024-12-06 12:34:38.95,102.38,514.0,0.53,0.81,-0.04,2.24,3.48,-1.33
2024-12-06 12:34:38.102,101.47,505.0,0.53,0.82,-0.04,1.93,3.54,-1.21
2024-12-06 12:34:38.110,99.45,508.0,0.53,0.82,-0.04,1.69,3.54,-0.97
2024-12-06 12:34:38.123,98.32,511.0,0.54,0.82,-0.04,1.44,3.36,-0.72
2024-12-06 12:34:38.132,103.5,512.0,0.54,0.82,-0.05,1.44,3.36,-0.72
2024-12-06 12:34:38.138,104.4,520.0,0.54,0.82,-0.05,1.2,3.12,-0.42
2024-12-06 12:34:38.148,101.7,509.0,0.54,0.82,-0.05,0.89,2.81,-0.11
2024-12-06 12:34:38.157,102.15,503.0,0.54,0.83,-0.05,0.53,2.39,0.19
2024-12-06 12:34:38.159,101.7,513.0,0.55,0.83,-0.05,0.04,2.14,0.5
2024-12-06 12:34:38.171,99.45,512.0,0.55,0.83,-0.05,-0.27,1.71,0.86
2024-12-06 12:34:38.176,100.35,509.0,0.55,0.83,-0.05,-0.27,1.29,1.23
2024-12-06 12:34:38.183,101.25,505.0,0.55,0.83,-0.05,-0.45,1.29,1.23
2024-12-06 12:34:38.193,98.55,547.0,0.55,0.84,-0.05,-0.51,0.8,1.54
2024-12-06 12:34:38.198,100.8,527.0,0.55,0.84,-0.05,-0.39,0.19,1.78
2024-12-06 12:34:38.206,98.1,510.0,0.55,0.84,-0.05,-0.33,-0.18,1.78
2024-12-06 12:34:38.243,99.0,506.0,0.55,0.84,-0.05,-0.33,-0.3,1.72
2024-12-06 12:34:38.245,101.47,503.0,0.55,0.82,-0.05,-0.33,-0.91,1.41
2024-12-06 12:34:38.252,99.9,501.0,0.55,0.82,-0.05,-0.27,-1.03,1.29
2024-12-06 12:34:38.262,101.92,521.0,0.54,0.82,-0.05,-0.27,-1.03,1.11
2024-12-06 12:34:38.267,96.3,520.0,0.54,0.82,-0.05,-0.27,-0.85,1.11
2024-12-06 12:34:38.274,98.32,498.0,0.54,0.82,-0.05,-0.15,-0.48,0.86
2024-12-06 12:34:38.299,101.7,518.0,0.54,0.83,-0.05,0.04,-0.12,0.8
2024-12-06 12:34:38.348,103.05,541.0,0.54,0.83,-0.05,0.47,0.19,0.62
2024-12-06 12:34:38.351,100.35,549.0,0.54,0.81,-0.05,0.47,0.31,-0.23
2024-12-06 12:34:38.353,101.25,525.0,0.54,0.81,-0.05,0.4,0.19,-0.6
2024-12-06 12:34:38.358,90.9,514.0,0.54,0.81,-0.05,0.47,0.13,-0.91
2024-12-06 12:34:38.380,103.5,513.0,0.54,0.81,-0.04,0.47,0.49,-1.39
2024-12-06 12:34:38.387,102.82,511.0,0.54,0.81,-0.04,0.47,0.49,-1.39
2024-12-06 12:34:38.390,103.72,527.0,0.53,0.81,-0.04,0.53,0.74,-1.58
2024-12-06 12:34:38.429,103.95,515.0,0.53,0.81,-0.04,0.59,0.98,-1.88
2024-12-06 12:34:38.438,99.22,511.0,0.54,0.82,-0.04,0.47,1.04,-2.86
2024-12-06 12:34:38.440,102.38,498.0,0.54,0.82,-0.05,0.4,1.1,-3.22
2024-12-06 12:34:38.444,101.7,525.0,0.53,0.82,-0.05,0.4,1.1,-3.71
2024-12-06 12:34:38.454,101.02,515.0,0.53,0.81,-0.04,0.4,0.92,-4.26
2024-12-06 12:34:38.461,101.47,504.0,0.53,0.81,-0.04,0.4,0.68,-4.81
2024-12-06 12:34:38.467,99.67,532.0,0.53,0.81,-0.04,0.4,0.68,-4.81
2024-12-06 12:34:38.474,101.92,514.0,0.53,0.81,-0.05,0.47,0.31,-5.3
2024-12-06 12:34:38.482,102.82,512.0,0.53,0.82,-0.05,0.47,-0.06,-5.79
2024-12-06 12:34:38.490,98.1,510.0,0.52,0.83,-0.04,0.28,-0.24,-6.4
2024-12-06 12:34:38.499,102.82,517.0,0.51,0.83,-0.04,-0.08,-0.06,-7.07
2024-12-06 12:34:38.548,101.92,517.0,0.53,0.81,-0.02,-1.61,1.29,-9.14
2024-12-06 12:34:38.560,101.92,515.0,0.53,0.8,-0.03,-1.67,1.41,-9.45
2024-12-06 12:34:38.563,101.25,536.0,0.54,0.8,-0.03,-1.55,1.71,-9.88
2024-12-06 12:34:38.567,98.32,520.0,0.55,0.8,-0.04,-1.3,2.08,-10.49
2024-12-06 12:34:38.575,101.47,502.0,0.55,0.81,-0.05,-0.94,1.96,-11.22
2024-12-06 12:34:38.588,99.67,503.0,0.55,0.84,-0.05,-0.57,1.9,-12.07
2024-12-06 12:34:38.592,102.6,506.0,0.55,0.82,-0.05,-0.27,1.84,-13.11
2024-12-06 12:34:38.608,104.17,518.0,0.54,0.82,-0.05,0.04,1.65,-14.33
2024-12-06 12:34:38.616,98.1,498.0,0.54,0.81,-0.05,0.34,1.65,-15.8
2024-12-06 12:34:38.648,99.67,498.0,0.54,0.81,-0.06,0.83,1.71,-17.51
2024-12-06 12:34:38.651,101.47,496.0,0.51,0.83,-0.06,1.93,2.08,-19.83
2024-12-06 12:34:38.653,99.22,516.0,0.49,0.85,-0.06,2.54,2.45,-20.31
2024-12-06 12:34:38.661,102.15,495.0,0.45,0.89,-0.05,3.27,2.39,-19.52
2024-12-06 12:34:38.762,100.35,494.0,0.51,0.88,-0.06,8.09,5.62,-17.02
2024-12-06 12:34:38.767,101.02,493.0,0.51,0.88,-0.07,8.09,5.62,-17.02
2024-12-06 12:34:38.775,104.4,502.0,0.5,0.88,-0.07,8.46,4.52,-16.59
2024-12-06 12:34:38.786,99.9,487.0,0.5,0.88,-0.07,8.64,3.3,-15.98
2024-12-06 12:34:38.792,103.5,498.0,0.48,0.88,-0.07,8.46,2.39,-15.31
2024-12-06 12:34:38.802,101.47,477.0,0.47,0.88,-0.06,8.09,1.84,-14.82
2024-12-06 12:34:38.809,102.38,499.0,0.47,0.88,-0.06,7.67,1.47,-14.45
2024-12-06 12:34:38.816,100.8,484.0,0.46,0.89,-0.06,7.24,1.41,-14.15
2024-12-06 12:34:38.826,102.6,491.0,0.45,0.89,-0.07,7.24,1.41,-14.15
2024-12-06 12:34:38.832,103.72,496.0,0.45,0.88,-0.06,6.81,1.23,-13.84
2024-12-06 12:34:38.840,101.02,495.0,0.44,0.9,-0.06,6.08,1.16,-13.36
2024-12-06 12:34:38.876,101.92,493.0,0.43,0.96,-0.08,3.88,2.57,-8.11
2024-12-06 12:34:38.884,96.52,493.0,0.42,0.97,-0.09,2.85,2.81,-6.22
2024-12-06 12:34:38.889,99.9,496.0,0.41,0.95,-0.09,1.69,3.97,-4.57
2024-12-06 12:34:38.903,101.92,480.0,0.41,0.92,-0.09,0.65,4.95,-3.29
2024-12-06 12:34:38.906,95.85,483.0,0.41,0.92,-0.09,-0.39,5.25,-2.06
2024-12-06 12:34:38.917,90.9,505.0,0.42,0.91,-0.09,-0.39,5.25,-2.06
2024-12-06 12:34:38.920,98.55,484.0,0.44,0.91,-0.09,-1.12,5.56,-0.54
2024-12-06 12:34:38.925,94.27,486.0,0.45,0.91,-0.1,-1.12,5.68,1.11
2024-12-06 12:34:38.943,97.88,483.0,0.45,0.89,-0.09,-0.08,5.62,2.7
2024-12-06 12:34:38.955,91.8,499.0,0.46,0.87,-0.08,0.28,5.5,2.94
2024-12-06 12:34:38.962,96.75,493.0,0.46,0.88,-0.07,0.28,5.5,2.94
2024-12-06 12:34:38.981,92.02,485.0,0.45,0.87,-0.06,0.77,6.23,2.76
2024-12-06 12:34:38.983,96.07,478.0,0.48,0.86,-0.03,2.11,6.66,1.6
2024-12-06 12:34:38.988,92.25,483.0,0.48,0.86,-0.03,2.85,7.02,1.9
2024-12-06 12:34:38.995,89.77,487.0,0.48,0.87,-0.04,2.85,7.02,1.9
2024-12-06 12:34:39.3,90.9,499.0,0.47,0.85,-0.03,4.13,7.82,2.15
2024-12-06 12:34:39.11,87.07,483.0,0.47,0.84,-0.03,5.29,8.24,1.96
2024-12-06 12:34:39.30,90.45,492.0,0.48,0.86,-0.04,6.02,9.16,1.84
2024-12-06 12:34:39.33,90.9,493.0,0.48,0.85,-0.05,7.18,9.53,1.9
2024-12-06 12:34:39.37,87.75,501.0,0.48,0.85,-0.05,8.22,8.98,1.41
2024-12-06 12:34:39.42,88.88,482.0,0.47,0.85,-0.05,8.22,8.98,1.41
2024-12-06 12:34:39.57,87.97,483.0,0.47,0.86,-0.05,8.58,8.06,0.8
2024-12-06 12:34:39.60,87.52,483.0,0.47,0.86,-0.05,8.52,6.41,0.38
2024-12-06 12:34:39.65,88.65,495.0,0.47,0.85,-0.06,8.09,5.56,-0.36
2024-12-06 12:34:39.105,86.62,492.0,0.46,0.86,-0.07,6.02,1.41,-0.29
2024-12-06 12:34:39.112,85.95,498.0,0.46,0.86,-0.07,5.65,0.8,-0.66
2024-12-06 12:34:39.118,79.88,514.0,0.45,0.84,-0.06,5.65,0.13,-1.09
2024-12-06 12:34:39.127,84.38,485.0,0.45,0.86,-0.05,5.1,0.13,-1.09
2024-12-06 12:34:39.134,83.25,489.0,0.45,0.88,-0.05,4.19,0.25,-0.97
2024-12-06 12:34:39.143,83.03,504.0,0.44,0.88,-0.04,3.58,0.13,-0.84
2024-12-06 12:34:39.151,77.85,492.0,0.44,0.86,-0.04,3.15,0.62,-1.52
2024-12-06 12:34:39.160,81.67,509.0,0.44,0.86,-0.04,2.6,0.74,-2.55
2024-12-06 12:34:39.165,84.15,497.0,0.44,0.86,-0.04,2.3,0.19,-3.35
2024-12-06 12:34:39.175,83.47,511.0,0.45,0.87,-0.05,2.3,0.19,-3.35
2024-12-06 12:34:39.185,83.03,491.0,0.46,0.88,-0.04,1.93,0.31,-3.71
2024-12-06 12:34:39.190,80.32,507.0,0.45,0.86,-0.04,1.75,0.07,-4.02
2024-12-06 12:34:39.197,74.25,497.0,0.44,0.84,-0.03,1.26,0.13,-5.06
2024-12-06 12:34:39.205,82.12,494.0,0.44,0.84,-0.03,0.59,-0.36,-6.09
2024-12-06 12:34:39.219,81.67,493.0,0.45,0.84,-0.03,-0.08,-0.12,-6.28
2024-12-06 12:34:39.224,76.28,506.0,0.46,0.87,-0.04,-0.08,-0.12,-6.28
2024-12-06 12:34:39.229,77.17,499.0,0.47,0.89,-0.05,-0.33,-0.36,-5.79
2024-12-06 12:34:39.237,75.82,506.0,0.45,0.88,-0.06,-0.39,-0.54,-5.36
2024-12-06 12:34:39.247,73.8,501.0,0.44,0.87,-0.06,-0.69,-0.54,-5.79
2024-12-06 12:34:39.252,77.85,492.0,0.44,0.87,-0.06,-1.0,-0.91,-6.52
2024-12-06 12:34:39.260,77.85,501.0,0.45,0.86,-0.06,-1.3,-1.52,-6.76
2024-12-06 12:34:39.274,75.38,511.0,0.45,0.87,-0.07,-1.3,-1.52,-6.76
2024-12-06 12:34:39.276,77.4,500.0,0.44,0.87,-0.08,-1.61,-1.7,-6.89
2024-12-06 12:34:39.288,74.92,502.0,0.44,0.85,-0.07,-1.61,-1.95,-7.37
2024-12-06 12:34:39.293,70.88,491.0,0.45,0.85,-0.08,-1.79,-2.5,-7.68
2024-12-06 12:34:39.329,74.03,497.0,0.45,0.85,-0.08,-1.98,-2.56,-7.62
2024-12-06 12:34:39.332,72.67,509.0,0.44,0.87,-0.07,-1.79,-3.84,-8.05
2024-12-06 12:34:39.341,70.42,494.0,0.44,0.87,-0.07,-2.04,-4.02,-7.99
2024-12-06 12:34:39.351,72.67,499.0,0.46,0.88,-0.06,-2.22,-4.02,-7.5
2024-12-06 12:34:39.363,68.4,504.0,0.44,0.86,-0.07,-1.98,-4.02,-7.5
2024-12-06 12:34:39.369,66.82,493.0,0.45,0.86,-0.07,-1.98,-4.15,-7.86
2024-12-06 12:34:39.378,68.62,499.0,0.47,0.88,-0.07,-2.04,-4.57,-7.56
2024-12-06 12:34:39.385,65.25,510.0,0.48,0.9,-0.07,-2.04,-5.12,-6.4
2024-12-06 12:34:39.393,65.03,529.0,0.48,0.9,-0.07,-1.73,-5.98,-5.79
2024-12-06 12:34:39.404,66.15,496.0,0.46,0.89,-0.07,-1.73,-5.98,-6.22
2024-12-06 12:34:39.411,66.6,493.0,0.45,0.87,-0.08,-1.67,-6.71,-6.22
2024-12-06 12:34:39.417,68.85,512.0,0.45,0.88,-0.08,-1.79,-7.26,-6.46
2024-12-06 12:34:39.425,65.47,515.0,0.46,0.9,-0.08,-1.85,-7.87,-6.15
2024-12-06 12:34:39.436,66.15,504.0,0.44,0.89,-0.08,-1.79,-8.05,-5.67
2024-12-06 12:34:39.450,63.45,503.0,0.44,0.89,-0.08,-1.85,-7.99,-5.91
2024-12-06 12:34:39.459,62.32,502.0,0.43,0.88,-0.07,-2.04,-7.44,-5.79
2024-12-06 12:34:39.464,61.65,503.0,0.45,0.89,-0.07,-2.04,-7.44,-5.79
2024-12-06 12:34:39.474,63.22,513.0,0.46,0.91,-0.07,-1.98,-7.62,-4.75
2024-12-06 12:34:39.479,64.35,501.0,0.44,0.89,-0.08,-1.67,-8.05,-4.2
2024-12-06 12:34:39.486,60.07,496.0,0.43,0.89,-0.08,-1.43,-7.75,-4.69
2024-12-06 12:34:39.490,61.42,493.0,0.43,0.89,-0.08,-1.49,-7.44,-4.45
2024-12-06 12:34:39.495,65.03,519.0,0.45,0.91,-0.07,-1.49,-7.44,-4.45
2024-12-06 12:34:39.502,63.9,517.0,0.45,0.93,-0.08,-1.61,-7.44,-3.29
2024-12-06 12:34:39.522,64.35,496.0,0.4,0.88,-0.08,-1.79,-5.73,-3.41
2024-12-06 12:34:39.556,60.75,504.0,0.42,0.9,-0.09,-1.18,-6.53,-1.58
2024-12-06 12:34:39.558,55.12,526.0,0.41,0.89,-0.08,-1.12,-5.92,-2.25
2024-12-06 12:34:39.566,57.38,503.0,0.41,0.89,-0.07,-1.61,-5.24,-2.19
2024-12-06 12:34:39.572,56.25,523.0,0.43,0.9,-0.07,-1.98,-5.67,-1.33
2024-12-06 12:34:39.583,56.02,501.0,0.43,0.91,-0.07,-1.98,-5.67,-1.33
2024-12-06 12:34:39.587,54.22,522.0,0.41,0.89,-0.07,-2.04,-5.49,-1.33
2024-12-06 12:34:39.599,52.65,500.0,0.42,0.89,-0.07,-2.22,-4.08,-1.82
2024-12-06 12:34:39.603,54.22,514.0,0.45,0.91,-0.07,-2.16,-3.84,-0.84
2024-12-06 12:34:39.620,52.65,511.0,0.45,0.91,-0.07,-1.67,-3.9,0.38
2024-12-06 12:34:39.628,49.5,507.0,0.41,0.9,-0.08,-1.37,-2.8,0.13
2024-12-06 12:34:39.634,53.1,523.0,0.42,0.9,-0.07,-1.43,-1.64,-0.05
2024-12-06 12:34:39.642,48.82,573.0,0.43,0.91,-0.07,-1.37,-1.7,0.56
2024-12-06 12:34:39.656,54.22,518.0,0.4,0.89,-0.08,-1.18,-1.7,0.5
2024-12-06 12:34:39.659,50.62,516.0,0.4,0.89,-0.08,-1.12,-0.54,-0.6
2024-12-06 12:34:39.668,50.17,519.0,0.4,0.88,-0.08,-1.12,-0.54,-0.6
2024-12-06 12:34:39.676,51.75,563.0,0.43,0.9,-0.06,-1.43,0.13,-0.48
2024-12-06 12:34:39.680,49.95,509.0,0.43,0.91,-0.06,-1.12,-0.3,0.68
2024-12-06 12:34:39.693,48.82,509.0,0.41,0.9,-0.07,-0.76,-0.06,0.99
2024-12-06 12:34:39.703,50.62,557.0,0.41,0.9,-0.07,-0.82,0.62,0.38
2024-12-06 12:34:39.707,47.25,527.0,0.41,0.88,-0.07,-0.82,0.62,0.38
2024-12-06 12:34:39.711,46.57,505.0,0.44,0.9,-0.07,-0.82,0.62,0.38
2024-12-06 12:34:39.840,40.95,509.0,0.45,0.92,-0.07,0.16,0.92,0.32
2024-12-06 12:34:39.847,38.02,509.0,0.42,0.91,-0.07,0.28,1.47,0.38
2024-12-06 12:34:39.853,39.15,525.0,0.4,0.88,-0.06,0.4,1.84,-0.72
2024-12-06 12:34:39.856,35.55,504.0,0.4,0.88,-0.06,0.47,1.84,-1.7
2024-12-06 12:34:39.866,34.42,503.0,0.42,0.88,-0.06,0.53,1.59,-1.52
2024-12-06 12:34:39.873,39.83,514.0,0.43,0.9,-0.06,0.53,1.59,-1.52
2024-12-06 12:34:39.883,37.35,506.0,0.42,0.91,-0.07,0.65,1.53,-1.03
2024-12-06 12:34:39.890,39.38,508.0,0.41,0.91,-0.07,0.77,2.63,-1.09
2024-12-06 12:34:39.900,39.15,508.0,0.42,0.91,-0.07,0.77,3.67,-1.21
2024-12-06 12:34:39.905,25.42,509.0,0.42,0.91,-0.07,0.71,3.48,-1.03
2024-12-06 12:34:39.912,36.45,522.0,0.44,0.89,-0.07,0.95,3.06,-1.15
2024-12-06 12:34:39.922,36.9,504.0,0.44,0.88,-0.07,0.95,3.06,-1.15
2024-12-06 12:34:39.930,34.42,525.0,0.42,0.87,-0.07,0.95,2.87,-1.52
2024-12-06 12:34:39.935,35.1,523.0,0.41,0.86,-0.07,1.32,2.02,-2.61
2024-12-06 12:34:39.945,33.75,507.0,0.43,0.87,-0.07,1.38,1.96,-3.35
2024-12-06 12:34:39.953,32.62,500.0,0.43,0.87,-0.07,1.75,0.98,-3.29
2024-12-06 12:34:39.959,27.22,507.0,0.44,0.88,-0.06,1.93,0.55,-2.8
2024-12-06 12:34:39.967,32.4,525.0,0.44,0.89,-0.07,1.93,0.55,-2.8
2024-12-06 12:34:39.975,29.47,506.0,0.41,0.89,-0.07,1.93,0.13,-2.61
2024-12-06 12:34:40.7,31.5,510.0,0.42,0.89,-0.07,0.22,2.14,-3.41
2024-12-06 12:34:40.17,29.25,518.0,0.41,0.9,-0.07,-0.27,3.06,-3.41
2024-12-06 12:34:40.26,31.27,517.0,0.39,0.88,-0.07,-0.27,3.12,-3.83
2024-12-06 12:34:40.30,29.92,506.0,0.41,0.88,-0.07,-0.51,4.34,-4.87
2024-12-06 12:34:40.41,29.47,516.0,0.44,0.88,-0.05,-0.57,4.7,-4.81
2024-12-06 12:34:40.52,28.12,502.0,0.44,0.88,-0.05,-0.27,3.36,-4.38
2024-12-06 12:34:40.55,27.67,502.0,0.44,0.87,-0.05,-0.27,3.24,-4.63
2024-12-06 12:34:40.60,27.0,519.0,0.43,0.86,-0.05,-0.15,3.24,-4.63
2024-12-06 12:34:40.68,27.67,542.0,0.41,0.87,-0.06,0.4,2.39,-5.48
2024-12-06 12:34:40.84,28.8,546.0,0.42,0.89,-0.07,0.4,1.96,-6.22
2024-12-06 12:34:40.86,17.1,509.0,0.44,0.93,-0.06,0.1,2.14,-5.6
2024-12-06 12:34:40.92,28.57,513.0,0.44,0.93,-0.06,-0.02,1.96,-4.57
2024-12-06 12:34:40.108,23.17,517.0,0.44,0.94,-0.06,-0.02,1.96,-4.57
2024-12-06 12:34:40.110,26.55,504.0,0.42,0.93,-0.07,-0.39,3.06,-4.26
2024-12-06 12:34:40.114,26.32,497.0,0.41,0.91,-0.08,-0.45,3.24,-4.38
2024-12-06 12:34:40.122,26.1,512.0,0.41,0.89,-0.08,-0.45,3.0,-4.45
2024-12-06 12:34:40.130,23.17,505.0,0.41,0.89,-0.07,-0.33,2.02,-4.57
2024-12-06 12:34:40.142,24.97,503.0,0.41,0.88,-0.07,-0.21,1.23,-4.75
2024-12-06 12:34:40.148,21.15,497.0,0.41,0.87,-0.07,-0.21,1.23,-4.75
2024-12-06 12:34:40.154,25.2,510.0,0.41,0.87,-0.07,-0.02,0.68,-4.69
2024-12-06 12:34:40.162,20.92,501.0,0.41,0.88,-0.08,0.1,0.25,-4.69
2024-12-06 12:34:40.176,18.23,515.0,0.4,0.88,-0.08,-0.02,1.1,-4.75
2024-12-06 12:34:40.180,15.52,495.0,0.4,0.88,-0.08,0.22,1.1,-5.18
2024-12-06 12:34:40.185,23.4,496.0,0.4,0.88,-0.08,0.47,1.35,-5.85
2024-12-06 12:34:40.196,19.8,501.0,0.4,0.88,-0.08,0.47,1.35,-5.85
2024-12-06 12:34:40.229,20.02,524.0,0.4,0.9,-0.06,1.32,-1.52,-7.19
2024-12-06 12:34:40.232,24.07,501.0,0.4,0.9,-0.06,1.32,-1.52,-7.19
2024-12-06 12:34:40.239,21.15,492.0,0.39,0.91,-0.07,1.14,-1.58,-7.5
2024-12-06 12:34:40.250,23.85,532.0,0.39,0.92,-0.08,0.83,-1.03,-7.62
2024-12-06 12:34:40.260,20.7,493.0,0.4,0.92,-0.07,0.34,0.13,-7.31
2024-12-06 12:34:40.263,22.72,514.0,0.4,0.92,-0.07,1.14,0.13,-7.31
2024-12-06 12:34:40.274,19.35,504.0,0.39,0.91,-0.08,1.62,0.8,-7.86
2024-12-06 12:34:40.279,20.92,514.0,0.38,0.89,-0.09,1.62,0.8,-7.86
2024-12-06 12:34:40.286,19.57,503.0,0.38,0.88,-0.07,1.99,0.19,-8.47
2024-12-06 12:34:40.294,16.42,513.0,0.38,0.88,-0.06,2.3,-1.03,-9.08
2024-12-06 12:34:40.301,18.9,502.0,0.37,0.89,-0.07,1.93,-0.79,-9.45
2024-12-06 12:34:40.310,18.67,491.0,0.37,0.89,-0.07,1.5,-1.03,-9.57
2024-12-06 12:34:40.317,20.7,511.0,0.37,0.91,-0.05,0.59,-0.61,-9.45
2024-12-06 12:34:40.345,20.25,502.0,0.37,0.91,-0.05,0.59,-0.61,-9.45
2024-12-06 12:34:40.348,21.6,529.0,0.38,0.94,-0.09,0.1,2.75,-8.17
2024-12-06 12:34:40.351,20.02,503.0,0.36,0.92,-0.09,0.65,1.65,-7.37
2024-12-06 12:34:40.373,19.8,498.0,0.36,0.92,-0.09,1.01,2.93,-7.86
2024-12-06 12:34:40.386,22.05,521.0,0.4,0.9,-0.07,0.95,3.24,-7.8
2024-12-06 12:34:40.390,19.12,514.0,0.4,0.89,-0.07,0.71,-0.06,-6.34
2024-12-06 12:34:40.394,22.27,502.0,0.4,0.89,-0.07,0.4,0.74,-6.4
2024-12-06 12:34:40.402,13.27,500.0,0.4,0.9,-0.06,0.47,-0.24,-5.79
2024-12-06 12:34:40.410,15.75,515.0,0.41,0.91,-0.05,0.47,-0.24,-5.79
2024-12-06 12:34:40.417,20.7,529.0,0.4,0.91,-0.06,0.71,-0.73,-5.18
2024-12-06 12:34:40.428,20.02,505.0,0.4,0.9,-0.06,0.89,-0.06,-5.06
2024-12-06 12:34:40.458,11.02,504.0,0.38,0.9,-0.06,1.81,-0.91,-4.69
2024-12-06 12:34:40.466,17.32,502.0,0.38,0.91,-0.06,2.05,-0.24,-4.75
2024-12-06 12:34:40.469,22.95,505.0,0.38,0.92,-0.06,2.05,0.86,-4.51
2024-12-06 12:34:40.471,22.5,518.0,0.38,0.93,-0.06,2.05,1.53,-3.96
2024-12-06 12:34:40.482,20.25,533.0,0.38,0.93,-0.06,2.3,2.26,-3.65
2024-12-06 12:34:40.487,17.55,515.0,0.37,0.93,-0.07,2.3,2.93,-3.71
2024-12-06 12:34:40.498,19.12,525.0,0.37,0.92,-0.08,2.6,2.93,-3.71
2024-12-06 12:34:40.505,19.8,500.0,0.38,0.9,-0.07,3.03,2.69,-3.83
2024-12-06 12:34:40.528,21.82,523.0,0.37,0.89,-0.08,3.39,1.04,-4.45
2024-12-06 12:34:40.535,20.7,497.0,0.37,0.9,-0.08,3.39,1.04,-4.45
2024-12-06 12:34:40.544,22.27,515.0,0.36,0.91,-0.08,2.97,0.74,-4.2
2024-12-06 12:34:40.548,21.15,508.0,0.36,0.93,-0.09,2.42,0.98,-3.53
2024-12-06 12:34:40.562,20.25,505.0,0.35,0.93,-0.09,1.81,1.53,-2.86
2024-12-06 12:34:40.565,16.88,496.0,0.35,0.93,-0.09,1.01,2.57,-2.13
2024-12-06 12:34:40.571,16.88,502.0,0.36,0.93,-0.09,1.01,2.57,-2.13
2024-12-06 12:34:40.583,20.7,501.0,0.36,0.93,-0.08,0.28,3.12,-1.09
2024-12-06 12:34:40.594,9.68,501.0,0.36,0.92,-0.08,-0.15,2.93,-0.36
2024-12-06 12:34:40.600,18.67,493.0,0.37,0.91,-0.08,-0.45,3.3,0.07
2024-12-06 12:34:40.614,20.02,490.0,0.37,0.91,-0.08,-0.57,2.87,0.62
2024-12-06 12:34:40.618,18.67,511.0,0.38,0.9,-0.07,-0.63,2.32,1.05
2024-12-06 12:34:40.620,14.85,511.0,0.39,0.9,-0.07,-0.63,2.32,1.05
2024-12-06 12:34:40.625,17.32,496.0,0.39,0.9,-0.06,-0.76,1.96,1.54
2024-12-06 12:34:40.634,14.85,510.0,0.39,0.9,-0.06,-0.76,1.35,1.9
2024-12-06 12:34:40.647,23.17,508.0,0.39,0.9,-0.06,-0.69,0.86,1.96
2024-12-06 12:34:40.652,19.12,487.0,0.39,0.9,-0.06,-0.69,0.8,2.15
2024-12-06 12:34:40.658,20.25,496.0,0.39,0.9,-0.06,-0.39,0.49,2.51
2024-12-06 12:34:40.666,20.02,514.0,0.39,0.9,-0.06,-0.39,0.49,2.51
2024-12-06 12:34:40.700,17.1,495.0,0.39,0.91,-0.08,0.53,-1.22,2.57
2024-12-06 12:34:40.706,21.6,511.0,0.38,0.91,-0.07,0.53,-1.22,2.57
2024-12-06 12:34:40.716,21.38,499.0,0.38,0.91,-0.08,0.59,-1.77,2.33
2024-12-06 12:34:40.718,20.25,499.0,0.38,0.91,-0.08,0.59,-2.68,1.9
2024-12-06 12:34:40.726,18.9,508.0,0.37,0.9,-0.08,0.59,-4.21,1.41
2024-12-06 12:34:40.739,18.9,496.0,0.37,0.9,-0.09,0.59,-5.24,0.68
2024-12-06 12:34:40.748,20.7,496.0,0.36,0.89,-0.09,0.4,-5.73,0.01
2024-12-06 12:34:40.757,16.42,490.0,0.36,0.9,-0.09,0.4,-5.73,0.01
2024-12-06 12:34:40.760,18.45,489.0,0.39,0.92,-0.08,-0.15,-5.31,0.19
2024-12-06 12:34:40.857,17.77,504.0,0.38,0.89,-0.06,-1.92,-4.57,1.05
2024-12-06 12:34:40.866,19.57,509.0,0.4,0.91,-0.06,-1.92,-4.57,1.05
2024-12-06 12:34:40.871,16.2,503.0,0.4,0.92,-0.06,-1.92,-3.96,1.84
2024-12-06 12:34:40.914,20.48,517.0,0.39,0.9,-0.06,-1.73,-2.38,2.88
2024-12-06 12:34:40.917,19.57,503.0,0.39,0.9,-0.06,-1.79,-2.19,2.57
2024-12-06 12:34:40.920,22.05,493.0,0.4,0.9,-0.06,-1.85,-2.19,2.33
2024-12-06 12:34:40.931,16.2,497.0,0.41,0.9,-0.06,-1.92,-2.62,2.09
2024-12-06 12:34:40.938,19.8,503.0,0.41,0.9,-0.06,-2.04,-3.17,2.09
2024-12-06 12:34:40.941,18.23,493.0,0.42,0.91,-0.07,-2.1,-3.72,2.15
2024-12-06 12:34:40.948,22.5,496.0,0.42,0.91,-0.07,-2.1,-3.72,2.15
2024-12-06 12:34:40.959,22.27,490.0,0.42,0.92,-0.07,-2.1,-4.45,2.21
2024-12-06 12:34:40.964,21.38,505.0,0.42,0.91,-0.07,-1.92,-4.94,2.21
2024-12-06 12:34:40.972,24.75,497.0,0.41,0.91,-0.07,-1.61,-5.43,2.15
2024-12-06 12:34:40.981,18.23,504.0,0.4,0.9,-0.07,-1.37,-5.73,1.9
2024-12-06 12:34:40.989,19.57,490.0,0.4,0.9,-0.07,-1.24,-5.61,1.66
2024-12-06 12:34:41.10,22.95,493.0,0.4,0.9,-0.07,-1.24,-5.61,1.66
2024-12-06 12:34:41.18,20.25,486.0,0.39,0.9,-0.06,-1.24,-5.18,1.17
2024-12-06 12:34:41.51,20.25,492.0,0.39,0.9,-0.06,-1.37,-4.76,0.93
2024-12-06 12:34:41.54,18.23,507.0,0.38,0.9,-0.07,-1.24,-3.78,-0.17
2024-12-06 12:34:41.56,21.15,495.0,0.39,0.9,-0.07,-1.12,-3.47,-0.54
2024-12-06 12:34:41.71,20.7,504.0,0.39,0.9,-0.07,-1.0,-3.35,-0.66
2024-12-06 12:34:41.73,17.55,500.0,0.39,0.9,-0.07,-0.88,-3.6,-0.78
2024-12-06 12:34:41.86,17.32,493.0,0.39,0.9,-0.07,-0.88,-3.6,-0.78
2024-12-06 12:34:41.92,22.5,510.0,0.39,0.9,-0.07,-0.88,-3.66,-0.97
2024-12-06 12:34:41.96,18.23,499.0,0.39,0.89,-0.07,-0.94,-3.96,-1.27
2024-12-06 12:34:41.106,23.85,496.0,0.38,0.89,-0.08,-1.0,-4.45,-1.7
2024-12-06 12:34:41.154,18.9,494.0,0.41,0.92,-0.08,-1.3,-4.57,-1.94
2024-12-06 12:34:41.160,20.25,489.0,0.4,0.92,-0.08,-1.24,-4.39,-1.09
2024-12-06 12:34:41.165,18.23,495.0,0.4,0.91,-0.09,-1.18,-4.51,-1.09
2024-12-06 12:34:41.173,18.45,505.0,0.39,0.9,-0.08,-1.12,-4.51,-1.15
2024-12-06 12:34:41.185,19.8,494.0,0.39,0.9,-0.08,-1.18,-4.82,-1.33
2024-12-06 12:34:41.193,15.97,493.0,0.39,0.89,-0.07,-1.37,-5.18,-1.52
2024-12-06 12:34:41.212,20.02,491.0,0.39,0.89,-0.07,-1.55,-5.37,-1.58
2024-12-06 12:34:41.216,18.45,490.0,0.4,0.9,-0.07,-1.73,-5.67,-1.33
2024-12-06 12:34:41.249,21.82,490.0,0.38,0.91,-0.08,-1.79,-4.82,-0.97
2024-12-06 12:34:41.251,17.77,505.0,0.39,0.91,-0.07,-1.79,-4.82,-0.97
2024-12-06 12:34:41.260,20.48,489.0,0.38,0.91,-0.07,-1.67,-4.45,-0.84
2024-12-06 12:34:41.267,22.5,481.0,0.38,0.9,-0.07,-1.67,-3.96,-0.84
2024-12-06 12:34:41.275,21.6,494.0,0.38,0.9,-0.07,-1.73,-3.47,-0.84
2024-12-06 12:34:41.282,18.9,503.0,0.38,0.9,-0.07,-1.73,-3.29,-0.97
2024-12-06 12:34:41.289,21.38,483.0,0.38,0.9,-0.07,-1.67,-3.17,-1.09
2024-12-06 12:34:41.298,21.6,518.0,0.38,0.9,-0.07,-1.67,-3.17,-1.09
2024-12-06 12:34:41.311,20.48,485.0,0.38,0.9,-0.08,-1.55,-2.86,-1.33
2024-12-06 12:34:41.319,20.7,492.0,0.38,0.9,-0.08,-1.43,-2.62,-1.45
2024-12-06 12:34:41.322,17.1,488.0,0.38,0.9,-0.08,-1.24,-2.56,-1.39
2024-12-06 12:34:41.330,22.95,496.0,0.38,0.91,-0.08,-1.12,-2.31,-1.21
2024-12-06 12:34:41.340,17.1,504.0,0.38,0.91,-0.08,-1.12,-2.01,-1.21
2024-12-06 12:34:41.356,17.32,499.0,0.37,0.92,-0.08,-1.12,-1.58,-1.27
2024-12-06 12:34:41.391,20.7,486.0,0.37,0.91,-0.08,-0.76,0.25,-1.45
2024-12-06 12:34:41.398,20.02,508.0,0.38,0.91,-0.08,-0.57,0.92,-1.45
2024-12-06 12:34:41.404,16.42,490.0,0.38,0.91,-0.08,-0.39,1.41,-1.27
2024-12-06 12:34:41.415,20.25,499.0,0.38,0.91,-0.08,-0.33,1.84,-1.27
2024-12-06 12:34:41.420,20.25,499.0,0.38,0.91,-0.08,-0.27,2.08,-1.33
2024-12-06 12:34:41.422,18.23,495.0,0.38,0.91,-0.08,-0.21,1.96,-1.45
2024-12-06 12:34:41.431,22.5,498.0,0.38,0.91,-0.07,-0.21,1.96,-1.45
2024-12-06 12:34:41.439,21.38,510.0,0.38,0.91,-0.07,-0.27,1.71,-1.52
2024-12-06 12:34:41.454,21.38,486.0,0.39,0.91,-0.07,-0.39,1.47,-1.52
2024-12-06 12:34:41.458,22.95,462.0,0.39,0.91,-0.07,-0.45,1.16,-1.52
2024-12-06 12:34:41.460,21.15,504.0,0.39,0.91,-0.07,-0.51,0.98,-1.58
2024-12-06 12:34:41.473,17.77,483.0,0.39,0.91,-0.07,-0.57,0.92,-1.58
2024-12-06 12:34:41.485,20.7,493.0,0.39,0.91,-0.07,-0.57,0.92,-1.58
2024-12-06 12:34:41.492,18.0,481.0,0.39,0.91,-0.07,-0.57,0.8,-1.52
2024-12-06 12:34:41.525,19.35,499.0,0.4,0.91,-0.07,-0.76,0.13,-1.03
2024-12-06 12:34:41.531,23.62,472.0,0.4,0.91,-0.07,-0.82,-0.18,-1.03
2024-12-06 12:34:41.536,20.48,501.0,0.4,0.91,-0.07,-0.76,-0.42,-1.03
2024-12-06 12:34:41.544,20.48,499.0,0.4,0.91,-0.07,-0.63,-0.61,-0.97
2024-12-06 12:34:41.555,20.25,492.0,0.4,0.91,-0.07,-0.63,-0.61,-0.97
2024-12-06 12:34:41.586,20.02,487.0,0.39,0.9,-0.07,-0.39,-0.48,-1.27
2024-12-06 12:34:41.592,18.0,485.0,0.38,0.9,-0.07,-0.39,-0.48,-1.27
2024-12-06 12:34:41.600,20.92,500.0,0.38,0.9,-0.07,-0.39,-0.42,-1.27
2024-12-06 12:34:41.609,20.7,485.0,0.38,0.91,-0.07,-0.45,-0.24,-1.27
2024-12-06 12:34:41.615,18.23,493.0,0.39,0.91,-0.07,-0.39,-0.24,-1.21
2024-12-06 12:34:41.623,20.92,501.0,0.39,0.91,-0.07,-0.27,-0.36,-1.03
2024-12-06 12:34:41.632,20.7,483.0,0.39,0.91,-0.07,-0.21,-0.36,-0.97
2024-12-06 12:34:41.638,20.25,487.0,0.39,0.91,-0.08,-0.21,-0.48,-0.91
2024-12-06 12:34:41.646,21.15,483.0,0.39,0.91,-0.08,-0.21,-0.48,-0.91
2024-12-06 12:34:41.654,14.62,498.0,0.38,0.91,-0.07,-0.21,-0.54,-0.91
2024-12-06 12:34:41.663,18.9,499.0,0.38,0.91,-0.07,-0.21,-0.61,-1.03
2024-12-06 12:34:41.671,15.3,489.0,0.38,0.91,-0.07,-0.27,-0.67,-1.03
2024-12-06 12:34:41.679,21.15,486.0,0.38,0.91,-0.07,-0.39,-0.67,-0.97
2024-12-06 12:34:41.697,18.9,501.0,0.38,0.91,-0.07,-0.51,-0.67,-0.91
2024-12-06 12:34:41.729,20.7,477.0,0.38,0.91,-0.07,-0.27,0.07,-0.91
2024-12-06 12:34:41.734,22.05,498.0,0.39,0.9,-0.07,-0.27,0.07,-0.91
2024-12-06 12:34:41.739,19.57,499.0,0.39,0.9,-0.07,-0.08,0.13,-0.91
2024-12-06 12:34:41.769,22.27,484.0,0.39,0.9,-0.07,-0.02,-0.18,-1.03
2024-12-06 12:34:41.773,21.38,497.0,0.39,0.91,-0.07,-0.02,-0.54,-1.21
2024-12-06 12:34:41.778,21.38,488.0,0.39,0.91,-0.07,-0.02,-0.85,-1.39
2024-12-06 12:34:41.937,21.15,487.0,0.39,0.9,-0.06,-0.57,-2.07,-1.64
2024-12-06 12:34:41.943,23.17,508.0,0.39,0.91,-0.07,-0.57,-2.44,-1.64
2024-12-06 12:34:41.984,14.62,487.0,0.38,0.92,-0.07,-0.82,-2.62,-1.45
2024-12-06 12:34:41.994,23.17,489.0,0.38,0.92,-0.07,-0.82,-2.44,-1.58
2024-12-06 12:34:42.0,18.23,488.0,0.38,0.91,-0.07,-0.82,-2.44,-1.58
2024-12-06 12:34:42.5,20.02,497.0,0.38,0.91,-0.07,-0.76,-2.13,-1.64
2024-12-06 12:34:42.37,14.85,500.0,0.38,0.9,-0.08,-0.02,-1.09,-1.88
2024-12-06 12:34:42.41,21.15,494.0,0.38,0.9,-0.07,0.1,-0.85,-1.94
2024-12-06 12:34:42.55,20.25,483.0,0.38,0.91,-0.07,0.16,-0.97,-1.94
2024-12-06 12:34:42.59,16.65,501.0,0.38,0.92,-0.07,0.1,-0.85,-1.94
2024-12-06 12:34:42.70,23.4,501.0,0.38,0.92,-0.07,0.04,-0.54,-1.94
2024-12-06 12:34:42.72,22.95,490.0,0.38,0.92,-0.07,0.1,-0.48,-1.88
2024-12-06 12:34:42.80,17.32,504.0,0.38,0.91,-0.07,0.1,-0.48,-1.88
2024-12-06 12:34:42.91,21.38,491.0,0.39,0.91,-0.07,0.04,-0.54,-1.76
2024-12-06 12:34:42.97,21.15,493.0,0.38,0.9,-0.07,-0.08,-0.67,-1.64
2024-12-06 12:34:42.104,17.1,486.0,0.38,0.9,-0.07,-0.08,-0.42,-1.82
2024-12-06 12:34:42.112,18.23,500.0,0.38,0.9,-0.07,-0.08,-0.24,-1.94
2024-12-06 12:34:42.120,16.65,501.0,0.38,0.9,-0.07,-0.02,-0.42,-1.88
2024-12-06 12:34:42.130,20.48,494.0,0.39,0.9,-0.07,-0.02,-0.42,-1.88
2024-12-06 12:34:42.144,22.27,521.0,0.39,0.91,-0.07,0.16,-0.36,-1.58
2024-12-06 12:34:42.151,22.05,493.0,0.39,0.92,-0.07,0.4,-0.18,-1.45
2024-12-06 12:34:42.164,20.25,472.0,0.39,0.92,-0.07,0.59,0.19,-1.27
2024-12-06 12:34:42.181,15.97,490.0,0.39,0.92,-0.07,0.77,0.55,-1.09
2024-12-06 12:34:42.189,11.47,491.0,0.39,0.92,-0.07,0.95,0.74,-0.84
2024-12-06 12:34:42.192,15.52,499.0,0.39,0.91,-0.07,1.08,0.98,-0.72
2024-12-06 12:34:42.197,22.27,503.0,0.39,0.91,-0.07,1.14,1.35,-0.54
2024-12-06 12:34:42.207,22.72,504.0,0.39,0.91,-0.07,1.14,1.77,-0.29
2024-12-06 12:34:42.217,17.77,528.0,0.39,0.91,-0.07,1.14,1.77,-0.29
2024-12-06 12:34:42.221,23.17,500.0,0.39,0.91,-0.07,1.26,2.02,-0.17
2024-12-06 12:34:42.230,20.02,489.0,0.39,0.91,-0.07,1.26,2.14,0.01
2024-12-06 12:34:42.268,20.7,488.0,0.38,0.91,-0.07,1.08,2.08,1.17
2024-12-06 12:34:42.274,20.92,502.0,0.38,0.91,-0.07,0.95,2.02,1.29
2024-12-06 12:34:42.363,21.6,504.0,0.4,0.91,-0.08,1.01,2.2,2.7
2024-12-06 12:34:42.373,20.25,486.0,0.38,0.91,-0.07,0.65,3.36,4.22
2024-12-06 12:34:42.377,18.45,478.0,0.38,0.92,-0.07,0.59,3.97,4.34
2024-12-06 12:34:42.379,16.88,499.0,0.38,0.92,-0.07,0.59,4.64,4.71
2024-12-06 12:34:42.391,16.88,490.0,0.38,0.92,-0.07,0.83,5.31,5.14
2024-12-06 12:34:42.401,18.9,488.0,0.38,0.92,-0.07,1.01,6.11,5.69
2024-12-06 12:34:42.403,18.9,497.0,0.39,0.92,-0.07,1.14,6.84,6.42
2024-12-06 12:34:42.418,22.05,515.0,0.39,0.91,-0.07,1.14,6.84,6.42
2024-12-06 12:34:42.420,18.23,492.0,0.4,0.91,-0.07,1.32,7.39,7.09
2024-12-06 12:34:42.426,17.55,478.0,0.39,0.91,-0.08,1.62,7.39,7.46
2024-12-06 12:34:42.434,21.82,483.0,0.4,0.91,-0.09,1.81,7.7,7.58
2024-12-06 12:34:42.443,18.45,488.0,0.4,0.91,-0.09,1.81,7.63,7.7
2024-12-06 12:34:42.463,20.92,488.0,0.4,0.9,-0.08,1.93,7.33,7.76
2024-12-06 12:34:42.466,20.48,491.0,0.41,0.9,-0.08,1.99,6.54,8.01
2024-12-06 12:34:42.473,20.48,507.0,0.42,0.9,-0.08,2.05,5.99,8.37
2024-12-06 12:34:42.486,22.05,521.0,0.42,0.9,-0.08,2.11,5.93,8.8
2024-12-06 12:34:42.489,22.27,485.0,0.42,0.9,-0.08,2.11,5.68,9.17
2024-12-06 12:34:42.497,22.27,499.0,0.43,0.91,-0.07,2.3,5.01,9.59
2024-12-06 12:34:42.505,22.95,479.0,0.43,0.91,-0.07,2.3,5.01,9.59
2024-12-06 12:34:42.513,22.72,508.0,0.42,0.91,-0.07,2.6,4.95,9.9
2024-12-06 12:34:42.554,20.92,492.0,0.42,0.91,-0.07,3.03,5.01,10.26
2024-12-06 12:34:42.558,15.07,521.0,0.42,0.9,-0.07,3.15,5.74,10.14
2024-12-06 12:34:42.560,16.65,511.0,0.43,0.89,-0.07,3.39,6.41,10.2
2024-12-06 12:34:42.569,20.25,500.0,0.43,0.89,-0.07,3.58,6.72,10.51
2024-12-06 12:34:42.575,19.35,486.0,0.43,0.89,-0.07,3.7,6.11,10.94
2024-12-06 12:34:42.584,9.9,493.0,0.44,0.89,-0.06,3.82,6.35,11.18
2024-12-06 12:34:42.595,19.8,505.0,0.44,0.89,-0.07,3.82,6.35,11.18
2024-12-06 12:34:42.621,22.95,494.0,0.45,0.89,-0.06,3.46,5.13,11.91
2024-12-06 12:34:42.640,17.32,505.0,0.45,0.88,-0.07,3.46,5.13,11.91
2024-12-06 12:34:42.643,18.9,500.0,0.45,0.88,-0.07,3.27,4.77,11.67
2024-12-06 12:34:42.657,20.25,506.0,0.45,0.88,-0.07,3.33,4.09,11.3
2024-12-06 12:34:42.660,19.8,492.0,0.45,0.88,-0.06,2.97,2.26,10.75
2024-12-06 12:34:42.668,19.57,490.0,0.45,0.88,-0.06,2.72,1.65,10.57
2024-12-06 12:34:42.676,20.7,503.0,0.46,0.88,-0.06,2.72,1.65,10.57
2024-12-06 12:34:42.721,15.3,501.0,0.46,0.88,-0.05,2.36,0.8,10.33
2024-12-06 12:34:42.728,20.7,520.0,0.46,0.87,-0.05,1.5,-0.12,10.33
2024-12-06 12:34:42.735,18.67,494.0,0.45,0.87,-0.05,1.5,-0.48,10.33
2024-12-06 12:34:42.748,20.25,506.0,0.45,0.86,-0.06,1.5,-0.54,9.96
2024-12-06 12:34:42.751,20.92,497.0,0.45,0.85,-0.06,1.56,-0.61,9.59
2024-12-06 12:34:42.788,20.25,497.0,0.46,0.86,-0.07,1.08,-0.48,9.23
2024-12-06 12:34:42.790,20.92,493.0,0.46,0.86,-0.07,0.4,-0.61,9.41
2024-12-06 12:34:42.798,20.7,491.0,0.47,0.87,-0.05,0.4,-0.61,9.41
2024-12-06 12:34:42.813,21.15,539.0,0.47,0.87,-0.04,-0.33,-1.46,9.96
2024-12-06 12:34:42.816,21.38,503.0,0.47,0.86,-0.06,-0.82,-2.07,10.33
2024-12-06 12:34:42.825,18.9,486.0,0.47,0.86,-0.07,-1.3,-1.83,10.33
2024-12-06 12:34:42.833,20.48,500.0,0.47,0.86,-0.07,-1.61,-2.01,10.51
2024-12-06 12:34:42.838,22.5,502.0,0.47,0.86,-0.07,-1.85,-2.68,10.87
2024-12-06 12:34:42.848,21.15,500.0,0.48,0.86,-0.06,-1.85,-2.68,10.87
2024-12-06 12:34:42.969,20.48,505.0,0.44,0.81,-0.06,-3.44,-6.16,1.29
2024-12-06 12:34:42.974,22.72,503.0,0.46,0.81,-0.05,-3.38,-4.51,-0.91
2024-12-06 12:34:42.982,20.92,512.0,0.48,0.83,-0.04,-3.14,-4.94,-2.37
2024-12-06 12:34:42.997,23.85,500.0,0.48,0.84,-0.03,-2.77,-5.98,-3.53
2024-12-06 12:34:42.999,23.62,516.0,0.48,0.84,-0.03,-2.22,-6.77,-5.85
2024-12-06 12:34:43.6,26.1,514.0,0.46,0.82,-0.05,-2.22,-6.77,-5.85
2024-12-06 12:34:43.13,29.02,515.0,0.49,0.83,-0.05,-2.1,-4.63,-8.23
2024-12-06 12:34:43.23,24.75,493.0,0.52,0.84,-0.02,-1.43,-6.28,-8.78
2024-12-06 12:34:43.37,28.57,507.0,0.49,0.83,-0.05,-0.57,-10.13,-9.51
2024-12-06 12:34:43.40,25.88,525.0,0.49,0.83,-0.05,-0.82,-7.2,-11.28
2024-12-06 12:34:43.48,28.8,500.0,0.48,0.82,-0.08,-0.63,-7.44,-11.59
2024-12-06 12:34:43.55,29.7,499.0,0.5,0.84,-0.04,-0.63,-7.44,-11.59
2024-12-06 12:34:43.68,32.85,516.0,0.48,0.84,-0.07,-0.15,-10.43,-11.59
2024-12-06 12:34:43.79,32.4,514.0,0.49,0.85,-0.08,-0.76,-7.69,-11.77
2024-12-06 12:34:43.84,29.47,502.0,0.47,0.85,-0.05,-0.76,-9.27,-11.53
2024-12-06 12:34:43.88,31.27,521.0,0.47,0.85,-0.05,-0.94,-9.33,-11.65
2024-12-06 12:34:43.96,34.2,514.0,0.47,0.84,-0.08,-0.94,-9.33,-11.65
2024-12-06 12:34:43.103,31.05,498.0,0.48,0.85,-0.08,-1.49,-7.14,-11.22
2024-12-06 12:34:43.110,35.55,510.0,0.47,0.86,-0.07,-1.79,-9.39,-10.61
2024-12-06 12:34:43.119,37.58,500.0,0.48,0.86,-0.09,-2.46,-7.5,-10.18
2024-12-06 12:34:43.128,38.02,509.0,0.48,0.87,-0.08,-2.95,-6.65,-9.76
2024-12-06 12:34:43.131,37.12,512.0,0.48,0.87,-0.08,-3.01,-7.99,-9.51
2024-12-06 12:34:43.143,39.15,533.0,0.48,0.87,-0.09,-3.26,-6.59,-9.33
2024-12-06 12:34:43.178,39.83,513.0,0.49,0.9,-0.08,-3.01,-7.5,-8.05
2024-12-06 12:34:43.185,42.08,499.0,0.48,0.91,-0.08,-3.01,-7.5,-8.05
2024-12-06 12:34:43.195,41.4,506.0,0.48,0.91,-0.09,-2.95,-4.57,-7.5
2024-12-06 12:34:43.218,40.72,507.0,0.48,0.91,-0.08,-1.98,-3.29,-6.7
2024-12-06 12:34:43.225,43.42,499.0,0.47,0.89,-0.07,-0.51,-1.64,-6.28
2024-12-06 12:34:43.234,47.47,493.0,0.46,0.88,-0.07,-0.27,-0.79,-6.64
2024-12-06 12:34:43.243,48.15,508.0,0.45,0.87,-0.07,-0.27,-0.79,-6.64
2024-12-06 12:34:43.248,46.57,534.0,0.49,0.88,-0.08,-0.08,0.62,-6.64
2024-12-06 12:34:43.275,47.92,500.0,0.48,0.89,-0.08,-0.02,0.43,-5.6
2024-12-06 12:34:43.279,48.82,508.0,0.47,0.89,-0.09,0.47,0.31,-4.99
2024-12-06 12:34:43.285,49.05,508.0,0.48,0.91,-0.08,0.53,0.31,-4.02
2024-12-06 12:34:43.294,47.02,518.0,0.46,0.89,-0.09,0.95,-0.42,-3.22
2024-12-06 12:34:43.301,49.95,495.0,0.46,0.89,-0.09,1.44,0.19,-3.29
2024-12-06 12:34:43.311,53.1,506.0,0.45,0.87,-0.09,1.62,1.35,-2.92
2024-12-06 12:34:43.322,48.6,495.0,0.47,0.88,-0.08,1.62,1.35,-2.92
2024-12-06 12:34:43.325,53.1,499.0,0.47,0.88,-0.08,2.11,1.1,-1.82
2024-12-06 12:34:43.334,52.88,488.0,0.45,0.88,-0.08,2.48,0.49,-1.21
2024-12-06 12:34:43.344,55.12,499.0,0.45,0.87,-0.07,2.17,1.1,-1.27
2024-12-06 12:34:43.352,49.95,521.0,0.45,0.87,-0.06,1.75,2.14,-1.33
2024-12-06 12:34:43.358,54.9,500.0,0.46,0.87,-0.06,1.75,1.96,-0.78
2024-12-06 12:34:43.364,54.22,507.0,0.47,0.89,-0.06,1.75,1.96,-0.78
2024-12-06 12:34:43.401,56.02,494.0,0.44,0.87,-0.07,1.14,1.16,-0.6
2024-12-06 12:34:43.406,56.47,485.0,0.45,0.88,-0.07,1.14,1.16,-0.6
2024-12-06 12:34:43.410,55.35,494.0,0.45,0.88,-0.07,0.95,0.92,-0.6
2024-12-06 12:34:43.418,54.0,496.0,0.45,0.88,-0.07,0.71,0.74,-0.36
2024-12-06 12:34:43.427,53.77,513.0,0.45,0.88,-0.07,0.59,0.68,-0.11
2024-12-06 12:34:43.463,57.15,509.0,0.47,0.88,-0.05,-0.76,-0.73,-0.05
2024-12-06 12:34:43.468,58.27,486.0,0.47,0.9,-0.07,-1.18,-1.03,0.38
2024-12-06 12:34:43.481,59.62,496.0,0.47,0.9,-0.07,-1.06,-1.77,1.05
2024-12-06 12:34:43.484,60.52,501.0,0.46,0.9,-0.08,-0.63,-2.31,1.35
2024-12-06 12:34:43.488,59.85,493.0,0.45,0.88,-0.08,-0.63,-2.31,1.35
2024-12-06 12:34:43.495,57.6,505.0,0.44,0.85,-0.09,-0.39,-1.46,0.68
2024-12-06 12:34:43.502,52.88,479.0,0.46,0.85,-0.08,-0.33,-1.09,0.19
2024-12-06 12:34:43.513,59.62,489.0,0.47,0.86,-0.09,-0.39,-2.31,0.25
2024-12-06 12:34:43.535,61.88,491.0,0.46,0.86,-0.08,-0.08,-3.96,0.56
2024-12-06 12:34:43.541,62.32,490.0,0.45,0.85,-0.08,-0.08,-4.02,0.19
2024-12-06 12:34:43.559,61.42,498.0,0.45,0.84,-0.08,-0.21,-3.54,-0.36
2024-12-06 12:34:43.564,63.22,507.0,0.46,0.85,-0.09,-0.15,-2.92,-0.23
2024-12-06 12:34:43.573,61.42,483.0,0.46,0.87,-0.09,-0.15,-2.92,-0.23
2024-12-06 12:34:43.582,67.95,485.0,0.44,0.88,-0.09,-0.02,-2.86,0.13
2024-12-06 12:34:43.621,66.15,519.0,0.44,0.87,-0.08,0.04,-2.31,0.01
2024-12-06 12:34:43.632,65.47,506.0,0.46,0.88,-0.08,-0.88,-0.36,0.38
2024-12-06 12:34:43.637,67.5,487.0,0.47,0.83,-0.07,-0.15,-0.54,0.01
2024-12-06 12:34:43.641,68.85,489.0,0.47,0.83,-0.07,0.04,-0.54,-0.05
2024-12-06 12:34:43.650,70.2,480.0,0.49,0.84,-0.08,0.4,-1.7,0.19
2024-12-06 12:34:43.656,67.28,489.0,0.49,0.85,-0.08,0.4,-1.7,0.19
2024-12-06 12:34:43.671,65.03,484.0,0.48,0.84,-0.08,0.95,-2.68,0.07
2024-12-06 12:34:43.682,69.07,494.0,0.47,0.84,-0.07,1.26,-2.5,-0.72
2024-12-06 12:34:43.688,71.78,480.0,0.47,0.86,-0.07,1.2,-2.19,-1.21
2024-12-06 12:34:43.691,70.88,497.0,0.47,0.86,-0.07,1.32,-2.07,-1.33
2024-12-06 12:34:43.695,68.85,484.0,0.47,0.88,-0.08,1.81,-2.25,-1.45
2024-12-06 12:34:43.705,73.12,498.0,0.46,0.88,-0.07,1.81,-2.25,-1.45
2024-12-06 12:34:43.711,73.35,493.0,0.46,0.87,-0.07,1.87,-2.25,-1.76
2024-12-06 12:34:43.724,73.57,484.0,0.47,0.88,-0.07,1.56,-2.13,-1.45
2024-12-06 12:34:43.734,74.25,491.0,0.46,0.89,-0.08,1.01,-2.68,-0.97
2024-12-06 12:34:43.752,75.15,496.0,0.46,0.89,-0.08,0.59,-2.8,-1.03
2024-12-06 12:34:43.761,74.7,508.0,0.47,0.86,-0.07,-0.88,-3.11,-1.03
2024-12-06 12:34:43.769,72.9,493.0,0.47,0.86,-0.08,-1.37,-4.51,-0.48
2024-12-06 12:34:43.774,78.53,489.0,0.47,0.86,-0.08,-1.55,-5.31,-0.48
2024-12-06 12:34:43.782,75.15,494.0,0.46,0.84,-0.08,-1.79,-5.61,-0.66
2024-12-06 12:34:43.790,76.95,503.0,0.46,0.84,-0.07,-1.79,-5.61,-0.66
2024-12-06 12:34:43.838,81.0,481.0,0.46,0.88,-0.08,-2.53,-6.22,-0.17
2024-12-06 12:34:43.848,81.67,505.0,0.47,0.87,-0.08,-2.46,-6.34,-0.05
2024-12-06 12:34:43.851,81.22,488.0,0.46,0.88,-0.09,-2.65,-7.08,0.32
2024-12-06 12:34:43.860,84.38,491.0,0.46,0.88,-0.09,-2.89,-6.77,0.19
2024-12-06 12:34:43.872,82.8,491.0,0.46,0.87,-0.08,-3.38,-6.28,0.25
2024-12-06 12:34:43.875,80.55,485.0,0.47,0.88,-0.07,-3.38,-6.28,0.25
2024-12-06 12:34:43.882,82.8,494.0,0.47,0.89,-0.07,-3.81,-6.16,0.68
2024-12-06 12:34:43.896,79.2,490.0,0.46,0.89,-0.08,-4.11,-6.04,1.17
2024-12-06 12:34:43.899,83.47,504.0,0.46,0.88,-0.09,-4.17,-5.55,1.41
2024-12-06 12:34:43.910,86.17,479.0,0.46,0.88,-0.08,-4.11,-5.79,1.78
2024-12-06 12:34:44.18,90.22,508.0,0.46,0.86,-0.08,-3.5,-5.49,6.42
2024-12-06 12:34:44.26,87.52,511.0,0.46,0.86,-0.08,-3.32,-4.76,6.66
2024-12-06 12:34:44.34,90.22,509.0,0.47,0.87,-0.08,-3.32,-4.76,6.66
2024-12-06 12:34:44.63,90.22,505.0,0.47,0.87,-0.07,-2.95,-4.02,6.91
2024-12-06 12:34:44.72,87.75,518.0,0.48,0.85,-0.07,-1.43,-2.01,5.93
2024-12-06 12:34:44.80,94.95,512.0,0.49,0.85,-0.07,-0.88,-2.31,5.81
2024-12-06 12:34:44.82,91.57,519.0,0.5,0.85,-0.07,-0.88,-2.31,5.81
2024-12-06 12:34:44.89,93.38,529.0,0.51,0.86,-0.08,-0.33,-2.25,5.87
2024-12-06 12:34:44.101,90.9,520.0,0.5,0.86,-0.08,0.22,-2.56,5.93
2024-12-06 12:34:44.113,89.32,516.0,0.5,0.86,-0.08,0.59,-3.11,5.69
2024-12-06 12:34:44.121,89.77,509.0,0.5,0.86,-0.07,0.83,-3.17,5.26
