Timestamp,PosIsDeg,ForceIs,AccX,AccY,AccZ,GyroX,GyroY,GyroZ
2024-12-06 12:35:49.714,24.75,472.0,0.32,1.02,-0.09,-0.51,-8.85,-2.98
2024-12-06 12:35:49.740,23.4,445.0,0.36,0.96,-0.18,-0.02,1.16,-2.43
2024-12-06 12:35:49.791,21.15,453.0,0.49,0.99,-0.19,1.2,11.72,7.09
2024-12-06 12:35:49.799,16.2,476.0,0.47,0.92,-0.19,2.42,11.11,8.07
2024-12-06 12:35:49.824,14.62,458.0,0.46,0.85,-0.12,1.5,-5.98,6.18
2024-12-06 12:35:49.851,13.5,448.0,0.42,0.78,-0.12,1.38,-20.56,2.02
2024-12-06 12:35:49.879,7.2,461.0,0.37,0.76,-0.11,2.3,-28.19,-1.94
2024-12-06 12:35:49.920,4.05,472.0,0.31,0.8,-0.12,3.09,-31.25,-7.13
2024-12-06 12:35:49.939,7.42,482.0,0.28,0.85,-0.16,1.2,-24.17,-10.0
2024-12-06 12:35:49.962,3.82,464.0,0.25,0.85,-0.16,-2.71,-18.37,-11.1
2024-12-06 12:35:50.74,2.02,474.0,0.27,0.8,-0.16,-6.92,-13.67,-10.18
2024-12-06 12:35:50.76,3.6,457.0,0.34,0.98,-0.06,-20.96,-29.11,-3.29
2024-12-06 12:35:51.379,0.0,460.0,0.32,0.94,-0.06,5.47,5.99,0.93
2024-12-06 12:35:51.387,1.57,469.0,0.32,0.93,-0.05,5.35,6.05,1.29
2024-12-06 12:35:51.394,0.67,469.0,0.32,0.92,-0.05,5.23,5.86,1.6
2024-12-06 12:35:51.402,3.38,461.0,0.32,0.91,-0.04,4.8,5.74,1.84
2024-12-06 12:35:51.410,1.35,480.0,0.32,0.91,-0.04,4.37,5.68,2.09
2024-12-06 12:35:51.420,0.0,471.0,0.32,0.9,-0.03,3.82,5.56,2.15
2024-12-06 12:35:51.431,1.57,483.0,0.32,0.9,-0.02,3.82,5.56,2.15
2024-12-06 12:35:51.445,-0.22,459.0,0.33,0.9,-0.01,3.21,5.56,2.09
2024-12-06 12:35:51.450,0.22,473.0,0.34,0.9,-0.01,2.78,5.8,2.09
2024-12-06 12:35:51.485,-0.45,472.0,0.36,0.93,-0.01,1.38,6.47,3.0
2024-12-06 12:35:51.488,1.12,472.0,0.37,0.92,-0.02,1.14,5.86,2.82
2024-12-06 12:35:51.500,2.02,469.0,0.37,0.92,-0.02,0.89,4.95,2.82
2024-12-06 12:35:51.505,-1.35,469.0,0.38,0.91,-0.03,0.34,3.36,2.94
2024-12-06 12:35:51.511,0.45,480.0,0.37,0.91,-0.03,0.34,3.36,2.94
2024-12-06 12:35:51.519,-2.02,470.0,0.37,0.91,-0.03,-0.27,1.9,2.7
2024-12-06 12:35:51.527,2.92,470.0,0.38,0.92,-0.03,-0.76,0.31,2.76
2024-12-06 12:35:51.537,1.35,463.0,0.4,0.93,-0.04,-1.06,-0.79,3.43
2024-12-06 12:35:51.542,1.8,490.0,0.4,0.93,-0.04,-1.18,-1.46,4.16
2024-12-06 12:35:51.557,0.22,463.0,0.39,0.92,-0.04,-1.18,-2.19,4.4
2024-12-06 12:35:51.563,1.12,467.0,0.38,0.92,-0.03,-1.37,-2.19,4.4
2024-12-06 12:35:51.614,-1.35,466.0,0.33,0.93,-0.02,-2.46,-0.42,1.78
2024-12-06 12:35:51.623,-1.57,481.0,0.33,0.93,-0.02,-2.04,0.68,1.35
2024-12-06 12:35:51.631,0.9,466.0,0.33,0.91,-0.03,-2.04,1.96,1.11
2024-12-06 12:35:51.633,0.22,472.0,0.34,0.9,-0.03,-1.67,1.96,1.11
2024-12-06 12:35:51.650,-0.22,460.0,0.35,0.9,-0.03,-1.43,3.24,1.35
2024-12-06 12:35:51.653,-0.22,495.0,0.35,0.9,-0.03,-1.06,3.97,1.72
2024-12-06 12:35:51.660,0.67,471.0,0.35,0.92,-0.04,-0.69,3.67,2.02
2024-12-06 12:35:51.674,0.22,455.0,0.35,0.92,-0.04,-0.51,3.79,1.9
2024-12-06 12:35:51.679,-2.47,484.0,0.35,0.93,-0.05,-0.51,3.79,1.9
2024-12-06 12:35:51.682,-1.12,466.0,0.35,0.94,-0.06,-0.02,3.79,1.6
2024-12-06 12:35:51.688,0.9,466.0,0.36,0.94,-0.07,0.4,3.06,1.35
2024-12-06 12:35:51.695,1.57,471.0,0.37,0.94,-0.06,0.65,2.32,1.41
2024-12-06 12:35:51.704,1.35,474.0,0.37,0.94,-0.06,0.77,1.59,1.48
2024-12-06 12:35:51.711,0.22,471.0,0.37,0.93,-0.05,0.89,0.92,1.29
2024-12-06 12:35:51.723,2.7,442.0,0.36,0.92,-0.05,0.89,0.92,1.29
2024-12-06 12:35:51.729,-0.67,469.0,0.36,0.92,-0.04,1.01,0.49,1.05
2024-12-06 12:35:51.742,-0.9,482.0,0.35,0.92,-0.03,1.26,0.31,0.74
2024-12-06 12:35:51.769,-1.35,509.0,0.35,0.93,-0.01,1.5,1.84,0.13
2024-12-06 12:35:51.777,2.47,513.0,0.35,0.94,0.0,1.32,2.87,0.01
2024-12-06 12:35:51.781,0.45,478.0,0.35,0.94,0.01,0.89,3.3,0.07
2024-12-06 12:35:51.790,-2.47,489.0,0.35,0.94,0.01,0.34,3.48,0.01
2024-12-06 12:35:51.799,-0.67,472.0,0.35,0.93,0.01,0.34,3.48,-0.17
2024-12-06 12:35:51.816,0.67,474.0,0.35,0.93,0.01,-0.39,4.34,-0.17
2024-12-06 12:35:51.819,0.9,475.0,0.37,0.92,0.02,-1.67,5.19,0.19
2024-12-06 12:35:51.827,0.45,471.0,0.37,0.91,0.02,-2.34,4.4,0.56
2024-12-06 12:35:51.834,2.92,475.0,0.37,0.91,0.02,-2.83,3.3,0.62
2024-12-06 12:35:51.843,-1.35,482.0,0.37,0.89,0.02,-2.83,3.3,0.62
2024-12-06 12:35:51.860,0.9,486.0,0.38,0.88,0.01,-3.26,1.84,0.38
2024-12-06 12:35:51.867,3.15,478.0,0.4,0.88,0.01,-3.99,-1.95,0.07
2024-12-06 12:35:51.874,-2.7,494.0,0.4,0.88,0.01,-4.3,-4.08,0.07
2024-12-06 12:35:51.881,0.22,490.0,0.4,0.89,0.0,-4.72,-6.53,-0.05
2024-12-06 12:35:51.889,0.22,467.0,0.4,0.89,0.0,-4.72,-6.53,-0.05
2024-12-06 12:35:51.896,1.12,471.0,0.41,0.89,0.01,-5.03,-8.6,-0.17
2024-12-06 12:35:51.930,-2.02,467.0,0.4,0.89,0.01,-5.46,-10.43,-0.42
2024-12-06 12:35:51.940,0.9,479.0,0.41,0.91,0.02,-6.37,-13.67,-0.6
2024-12-06 12:35:51.943,3.82,471.0,0.4,0.93,0.01,-6.86,-15.19,-0.23
2024-12-06 12:35:51.950,-0.9,475.0,0.39,0.93,0.01,-7.04,-15.86,-0.29
2024-12-06 12:35:51.958,3.15,472.0,0.39,0.93,0.01,-6.74,-16.47,-0.48
2024-12-06 12:35:51.967,-5.4,485.0,0.39,0.93,-0.01,-6.55,-17.21,-0.72
2024-12-06 12:35:51.975,2.7,484.0,0.37,0.94,-0.01,-6.55,-17.21,-0.72
2024-12-06 12:35:51.983,2.02,478.0,0.36,0.94,-0.04,-5.82,-18.12,-1.7
2024-12-06 12:35:51.990,0.45,470.0,0.36,0.95,-0.08,-4.54,-16.9,-2.8
2024-12-06 12:35:52.3,-2.02,481.0,0.37,0.97,-0.09,-3.38,-15.44,-3.16
2024-12-06 12:35:52.7,1.57,473.0,0.37,0.97,-0.09,-2.04,-14.52,-3.04
2024-12-06 12:35:52.12,-2.7,458.0,0.36,0.97,-0.09,-2.04,-14.52,-2.92
2024-12-06 12:35:52.20,1.35,468.0,0.34,0.97,-0.09,-0.76,-12.08,-2.92
2024-12-06 12:35:52.35,0.67,456.0,0.32,0.95,-0.09,0.47,-9.39,-2.86
2024-12-06 12:35:52.38,1.12,486.0,0.31,0.93,-0.08,1.44,-7.2,-2.61
2024-12-06 12:35:52.52,-8.55,464.0,0.31,0.92,-0.07,2.24,-4.69,-1.94
2024-12-06 12:35:52.55,0.0,460.0,0.31,0.92,-0.07,2.85,-2.07,-1.21
2024-12-06 12:35:52.59,-1.57,523.0,0.31,0.92,-0.06,2.85,-2.07,-1.21
2024-12-06 12:35:52.70,2.7,461.0,0.3,0.93,-0.05,3.21,0.55,-0.78
2024-12-06 12:35:52.74,-1.35,487.0,0.31,0.94,-0.04,3.39,3.36,-0.42
2024-12-06 12:35:52.82,-1.12,466.0,0.32,0.96,-0.04,3.64,6.17,0.32
2024-12-06 12:35:52.182,-3.38,467.0,0.39,0.91,-0.03,8.03,13.62,7.09
2024-12-06 12:35:52.189,-2.02,460.0,0.39,0.91,-0.02,7.85,12.21,7.7
2024-12-06 12:35:52.196,-3.15,474.0,0.38,0.91,-0.01,7.73,10.32,8.19
2024-12-06 12:35:52.205,1.12,478.0,0.38,0.91,-0.02,7.67,9.47,8.13
2024-12-06 12:35:52.215,-4.05,465.0,0.38,0.91,-0.02,7.73,9.47,8.25
2024-12-06 12:35:52.219,2.47,484.0,0.39,0.92,-0.02,7.73,9.47,8.25
2024-12-06 12:35:52.230,2.92,463.0,0.39,0.92,-0.01,7.85,8.98,8.68
2024-12-06 12:35:52.248,2.25,474.0,0.38,0.91,-0.02,7.97,10.5,9.23
2024-12-06 12:35:52.253,1.8,479.0,0.38,0.91,-0.02,7.79,11.91,9.65
2024-12-06 12:35:52.265,0.0,469.0,0.39,0.91,-0.02,7.67,12.64,10.2
2024-12-06 12:35:52.268,-2.7,478.0,0.39,0.91,-0.01,7.67,12.64,10.2
2024-12-06 12:35:52.274,1.57,475.0,0.38,0.9,-0.02,7.55,13.07,10.57
2024-12-06 12:35:52.281,0.45,463.0,0.38,0.89,-0.02,7.42,13.74,10.57
2024-12-06 12:35:52.291,3.38,471.0,0.39,0.89,-0.02,7.12,13.68,10.63
2024-12-06 12:35:52.300,-1.12,462.0,0.39,0.89,-0.02,6.63,13.92,10.94
2024-12-06 12:35:52.306,-0.45,476.0,0.4,0.89,-0.02,6.63,13.55,11.49
2024-12-06 12:35:52.313,0.9,464.0,0.42,0.89,-0.01,6.14,13.55,11.49
2024-12-06 12:35:52.321,-4.95,462.0,0.42,0.9,-0.01,5.53,12.33,12.1
2024-12-06 12:35:52.329,0.45,472.0,0.42,0.89,-0.01,4.86,11.36,12.22
2024-12-06 12:35:52.337,-4.5,468.0,0.42,0.89,-0.01,4.13,10.69,12.03
2024-12-06 12:35:52.345,0.22,461.0,0.42,0.89,-0.01,3.58,8.67,11.79
2024-12-06 12:35:52.383,2.92,464.0,0.42,0.89,-0.01,3.03,6.84,11.18
2024-12-06 12:35:52.385,-0.45,477.0,0.43,0.91,0.0,1.62,3.3,10.87
2024-12-06 12:35:52.393,0.9,474.0,0.43,0.91,0.0,1.69,-0.18,9.78
2024-12-06 12:35:52.404,-1.12,496.0,0.39,0.88,-0.01,1.69,-0.18,9.78
2024-12-06 12:35:52.412,-1.12,457.0,0.4,0.87,-0.03,0.95,2.45,7.95
2024-12-06 12:35:52.417,1.57,473.0,0.42,0.88,-0.01,0.65,1.65,7.21
2024-12-06 12:35:52.423,-1.12,467.0,0.41,0.87,-0.01,0.59,-1.03,7.03
2024-12-06 12:35:52.445,0.67,452.0,0.4,0.86,-0.02,0.16,-0.12,5.5
2024-12-06 12:35:52.453,-5.4,468.0,0.42,0.86,-0.02,0.1,-0.85,5.38
2024-12-06 12:35:52.463,0.67,493.0,0.42,0.86,-0.03,0.1,-0.54,5.44
2024-12-06 12:35:52.470,0.9,475.0,0.41,0.86,-0.03,-0.08,0.0,5.32
2024-12-06 12:35:52.485,0.45,467.0,0.41,0.86,-0.03,-0.39,0.19,4.83
2024-12-06 12:35:52.488,1.12,474.0,0.41,0.86,-0.03,-0.82,0.37,3.98
2024-12-06 12:35:52.498,-4.72,464.0,0.4,0.87,-0.03,-0.82,0.37,3.98
2024-12-06 12:35:52.500,0.67,457.0,0.4,0.88,-0.03,-1.18,0.62,3.06
2024-12-06 12:35:52.511,-2.92,476.0,0.41,0.9,-0.03,-1.61,0.49,2.27
2024-12-06 12:35:52.518,-4.95,482.0,0.41,0.91,-0.03,-1.98,0.55,1.78
2024-12-06 12:35:52.524,-2.92,467.0,0.41,0.91,-0.03,-2.28,0.43,1.72
2024-12-06 12:35:52.534,-2.25,468.0,0.42,0.91,-0.02,-2.46,-0.12,1.66
2024-12-06 12:35:52.541,-4.5,465.0,0.42,0.9,-0.02,-2.46,-0.12,1.66
2024-12-06 12:35:52.548,-0.67,478.0,0.42,0.9,-0.03,-2.59,-0.3,1.48
2024-12-06 12:35:52.558,1.57,473.0,0.42,0.9,-0.03,-2.65,0.19,1.29
2024-12-06 12:35:52.566,-1.8,458.0,0.43,0.9,-0.04,-2.46,0.92,1.54
2024-12-06 12:35:52.577,2.47,465.0,0.43,0.9,-0.04,-2.1,2.39,2.63
2024-12-06 12:35:52.626,-0.45,475.0,0.44,0.9,-0.03,-1.73,2.81,3.98
2024-12-06 12:35:52.634,-0.45,465.0,0.45,0.88,-0.02,-1.92,5.07,6.54
2024-12-06 12:35:52.639,0.9,465.0,0.45,0.88,-0.01,-2.04,4.64,6.97
2024-12-06 12:35:52.650,1.12,474.0,0.45,0.88,-0.01,-2.1,3.85,7.27
2024-12-06 12:35:52.654,2.25,459.0,0.45,0.88,-0.01,-2.1,3.85,7.27
2024-12-06 12:35:52.661,-0.22,463.0,0.45,0.87,-0.01,-2.04,3.48,7.33
2024-12-06 12:35:52.671,-3.6,480.0,0.46,0.88,-0.01,-2.1,3.3,7.46
2024-12-06 12:35:52.677,0.45,455.0,0.47,0.89,-0.01,-2.1,3.12,7.95
2024-12-06 12:35:52.689,-4.05,483.0,0.47,0.89,-0.01,-1.98,2.75,8.43
2024-12-06 12:35:52.694,3.6,471.0,0.47,0.89,-0.01,-1.85,2.87,8.74
2024-12-06 12:35:52.701,-0.9,480.0,0.46,0.89,-0.02,-1.85,2.87,8.74
2024-12-06 12:35:52.720,0.67,478.0,0.46,0.89,-0.02,-1.55,2.69,8.98
2024-12-06 12:35:52.727,0.0,478.0,0.46,0.89,-0.02,-1.3,2.32,9.23
2024-12-06 12:35:52.734,0.0,471.0,0.46,0.89,-0.03,-1.12,2.14,9.59
2024-12-06 12:35:52.739,1.12,463.0,0.46,0.89,-0.03,-1.06,1.77,9.96
2024-12-06 12:35:52.745,1.57,457.0,0.46,0.9,-0.03,-0.94,1.47,10.2
2024-12-06 12:35:52.747,3.15,474.0,0.46,0.9,-0.03,-0.94,1.47,10.2
2024-12-06 12:35:52.755,-1.35,464.0,0.46,0.89,-0.04,-0.94,1.35,10.26
2024-12-06 12:35:52.769,2.92,476.0,0.46,0.89,-0.04,-0.88,1.35,10.45
2024-12-06 12:35:52.780,2.92,480.0,0.46,0.89,-0.04,-0.82,1.29,10.75
2024-12-06 12:35:52.787,0.67,463.0,0.46,0.89,-0.04,-0.69,1.9,11.12
2024-12-06 12:35:52.789,-0.67,480.0,0.46,0.89,-0.04,-0.69,2.51,11.42
2024-12-06 12:35:52.794,-0.9,468.0,0.46,0.88,-0.04,-0.57,2.51,11.42
2024-12-06 12:35:52.802,2.47,467.0,0.46,0.88,-0.03,-0.45,3.06,11.73
2024-12-06 12:35:52.837,2.92,475.0,0.47,0.89,-0.03,0.22,5.5,12.83
2024-12-06 12:35:52.841,0.9,470.0,0.48,0.88,-0.02,0.4,5.99,13.26
2024-12-06 12:35:52.848,3.38,484.0,0.49,0.87,-0.01,0.65,5.93,13.62
2024-12-06 12:35:52.855,0.0,469.0,0.49,0.86,-0.01,0.77,5.86,13.8
2024-12-06 12:35:52.863,3.82,473.0,0.49,0.86,-0.01,0.89,5.86,13.87
2024-12-06 12:35:52.885,1.12,502.0,0.49,0.86,-0.01,1.14,5.93,13.74
2024-12-06 12:35:52.904,3.15,467.0,0.49,0.86,-0.01,1.5,5.93,13.56
2024-12-06 12:35:52.907,-1.35,486.0,0.49,0.85,-0.02,2.48,6.35,13.19
2024-12-06 12:35:52.909,-0.9,457.0,0.49,0.85,-0.02,2.48,6.35,13.13
2024-12-06 12:35:52.918,2.7,475.0,0.5,0.86,-0.01,2.91,6.6,13.13
2024-12-06 12:35:52.927,-4.05,471.0,0.5,0.86,-0.02,3.27,7.15,13.26
2024-12-06 12:35:52.934,1.35,473.0,0.5,0.86,-0.02,3.58,7.63,13.38
2024-12-06 12:35:52.941,-1.57,476.0,0.5,0.86,-0.01,3.76,8.12,13.32
2024-12-06 12:35:52.948,3.6,474.0,0.5,0.86,-0.01,3.94,8.24,13.07
2024-12-06 12:35:52.958,3.38,478.0,0.51,0.85,-0.01,4.13,8.43,13.07
2024-12-06 12:35:52.964,1.57,476.0,0.51,0.85,-0.01,4.13,8.43,13.07
2024-12-06 12:35:52.986,3.15,464.0,0.52,0.84,-0.0,4.07,7.51,13.19
2024-12-06 12:35:52.992,-4.5,486.0,0.52,0.84,-0.01,3.7,7.27,13.07
2024-12-06 12:35:52.998,0.22,461.0,0.52,0.84,-0.01,3.33,7.45,12.89
2024-12-06 12:35:53.3,0.45,483.0,0.52,0.84,-0.0,3.33,7.45,12.89
2024-12-06 12:35:53.14,2.92,479.0,0.52,0.84,0.0,2.85,7.02,12.83
2024-12-06 12:35:53.35,-2.25,475.0,0.53,0.84,0.0,2.48,7.02,12.89
2024-12-06 12:35:53.58,0.67,471.0,0.5,0.81,0.01,1.99,4.58,13.19
2024-12-06 12:35:53.63,2.02,480.0,0.47,0.78,-0.02,2.11,4.4,9.96
2024-12-06 12:35:53.81,2.25,489.0,0.47,0.78,-0.02,1.93,8.92,6.3
2024-12-06 12:35:53.87,0.45,467.0,0.49,0.77,-0.01,2.24,5.74,3.49
2024-12-06 12:35:53.88,-2.7,477.0,0.5,0.78,0.04,2.24,5.74,3.49
2024-12-06 12:35:53.94,2.7,474.0,0.52,0.78,0.02,2.17,4.52,0.62
2024-12-06 12:35:53.103,2.02,473.0,0.54,0.8,0.01,3.52,7.39,-1.39
2024-12-06 12:35:53.110,5.4,485.0,0.52,0.8,0.02,5.29,3.91,-3.22
2024-12-06 12:35:53.125,7.65,461.0,0.52,0.8,0.02,5.59,5.68,-6.15
2024-12-06 12:35:53.127,0.9,481.0,0.5,0.78,0.01,5.47,9.34,-8.72
2024-12-06 12:35:53.221,8.77,479.0,0.52,0.78,0.03,5.47,9.34,-8.72
2024-12-06 12:35:53.241,17.1,471.0,0.52,0.85,-0.02,-2.1,0.98,-11.1
2024-12-06 12:35:53.248,17.32,467.0,0.52,0.86,-0.01,-2.1,0.98,-11.1
2024-12-06 12:35:53.260,19.12,485.0,0.52,0.86,0.0,-1.49,-1.09,-11.16
2024-12-06 12:35:53.285,16.42,467.0,0.55,0.85,0.02,-0.57,0.8,-10.73
2024-12-06 12:35:53.288,20.92,505.0,0.54,0.85,-0.0,-0.57,0.8,-10.73
2024-12-06 12:35:53.302,23.85,477.0,0.53,0.84,-0.01,0.04,3.97,-11.34
2024-12-06 12:35:53.307,26.32,478.0,0.52,0.84,0.02,0.53,3.67,-12.2
2024-12-06 12:35:53.310,24.52,490.0,0.52,0.85,0.01,0.59,4.34,-12.87
2024-12-06 12:35:53.319,24.75,479.0,0.52,0.85,0.0,0.71,4.77,-13.36
2024-12-06 12:35:53.334,23.4,489.0,0.52,0.85,0.0,0.77,4.46,-13.72
2024-12-06 12:35:53.342,25.65,483.0,0.53,0.86,-0.01,0.77,4.46,-13.72
2024-12-06 12:35:53.347,26.32,519.0,0.55,0.88,-0.0,0.16,5.31,-12.81
2024-12-06 12:35:53.355,21.82,499.0,0.52,0.88,-0.0,0.22,2.81,-11.77
2024-12-06 12:35:53.358,25.2,503.0,0.5,0.87,-0.03,0.1,3.12,-11.83
2024-12-06 12:35:53.368,31.95,483.0,0.5,0.87,-0.03,-0.15,5.8,-11.04
2024-12-06 12:35:53.375,31.27,496.0,0.52,0.88,-0.03,0.53,2.93,-9.63
2024-12-06 12:35:53.406,32.17,498.0,0.52,0.88,-0.01,2.24,5.44,-6.7
2024-12-06 12:35:53.409,33.3,495.0,0.49,0.87,-0.0,2.54,7.27,-7.01
2024-12-06 12:35:53.418,32.62,498.0,0.48,0.86,-0.03,2.54,7.27,-7.01
2024-12-06 12:35:53.427,34.65,491.0,0.53,0.89,-0.0,2.3,11.05,-6.46
2024-12-06 12:35:53.433,31.72,507.0,0.53,0.9,0.01,3.21,8.55,-4.45
2024-12-06 12:35:53.443,34.88,491.0,0.49,0.89,-0.02,3.64,8.49,-4.02
2024-12-06 12:35:53.450,32.4,490.0,0.49,0.89,-0.02,3.52,11.36,-4.2
2024-12-06 12:35:53.458,37.35,489.0,0.5,0.89,-0.01,4.25,9.71,-3.29
2024-12-06 12:35:53.465,35.77,503.0,0.52,0.89,0.01,4.25,9.71,-3.29
2024-12-06 12:35:53.473,35.33,504.0,0.5,0.87,-0.0,4.55,7.82,-2.74
2024-12-06 12:35:53.481,37.8,497.0,0.5,0.85,-0.01,4.31,8.37,-3.16
2024-12-06 12:35:53.511,34.65,487.0,0.51,0.85,0.02,4.62,4.95,-2.43
2024-12-06 12:35:53.519,37.35,498.0,0.51,0.84,0.02,4.07,6.35,-2.68
2024-12-06 12:35:53.527,43.42,497.0,0.52,0.86,0.02,4.68,4.03,-1.64
2024-12-06 12:35:53.535,43.65,482.0,0.48,0.85,0.0,5.04,3.61,-1.58
2024-12-06 12:35:53.543,41.4,492.0,0.48,0.85,0.0,4.74,6.54,-1.7
2024-12-06 12:35:53.550,45.45,484.0,0.5,0.86,0.01,4.74,6.54,-1.7
2024-12-06 12:35:53.558,45.22,482.0,0.52,0.88,0.02,5.23,6.41,-0.11
2024-12-06 12:35:53.566,43.42,493.0,0.48,0.87,0.0,5.84,5.13,0.93
2024-12-06 12:35:53.575,42.3,481.0,0.47,0.86,-0.01,5.71,7.08,0.38
2024-12-06 12:35:53.582,45.0,487.0,0.52,0.88,0.0,5.53,8.61,1.23
2024-12-06 12:35:53.599,47.92,484.0,0.52,0.88,0.0,5.96,6.23,3.0
2024-12-06 12:35:53.623,47.25,487.0,0.52,0.88,0.01,4.92,5.07,3.31
2024-12-06 12:35:53.628,51.52,493.0,0.52,0.88,0.01,5.04,2.93,3.55
2024-12-06 12:35:53.636,52.2,489.0,0.5,0.88,-0.01,5.04,2.93,3.18
2024-12-06 12:35:53.644,49.95,490.0,0.5,0.88,-0.0,4.07,4.89,3.18
2024-12-06 12:35:53.651,47.92,487.0,0.5,0.88,0.02,4.31,3.67,3.73
2024-12-06 12:35:53.659,48.6,509.0,0.48,0.86,0.01,4.43,2.2,3.61
2024-12-06 12:35:53.670,49.27,468.0,0.48,0.85,0.01,3.52,4.28,2.7
2024-12-06 12:35:53.675,48.6,473.0,0.48,0.85,0.01,3.39,4.4,2.94
2024-12-06 12:35:53.683,52.65,478.0,0.5,0.88,0.02,3.39,2.75,3.49
2024-12-06 12:35:53.691,49.27,471.0,0.48,0.87,0.01,3.7,2.75,3.49
2024-12-06 12:35:53.699,55.8,483.0,0.46,0.85,0.0,3.15,3.48,2.76
2024-12-06 12:35:53.707,56.7,474.0,0.48,0.85,0.01,2.6,4.83,2.21
2024-12-06 12:35:53.714,51.97,472.0,0.49,0.86,0.01,2.54,3.48,2.57
2024-12-06 12:35:53.723,54.0,485.0,0.49,0.86,0.01,2.11,2.32,2.51
2024-12-06 12:35:53.753,56.92,477.0,0.47,0.86,-0.0,1.32,2.51,1.78
2024-12-06 12:35:53.756,58.5,467.0,0.49,0.88,0.01,0.1,1.41,2.7
2024-12-06 12:35:53.761,58.27,475.0,0.49,0.85,0.0,-0.21,0.55,2.39
2024-12-06 12:35:53.778,58.72,480.0,0.46,0.85,0.0,-0.94,1.53,1.48
2024-12-06 12:35:53.782,58.27,484.0,0.47,0.84,0.01,-0.94,1.53,1.48
2024-12-06 12:35:53.784,56.92,479.0,0.49,0.86,0.01,-1.37,1.84,1.66
2024-12-06 12:35:53.798,62.77,468.0,0.49,0.87,-0.0,-1.43,0.86,2.45
2024-12-06 12:35:53.812,60.07,495.0,0.47,0.84,-0.0,-1.37,0.43,1.9
2024-12-06 12:35:53.814,61.88,470.0,0.48,0.84,0.01,-1.43,1.47,1.05
2024-12-06 12:35:53.816,56.92,481.0,0.48,0.84,0.01,-1.37,1.47,1.17
2024-12-06 12:35:53.869,65.25,487.0,0.51,0.86,-0.0,-1.55,-0.67,-0.23
2024-12-06 12:35:53.873,67.5,487.0,0.49,0.85,-0.01,-1.43,-2.19,-0.11
2024-12-06 12:35:53.877,66.38,495.0,0.48,0.83,-0.0,-1.61,-2.44,-0.91
2024-12-06 12:35:53.886,67.28,497.0,0.5,0.84,0.01,-2.22,-1.22,-1.03
2024-12-06 12:35:53.899,65.03,478.0,0.5,0.84,0.01,-2.53,-2.19,-0.29
2024-12-06 12:35:53.905,67.28,487.0,0.5,0.86,0.01,-2.65,-3.35,-0.05
2024-12-06 12:35:53.908,69.3,479.0,0.48,0.85,0.01,-2.65,-3.35,-0.05
2024-12-06 12:35:53.919,67.95,490.0,0.48,0.84,0.01,-2.95,-2.13,-0.48
2024-12-06 12:35:53.924,71.55,486.0,0.49,0.85,0.0,-3.2,-0.85,-0.42
2024-12-06 12:35:53.932,71.32,487.0,0.49,0.85,0.0,-2.83,-0.85,-0.11
2024-12-06 12:35:53.958,68.62,496.0,0.49,0.85,0.0,-2.34,0.86,-0.29
2024-12-06 12:35:53.966,70.65,494.0,0.49,0.87,0.0,-2.46,1.53,0.13
2024-12-06 12:35:53.970,70.88,494.0,0.5,0.86,0.01,-2.04,1.59,0.5
2024-12-06 12:35:53.981,73.57,496.0,0.53,0.85,0.01,-1.73,3.06,0.68
2024-12-06 12:35:53.990,74.92,503.0,0.51,0.85,0.01,-1.61,2.57,1.05
2024-12-06 12:35:53.994,71.78,497.0,0.5,0.87,0.01,-1.61,2.57,1.05
2024-12-06 12:35:54.2,73.12,500.0,0.49,0.87,-0.01,-1.67,2.39,1.35
2024-12-06 12:35:54.10,74.92,493.0,0.51,0.85,0.0,-1.37,3.54,1.29
2024-12-06 12:35:54.17,74.25,492.0,0.52,0.86,0.0,-1.0,3.54,1.78
2024-12-06 12:35:54.32,78.75,492.0,0.51,0.87,-0.01,-0.94,3.12,2.33
2024-12-06 12:35:54.45,76.28,502.0,0.51,0.87,-0.01,-0.63,3.18,2.33
2024-12-06 12:35:54.75,78.97,506.0,0.53,0.87,-0.01,0.59,1.53,3.25
2024-12-06 12:35:54.79,80.55,492.0,0.52,0.86,0.0,0.59,1.53,3.25
2024-12-06 12:35:54.86,79.88,514.0,0.53,0.86,0.01,0.77,2.08,3.55
2024-12-06 12:35:54.95,79.2,499.0,0.53,0.87,0.0,0.95,1.84,4.16
2024-12-06 12:35:54.108,79.42,510.0,0.52,0.88,0.0,1.01,1.16,4.83
2024-12-06 12:35:54.112,79.88,501.0,0.52,0.88,0.0,1.01,0.8,5.5
2024-12-06 12:35:54.124,80.32,510.0,0.52,0.86,0.01,1.01,0.8,6.18
2024-12-06 12:35:54.127,81.45,501.0,0.53,0.86,0.02,0.83,0.49,6.18
2024-12-06 12:35:54.137,81.22,503.0,0.53,0.87,0.02,0.28,0.19,7.33
2024-12-06 12:35:54.143,80.55,502.0,0.52,0.87,0.02,-0.45,-0.54,8.98
2024-12-06 12:35:54.148,84.15,520.0,0.52,0.85,0.02,-0.88,-1.15,10.45
2024-12-06 12:35:54.156,80.32,499.0,0.52,0.85,0.02,-1.55,-1.34,11.3
2024-12-06 12:35:54.306,85.05,504.0,0.53,0.83,0.01,-2.89,-0.36,15.27
2024-12-06 12:35:54.321,90.22,513.0,0.56,0.83,0.02,-1.92,-0.85,15.45
2024-12-06 12:35:54.325,90.9,508.0,0.57,0.83,0.03,-1.92,-1.28,15.03
2024-12-06 12:35:54.330,89.55,524.0,0.58,0.82,0.02,-1.85,-1.15,14.54
2024-12-06 12:35:54.338,87.3,499.0,0.58,0.82,0.03,-1.92,-0.85,14.11
2024-12-06 12:35:54.347,90.9,502.0,0.59,0.81,0.02,-1.85,-0.91,13.68
2024-12-06 12:35:54.356,90.67,506.0,0.59,0.81,0.02,-1.67,-0.67,13.44
2024-12-06 12:35:54.363,86.62,515.0,0.58,0.81,0.02,-1.67,-0.85,13.07
2024-12-06 12:35:54.372,88.2,524.0,0.57,0.81,0.02,-1.49,-0.85,13.07
2024-12-06 12:35:54.378,92.92,523.0,0.57,0.81,0.03,-1.37,-1.7,12.64
2024-12-06 12:35:54.387,90.67,524.0,0.57,0.81,0.02,-1.43,-1.58,12.28
2024-12-06 12:35:54.394,92.02,497.0,0.57,0.81,0.03,-1.37,-1.77,12.03
2024-12-06 12:35:54.404,83.47,517.0,0.57,0.81,0.03,-1.06,-2.19,12.03
2024-12-06 12:35:54.410,83.03,529.0,0.58,0.81,0.03,-0.94,-2.5,11.85
2024-12-06 12:35:54.418,93.82,517.0,0.58,0.8,0.03,-0.94,-2.5,11.85
2024-12-06 12:35:54.434,92.02,511.0,0.57,0.79,0.03,-0.88,-2.56,11.36
2024-12-06 12:35:54.437,93.6,510.0,0.58,0.78,0.03,-0.88,-2.19,10.87
2024-12-06 12:35:54.443,94.72,508.0,0.59,0.78,0.03,-0.76,-1.52,10.57
2024-12-06 12:35:54.456,90.45,514.0,0.59,0.78,0.03,-0.57,-0.79,10.26
2024-12-06 12:35:54.458,89.32,510.0,0.59,0.77,0.03,-0.39,-0.54,9.84
2024-12-06 12:35:54.465,91.8,513.0,0.58,0.78,0.04,-0.39,-0.54,9.84
2024-12-06 12:35:54.480,91.12,512.0,0.58,0.78,0.04,-0.15,-0.24,9.53
2024-12-06 12:35:54.483,90.0,511.0,0.58,0.79,0.04,0.16,-0.18,9.04
2024-12-06 12:35:54.488,92.02,526.0,0.58,0.79,0.04,0.4,0.0,8.49
2024-12-06 12:35:54.500,94.5,502.0,0.58,0.79,0.04,0.53,0.0,8.19
2024-12-06 12:35:54.529,95.17,529.0,0.57,0.77,0.03,0.53,0.68,7.64
2024-12-06 12:35:54.534,97.88,528.0,0.57,0.77,0.03,0.47,1.04,7.64
2024-12-06 12:35:54.542,91.8,513.0,0.59,0.77,0.02,0.47,2.39,7.76
2024-12-06 12:35:54.559,92.92,525.0,0.61,0.77,0.02,0.47,2.39,7.76
2024-12-06 12:35:54.562,93.15,530.0,0.62,0.76,0.02,0.83,2.93,7.4
2024-12-06 12:35:54.566,91.8,515.0,0.6,0.77,0.02,1.38,2.87,7.03
2024-12-06 12:35:54.578,97.65,522.0,0.58,0.81,0.01,1.62,2.81,6.79
2024-12-06 12:35:54.584,98.1,530.0,0.58,0.81,0.01,1.69,3.0,6.72
2024-12-06 12:35:54.593,98.55,518.0,0.58,0.81,0.01,1.93,3.97,6.36
2024-12-06 12:35:54.602,95.62,517.0,0.6,0.8,0.01,1.93,3.97,6.36
2024-12-06 12:35:54.607,93.6,511.0,0.61,0.79,0.01,2.36,3.85,6.11
2024-12-06 12:35:54.613,95.62,525.0,0.6,0.8,0.0,2.85,4.22,5.75
2024-12-06 12:35:54.621,96.75,513.0,0.59,0.81,0.0,3.21,4.52,5.5
2024-12-06 12:35:54.629,99.0,526.0,0.59,0.81,0.0,3.58,4.34,4.83
2024-12-06 12:35:54.636,99.45,508.0,0.59,0.8,0.0,3.82,4.46,4.22
2024-12-06 12:35:54.646,92.92,509.0,0.59,0.81,-0.0,3.82,4.46,4.22
2024-12-06 12:35:54.652,91.57,510.0,0.59,0.8,0.0,3.94,3.61,3.37
2024-12-06 12:35:54.661,96.52,510.0,0.61,0.77,0.01,4.31,2.75,2.21
2024-12-06 12:35:54.670,91.8,509.0,0.62,0.74,0.01,4.98,1.65,1.23
2024-12-06 12:35:54.676,98.1,499.0,0.62,0.74,0.01,5.23,0.49,0.13
2024-12-06 12:35:54.684,93.6,513.0,0.63,0.74,0.02,5.23,-0.3,-1.03
2024-12-06 12:35:54.692,96.07,519.0,0.63,0.74,0.02,5.23,-0.3,-1.03
2024-12-06 12:35:54.704,96.52,513.0,0.63,0.72,0.04,5.47,-0.42,-2.31
2024-12-06 12:35:54.710,97.2,505.0,0.64,0.72,0.06,5.96,-0.67,-3.29
2024-12-06 12:35:54.716,100.57,504.0,0.63,0.73,0.07,6.02,-0.85,-4.08
2024-12-06 12:35:54.725,96.75,499.0,0.61,0.74,0.07,5.84,-0.85,-5.06
2024-12-06 12:35:54.733,95.62,505.0,0.61,0.74,0.07,5.04,-0.48,-5.85
2024-12-06 12:35:54.739,96.3,508.0,0.61,0.74,0.08,5.04,-0.48,-5.85
2024-12-06 12:35:54.747,96.52,495.0,0.61,0.73,0.07,4.62,-1.09,-6.52
2024-12-06 12:35:54.758,96.97,506.0,0.62,0.74,0.06,3.52,-0.97,-7.01
2024-12-06 12:35:54.764,97.2,495.0,0.62,0.74,0.05,2.3,-0.54,-7.31
2024-12-06 12:35:54.771,95.17,509.0,0.61,0.76,0.04,1.2,-1.09,-7.44
2024-12-06 12:35:54.812,97.65,501.0,0.61,0.76,0.04,0.47,-1.58,-7.31
2024-12-06 12:35:54.823,85.05,514.0,0.6,0.79,0.01,-1.79,-2.44,-7.13
2024-12-06 12:35:54.826,96.97,503.0,0.61,0.81,0.01,-2.22,-3.23,-6.76
2024-12-06 12:35:54.842,91.8,514.0,0.61,0.81,0.01,-2.28,-3.78,-6.52
2024-12-06 12:35:54.847,95.62,498.0,0.61,0.81,-0.0,-2.34,-3.47,-6.46
2024-12-06 12:35:54.853,95.85,499.0,0.63,0.8,-0.01,-1.85,-3.41,-6.34
2024-12-06 12:35:54.855,100.57,491.0,0.63,0.8,-0.01,-0.88,-4.21,-6.15
2024-12-06 12:35:54.864,97.2,513.0,0.63,0.79,-0.01,-0.02,-4.63,-6.22
2024-12-06 12:35:54.878,98.55,505.0,0.62,0.78,-0.01,-0.02,-4.63,-6.22
2024-12-06 12:35:54.882,96.75,489.0,0.63,0.77,-0.01,0.65,-4.33,-6.52
2024-12-06 12:35:54.886,95.62,511.0,0.63,0.76,-0.01,1.62,-4.76,-6.64
2024-12-06 12:35:54.894,96.07,489.0,0.62,0.76,-0.01,2.3,-5.06,-6.89
2024-12-06 12:35:54.907,95.62,488.0,0.62,0.76,-0.01,2.85,-4.88,-7.37
2024-12-06 12:35:54.925,99.0,502.0,0.61,0.77,-0.0,4.01,-5.85,-8.53
2024-12-06 12:35:54.936,91.57,516.0,0.61,0.78,0.0,4.37,-5.85,-9.08
2024-12-06 12:35:54.941,99.22,506.0,0.61,0.78,0.02,4.55,-5.92,-9.51
2024-12-06 12:35:54.950,93.38,519.0,0.61,0.78,0.02,4.43,-5.92,-9.69
2024-12-06 12:35:54.992,99.22,509.0,0.59,0.81,0.04,1.5,-3.84,-9.08
2024-12-06 12:35:54.996,94.27,510.0,0.58,0.81,0.04,1.5,-2.99,-8.84
2024-12-06 12:35:55.3,96.07,514.0,0.58,0.8,0.03,0.71,-2.99,-8.84
2024-12-06 12:35:55.11,96.97,514.0,0.58,0.79,0.02,0.1,-2.56,-8.35
2024-12-06 12:35:55.19,96.97,505.0,0.59,0.79,0.02,-0.57,-2.62,-7.68
2024-12-06 12:35:55.26,95.4,529.0,0.59,0.79,0.01,-1.3,-2.86,-6.89
2024-12-06 12:35:55.41,92.47,523.0,0.59,0.79,0.01,-2.16,-3.35,-5.97
2024-12-06 12:35:55.44,96.52,523.0,0.59,0.79,0.01,-2.89,-3.96,-5.12
2024-12-06 12:35:55.50,97.2,528.0,0.59,0.79,0.0,-2.89,-3.96,-5.12
2024-12-06 12:35:55.59,94.05,530.0,0.59,0.79,-0.01,-3.2,-4.45,-4.45
2024-12-06 12:35:55.66,94.72,516.0,0.59,0.8,-0.02,-3.26,-5.12,-3.71
2024-12-06 12:35:55.77,100.12,530.0,0.59,0.82,-0.03,-3.01,-6.1,-2.61
2024-12-06 12:35:55.83,99.45,524.0,0.59,0.82,-0.03,-2.59,-6.71,-1.52
2024-12-06 12:35:55.90,91.12,520.0,0.58,0.83,-0.03,-2.22,-6.89,-0.72
2024-12-06 12:35:55.98,98.1,536.0,0.57,0.84,-0.03,-2.22,-6.89,-0.72
2024-12-06 12:35:55.106,93.15,525.0,0.56,0.84,-0.03,-1.92,-6.71,-0.11
2024-12-06 12:35:55.114,95.62,524.0,0.56,0.85,-0.02,-1.61,-6.59,0.19
2024-12-06 12:35:55.129,96.52,515.0,0.55,0.85,-0.03,-1.24,-6.04,0.32
2024-12-06 12:35:55.146,97.2,534.0,0.55,0.84,-0.03,-1.0,-5.43,0.25
2024-12-06 12:35:55.154,98.55,524.0,0.55,0.84,-0.03,-0.69,-4.76,-0.11
2024-12-06 12:35:55.157,96.75,534.0,0.55,0.84,-0.03,-0.45,-4.76,-0.11
2024-12-06 12:35:55.171,98.55,518.0,0.55,0.83,-0.03,-0.21,-4.39,-0.42
2024-12-06 12:35:55.174,96.75,523.0,0.55,0.82,-0.02,-0.08,-4.27,-0.84
2024-12-06 12:35:55.177,93.38,530.0,0.55,0.82,-0.02,0.1,-4.02,-1.21
2024-12-06 12:35:55.209,99.22,574.0,0.56,0.81,-0.02,0.95,-3.23,-1.45
2024-12-06 12:35:55.216,99.0,522.0,0.53,0.81,-0.02,1.38,-2.74,-1.33
2024-12-06 12:35:55.328,97.88,522.0,0.58,0.8,0.03,1.01,1.04,0.32
2024-12-06 12:35:55.335,96.97,526.0,0.58,0.8,0.0,1.01,0.92,0.25
2024-12-06 12:35:55.352,92.7,517.0,0.58,0.8,0.0,1.01,0.92,0.25
2024-12-06 12:35:55.355,96.75,519.0,0.59,0.8,-0.0,0.95,0.86,0.13
2024-12-06 12:35:55.358,95.17,519.0,0.59,0.8,-0.0,0.89,0.8,0.07
2024-12-06 12:35:55.372,96.52,526.0,0.58,0.8,-0.0,0.77,0.55,-0.05
2024-12-06 12:35:55.374,96.52,548.0,0.58,0.8,-0.0,0.59,-0.06,-0.29
2024-12-06 12:35:55.382,93.82,526.0,0.58,0.8,-0.0,0.28,-0.24,-0.54
2024-12-06 12:35:55.390,95.17,565.0,0.58,0.8,-0.0,0.28,-0.24,-0.54
2024-12-06 12:35:55.398,97.42,518.0,0.57,0.8,-0.0,-0.02,-0.3,-0.78
2024-12-06 12:35:55.410,93.82,529.0,0.57,0.8,-0.0,-0.21,-0.79,-1.09
2024-12-06 12:35:55.414,93.38,533.0,0.57,0.8,-0.01,-0.51,-0.91,-1.21
2024-12-06 12:35:55.425,94.05,520.0,0.57,0.8,-0.01,-0.76,-1.09,-1.27
2024-12-06 12:35:55.463,96.97,535.0,0.57,0.8,-0.01,-1.79,-2.19,-1.09
2024-12-06 12:35:55.466,96.52,528.0,0.58,0.81,-0.01,-1.98,-2.38,-1.03
2024-12-06 12:35:55.474,98.55,513.0,0.58,0.8,-0.01,-1.98,-2.38,-1.03
2024-12-06 12:35:55.489,94.27,520.0,0.58,0.8,-0.01,-2.04,-2.56,-1.09
2024-12-06 12:35:55.493,97.42,525.0,0.58,0.8,-0.01,-2.04,-2.62,-1.21
2024-12-06 12:35:55.498,98.77,529.0,0.58,0.8,-0.01,-2.04,-2.8,-1.39
2024-12-06 12:35:55.506,95.17,523.0,0.58,0.8,-0.01,-1.98,-2.99,-1.52
2024-12-06 12:35:55.513,98.55,530.0,0.58,0.8,-0.01,-1.98,-2.99,-1.52
2024-12-06 12:35:55.521,96.75,519.0,0.58,0.8,-0.01,-1.85,-2.8,-1.76
2024-12-06 12:35:55.529,98.55,514.0,0.58,0.8,-0.01,-1.73,-2.92,-2.13
2024-12-06 12:35:55.537,85.72,547.0,0.58,0.8,-0.01,-1.73,-3.05,-2.49
2024-12-06 12:35:55.545,97.42,524.0,0.58,0.8,-0.01,-1.85,-3.05,-2.86
2024-12-06 12:35:55.553,93.6,538.0,0.58,0.8,-0.01,-1.85,-3.23,-3.16
2024-12-06 12:35:55.562,96.97,521.0,0.59,0.8,-0.0,-1.85,-3.35,-3.35
2024-12-06 12:35:55.573,96.52,517.0,0.59,0.8,-0.0,-1.92,-3.35,-3.35
2024-12-06 12:35:55.577,91.8,512.0,0.58,0.8,-0.0,-2.04,-3.35,-3.41
2024-12-06 12:35:55.588,96.3,518.0,0.58,0.8,-0.0,-2.16,-3.23,-3.47
2024-12-06 12:35:55.592,96.97,522.0,0.57,0.8,-0.0,-2.22,-3.05,-3.59
2024-12-06 12:35:55.600,93.6,518.0,0.57,0.8,-0.0,-2.22,-3.05,-3.77
2024-12-06 12:35:55.617,96.75,514.0,0.57,0.79,-0.01,-2.22,-3.11,-3.9
2024-12-06 12:35:55.623,96.07,526.0,0.57,0.78,-0.01,-2.22,-3.17,-3.96
2024-12-06 12:35:55.662,94.72,513.0,0.58,0.78,0.0,-1.67,-1.89,-4.02
2024-12-06 12:35:55.664,95.4,512.0,0.58,0.78,0.01,-1.92,-3.17,-4.14
2024-12-06 12:35:55.669,96.52,535.0,0.58,0.78,0.02,-2.46,-3.66,-4.51
2024-12-06 12:35:55.681,91.8,518.0,0.58,0.78,0.02,-3.14,-4.63,-5.12
2024-12-06 12:35:55.690,98.77,531.0,0.58,0.78,0.02,-3.56,-6.16,-5.91
2024-12-06 12:35:55.693,97.2,511.0,0.58,0.77,0.01,-3.56,-6.16,-5.91
2024-12-06 12:35:55.702,94.95,522.0,0.58,0.77,0.0,-3.87,-6.53,-6.95
2024-12-06 12:35:55.710,96.52,519.0,0.58,0.77,0.01,-4.17,-7.38,-7.62
2024-12-06 12:35:55.722,92.47,515.0,0.58,0.77,0.01,-4.42,-7.75,-8.23
2024-12-06 12:35:55.727,94.95,503.0,0.58,0.77,0.02,-4.54,-7.62,-8.53
2024-12-06 12:35:55.734,97.42,529.0,0.58,0.77,0.02,-4.42,-9.09,-8.9
2024-12-06 12:35:55.742,97.2,519.0,0.57,0.78,0.01,-4.97,-8.17,-9.57
2024-12-06 12:35:55.749,96.97,524.0,0.56,0.8,0.0,-4.97,-8.17,-9.57
2024-12-06 12:35:55.766,96.97,528.0,0.56,0.81,0.01,-5.15,-7.93,-10.12
2024-12-06 12:35:55.772,97.88,516.0,0.56,0.84,0.01,-5.7,-7.62,-10.37
2024-12-06 12:35:55.780,93.38,534.0,0.56,0.84,0.01,-5.88,-7.56,-10.18
2024-12-06 12:35:55.788,96.97,510.0,0.55,0.84,-0.0,-6.07,-7.32,-9.94
2024-12-06 12:35:55.797,99.22,516.0,0.55,0.85,-0.01,-6.07,-7.32,-9.94
2024-12-06 12:35:55.803,95.17,528.0,0.54,0.85,-0.02,-6.25,-7.08,-9.63
2024-12-06 12:35:55.815,94.05,516.0,0.54,0.85,-0.03,-6.43,-6.59,-9.27
2024-12-06 12:35:55.819,93.15,526.0,0.54,0.85,-0.03,-6.43,-5.98,-8.72
2024-12-06 12:35:55.830,95.85,514.0,0.54,0.85,-0.03,-6.43,-5.61,-7.92
2024-12-06 12:35:55.835,96.75,515.0,0.54,0.85,-0.04,-6.37,-5.12,-6.89
2024-12-06 12:35:55.848,97.88,526.0,0.55,0.86,-0.04,-6.37,-5.12,-6.89
2024-12-06 12:35:55.851,96.97,517.0,0.55,0.86,-0.04,-6.13,-4.94,-5.48
2024-12-06 12:35:55.858,96.3,520.0,0.55,0.86,-0.04,-5.7,-5.55,-4.26
2024-12-06 12:35:55.900,98.1,513.0,0.56,0.85,-0.03,-4.17,-7.99,-1.27
2024-12-06 12:35:55.905,95.85,530.0,0.55,0.85,-0.02,-4.11,-7.38,-1.03
2024-12-06 12:35:55.913,96.75,508.0,0.55,0.85,-0.02,-3.87,-7.62,-0.78
2024-12-06 12:35:55.930,93.38,519.0,0.56,0.85,-0.02,-3.75,-7.01,-0.72
2024-12-06 12:35:55.933,99.9,507.0,0.55,0.84,-0.01,-3.75,-7.01,-0.72
2024-12-06 12:35:55.935,98.32,528.0,0.55,0.84,-0.01,-3.62,-6.4,-0.72
2024-12-06 12:35:55.948,96.97,540.0,0.55,0.84,-0.01,-3.44,-5.92,-0.72
2024-12-06 12:35:55.957,98.77,533.0,0.54,0.83,-0.0,-3.07,-5.18,-0.54
2024-12-06 12:35:55.965,98.32,513.0,0.54,0.83,-0.0,-2.77,-4.45,-0.29
2024-12-06 12:35:55.968,96.3,535.0,0.54,0.83,-0.0,-2.77,-4.45,-0.29
2024-12-06 12:35:55.975,97.42,518.0,0.54,0.83,-0.01,-2.46,-3.78,-0.05
2024-12-06 12:35:55.982,96.75,531.0,0.53,0.83,-0.01,-2.28,-2.86,0.25
2024-12-06 12:35:55.992,94.72,514.0,0.53,0.82,-0.01,-2.16,-2.31,0.44
2024-12-06 12:35:55.998,94.95,525.0,0.53,0.82,-0.01,-2.22,-1.83,0.62
2024-12-06 12:35:56.7,94.5,519.0,0.53,0.82,-0.01,-2.22,-1.52,0.68
2024-12-06 12:35:56.18,96.97,518.0,0.53,0.82,-0.01,-2.28,-1.58,0.56
2024-12-06 12:35:56.24,97.88,497.0,0.53,0.82,-0.01,-2.28,-1.58,0.56
2024-12-06 12:35:56.30,92.25,515.0,0.53,0.82,-0.01,-2.4,-1.83,0.44
2024-12-06 12:35:56.41,95.17,503.0,0.52,0.82,-0.01,-2.53,-1.95,0.01
2024-12-06 12:35:56.55,94.05,514.0,0.52,0.83,-0.01,-2.46,-1.7,-1.21
2024-12-06 12:35:56.61,97.2,515.0,0.52,0.83,-0.01,-2.46,-1.4,-1.64
2024-12-06 12:35:56.78,99.22,513.0,0.53,0.83,-0.01,-2.16,-1.4,-1.64
2024-12-06 12:35:56.82,99.67,537.0,0.53,0.83,-0.01,-1.61,-1.52,-1.94
2024-12-06 12:35:56.116,91.35,508.0,0.53,0.83,-0.0,-0.82,0.13,-3.29
2024-12-06 12:35:56.117,99.22,520.0,0.53,0.83,-0.0,-0.63,0.49,-3.59
2024-12-06 12:35:56.122,96.3,510.0,0.53,0.83,-0.0,-0.57,0.8,-3.77
2024-12-06 12:35:56.130,93.15,517.0,0.53,0.83,-0.0,-0.45,0.92,-3.96
2024-12-06 12:35:56.138,96.52,504.0,0.53,0.83,-0.0,-0.63,1.04,-4.08
2024-12-06 12:35:56.151,93.6,504.0,0.53,0.83,0.0,-0.63,1.04,-4.2
2024-12-06 12:35:56.154,94.72,524.0,0.53,0.82,0.01,-0.88,1.23,-4.2
2024-12-06 12:35:56.174,97.2,507.0,0.53,0.83,-0.0,-1.06,1.47,-4.32
2024-12-06 12:35:56.179,92.7,506.0,0.53,0.83,-0.0,-1.06,1.29,-4.2
2024-12-06 12:35:56.188,91.8,502.0,0.53,0.83,-0.0,-1.06,1.41,-4.08
2024-12-06 12:35:56.194,101.02,510.0,0.53,0.83,-0.0,-1.06,1.41,-4.08
2024-12-06 12:35:56.204,93.82,515.0,0.53,0.82,-0.0,-1.06,1.53,-4.08
2024-12-06 12:35:56.210,96.75,518.0,0.53,0.81,0.0,-1.0,1.23,-4.2
2024-12-06 12:35:56.217,97.2,517.0,0.53,0.8,0.01,-1.12,0.13,-4.57
2024-12-06 12:35:56.225,96.75,519.0,0.53,0.77,0.03,-1.79,-0.61,-5.42
2024-12-06 12:35:56.232,98.55,539.0,0.52,0.78,0.03,-2.59,-1.22,-6.76
2024-12-06 12:35:56.244,95.85,515.0,0.5,0.77,0.04,-2.59,-1.22,-6.76
2024-12-06 12:35:56.252,96.52,512.0,0.5,0.78,0.03,-3.56,-0.85,-8.29
2024-12-06 12:35:56.255,93.38,524.0,0.52,0.81,0.03,-4.48,0.74,-9.45
2024-12-06 12:35:56.267,97.2,517.0,0.54,0.84,0.02,-5.09,1.41,-9.63
2024-12-06 12:35:56.273,95.85,519.0,0.54,0.87,-0.0,-5.15,2.32,-8.96
2024-12-06 12:35:56.373,94.72,517.0,0.55,0.86,-0.0,-4.23,1.96,-8.11
2024-12-06 12:35:56.379,93.15,522.0,0.53,0.88,-0.01,-0.45,2.45,-1.52
2024-12-06 12:35:56.384,98.55,515.0,0.53,0.88,-0.01,-0.15,3.18,-0.72
2024-12-06 12:35:56.395,97.65,523.0,0.52,0.88,-0.01,-0.02,3.79,0.13
2024-12-06 12:35:56.406,94.95,517.0,0.52,0.88,-0.01,-0.02,3.79,0.13
2024-12-06 12:35:56.419,95.85,526.0,0.53,0.86,-0.0,0.1,5.25,1.35
2024-12-06 12:35:56.428,96.97,509.0,0.53,0.85,-0.0,0.22,5.8,1.9
2024-12-06 12:35:56.431,92.25,514.0,0.53,0.85,-0.0,0.34,5.86,2.45
2024-12-06 12:35:56.439,93.6,505.0,0.53,0.84,0.0,0.34,5.86,2.76
2024-12-06 12:35:56.449,86.62,513.0,0.53,0.84,0.01,0.47,5.25,2.76
2024-12-06 12:35:56.455,93.6,514.0,0.52,0.84,0.02,-0.08,5.07,2.94
2024-12-06 12:35:56.466,94.05,514.0,0.52,0.84,0.03,-0.57,5.31,2.7
2024-12-06 12:35:56.472,96.97,497.0,0.52,0.84,0.01,-0.39,5.74,2.27
2024-12-06 12:35:56.480,96.75,505.0,0.52,0.84,0.01,-0.15,5.38,2.15
2024-12-06 12:35:56.485,97.65,501.0,0.53,0.84,0.0,-0.15,5.38,2.15
2024-12-06 12:35:56.495,96.3,510.0,0.55,0.84,0.0,0.28,5.07,2.21
2024-12-06 12:35:56.507,98.32,525.0,0.55,0.83,0.01,0.83,4.64,2.51
2024-12-06 12:35:56.512,97.2,494.0,0.54,0.83,0.01,1.26,4.03,2.57
2024-12-06 12:35:56.518,94.05,506.0,0.54,0.83,0.01,1.56,3.24,2.45
2024-12-06 12:35:56.525,96.52,496.0,0.54,0.83,0.01,1.62,2.87,2.15
2024-12-06 12:35:56.572,99.0,495.0,0.52,0.85,0.01,1.99,1.9,0.5
2024-12-06 12:35:56.577,98.77,520.0,0.52,0.84,0.01,1.99,1.9,0.5
2024-12-06 12:35:56.581,98.1,506.0,0.52,0.84,0.01,1.87,2.14,-0.11
2024-12-06 12:35:56.585,91.8,501.0,0.53,0.83,0.01,1.87,2.57,-0.48
2024-12-06 12:35:56.595,94.95,514.0,0.53,0.83,0.0,1.93,3.54,-0.66
2024-12-06 12:35:56.602,98.1,503.0,0.53,0.83,0.01,2.05,4.28,-0.78
2024-12-06 12:35:56.614,96.97,501.0,0.53,0.82,0.01,2.36,3.36,-0.78
2024-12-06 12:35:56.617,92.25,507.0,0.53,0.83,0.02,2.36,3.36,-0.78
2024-12-06 12:35:56.629,94.72,495.0,0.53,0.83,0.01,2.3,3.91,-1.03
2024-12-06 12:35:56.633,96.07,482.0,0.52,0.84,0.02,2.24,3.85,-1.33
2024-12-06 12:35:56.641,96.52,497.0,0.52,0.84,0.02,1.99,4.16,-1.88
2024-12-06 12:35:56.651,94.27,485.0,0.53,0.84,0.02,1.56,4.7,-2.13
2024-12-06 12:35:56.662,97.2,487.0,0.53,0.84,0.02,1.44,4.28,-2.19
2024-12-06 12:35:56.668,96.3,517.0,0.53,0.85,0.02,1.44,4.28,-2.13
2024-12-06 12:35:56.678,97.65,492.0,0.54,0.84,0.01,1.38,3.97,-2.13
2024-12-06 12:35:56.686,95.85,504.0,0.53,0.83,-0.0,1.69,4.09,-2.25
2024-12-06 12:35:56.689,93.38,485.0,0.53,0.83,-0.01,2.05,4.03,-2.43
2024-12-06 12:35:56.697,96.97,506.0,0.51,0.83,-0.02,2.54,4.22,-2.86
2024-12-06 12:35:56.704,92.92,503.0,0.51,0.83,-0.02,2.85,5.13,-3.83
2024-12-06 12:35:56.719,95.85,495.0,0.5,0.83,-0.01,2.85,5.5,-4.63
2024-12-06 12:35:56.722,96.07,488.0,0.51,0.83,0.02,2.85,5.5,-4.63
2024-12-06 12:35:56.729,94.95,495.0,0.51,0.82,0.03,2.72,6.11,-5.18
2024-12-06 12:35:56.736,90.45,499.0,0.51,0.79,0.04,2.78,7.27,-5.73
2024-12-06 12:35:56.746,94.05,503.0,0.51,0.78,0.02,3.21,8.24,-6.52
2024-12-06 12:35:56.755,94.05,489.0,0.51,0.78,0.02,3.94,9.4,-7.07
2024-12-06 12:35:56.804,97.42,497.0,0.52,0.78,0.0,4.92,10.01,-7.74
2024-12-06 12:35:56.807,94.95,494.0,0.53,0.84,0.04,6.75,13.37,-10.79
2024-12-06 12:35:56.818,99.22,481.0,0.53,0.84,0.05,6.69,13.31,-11.71
2024-12-06 12:35:56.833,96.75,485.0,0.54,0.83,0.05,6.57,13.31,-13.36
2024-12-06 12:35:56.836,96.75,489.0,0.55,0.83,0.03,6.51,14.53,-15.25
2024-12-06 12:35:56.838,99.45,495.0,0.55,0.83,0.03,6.75,15.02,-16.47
2024-12-06 12:35:56.845,96.07,478.0,0.56,0.84,0.03,7.06,15.26,-17.51
2024-12-06 12:35:56.855,95.17,470.0,0.55,0.83,0.02,7.06,15.26,-17.51
2024-12-06 12:35:56.870,94.72,476.0,0.55,0.8,0.02,7.3,15.39,-18.91
2024-12-06 12:35:56.873,96.52,474.0,0.56,0.77,0.02,7.3,15.32,-20.74
2024-12-06 12:35:56.876,97.42,475.0,0.55,0.78,0.03,7.36,15.51,-22.39
2024-12-06 12:35:56.884,96.3,485.0,0.55,0.78,0.03,7.67,15.02,-23.06
2024-12-06 12:35:56.894,93.15,481.0,0.55,0.8,0.03,8.52,12.52,-20.92
2024-12-06 12:35:56.905,98.55,473.0,0.45,0.9,0.04,8.52,12.52,-14.7
2024-12-06 12:35:56.912,96.75,479.0,0.4,0.86,0.01,12.12,9.77,-14.7
2024-12-06 12:35:56.917,92.92,485.0,0.45,0.78,-0.01,9.99,9.77,-16.47
2024-12-06 12:35:56.925,96.97,469.0,0.48,0.86,0.02,10.9,9.47,-16.53
2024-12-06 12:35:56.936,93.82,463.0,0.49,0.88,0.03,12.61,9.28,-15.74
2024-12-06 12:35:56.943,92.47,465.0,0.49,0.88,0.03,12.67,11.54,-15.8
2024-12-06 12:35:56.949,98.32,467.0,0.48,0.9,0.04,12.37,12.33,-16.71
2024-12-06 12:35:56.958,97.42,481.0,0.47,0.89,0.04,12.37,12.33,-16.71
2024-12-06 12:35:56.967,93.38,480.0,0.48,0.89,0.03,12.12,11.66,-17.93
2024-12-06 12:35:56.973,93.38,480.0,0.49,0.88,0.02,11.7,10.08,-19.03
2024-12-06 12:35:56.984,94.27,458.0,0.49,0.88,0.02,11.33,8.06,-19.46
2024-12-06 12:35:57.14,97.42,464.0,0.49,0.86,-0.01,10.78,2.2,-20.44
2024-12-06 12:35:57.19,95.4,471.0,0.5,0.88,-0.01,10.35,1.1,-19.76
2024-12-06 12:35:57.31,93.6,472.0,0.49,0.92,-0.01,9.19,0.92,-17.45
2024-12-06 12:35:57.39,95.85,482.0,0.49,0.92,-0.01,7.85,1.59,-15.07
2024-12-06 12:35:57.44,95.17,461.0,0.47,0.94,-0.01,6.32,2.51,-12.68
2024-12-06 12:35:57.53,93.6,475.0,0.44,0.95,-0.01,6.32,2.51,-12.68
2024-12-06 12:35:57.59,96.52,465.0,0.41,0.94,-0.02,4.55,3.73,-10.61
2024-12-06 12:35:57.81,96.3,469.0,0.4,0.93,-0.03,3.03,5.25,-8.84
2024-12-06 12:35:57.87,96.07,459.0,0.41,0.94,-0.04,0.34,6.05,-4.38
2024-12-06 12:35:57.92,91.12,465.0,0.43,0.97,-0.05,-0.51,5.99,-1.58
2024-12-06 12:35:57.98,88.65,462.0,0.43,0.97,-0.07,-0.51,5.99,-1.58
2024-12-06 12:35:57.106,86.62,464.0,0.44,0.92,-0.05,-0.88,6.23,0.19
2024-12-06 12:35:57.114,87.3,461.0,0.47,0.91,-0.04,-1.3,5.31,1.54
2024-12-06 12:35:57.122,88.2,463.0,0.49,0.92,-0.04,-1.92,4.4,3.37
2024-12-06 12:35:57.130,85.05,468.0,0.49,0.92,-0.04,-1.73,3.67,4.53
2024-12-06 12:35:57.138,90.22,460.0,0.47,0.9,-0.02,-1.55,3.12,4.71
2024-12-06 12:35:57.145,89.55,482.0,0.47,0.88,0.01,-1.55,3.12,4.71
2024-12-06 12:35:57.153,87.75,487.0,0.48,0.88,0.01,-1.24,2.81,4.89
2024-12-06 12:35:57.161,83.47,467.0,0.49,0.89,0.0,0.1,3.06,5.2
2024-12-06 12:35:57.176,85.5,466.0,0.49,0.91,0.01,1.75,1.59,5.75
2024-12-06 12:35:57.180,85.95,458.0,0.49,0.91,0.01,3.52,1.1,6.05
2024-12-06 12:35:57.185,83.92,477.0,0.49,0.91,0.0,5.47,1.47,5.81
2024-12-06 12:35:57.193,81.0,468.0,0.49,0.89,0.01,5.47,1.47,5.81
2024-12-06 12:35:57.200,83.25,479.0,0.49,0.89,0.03,7.0,0.25,5.38
2024-12-06 12:35:57.208,81.67,463.0,0.49,0.88,0.03,7.85,-0.18,4.95
2024-12-06 12:35:57.244,84.15,468.0,0.47,0.87,0.03,9.32,0.98,2.57
2024-12-06 12:35:57.246,79.88,446.0,0.45,0.86,0.02,10.84,0.68,2.21
2024-12-06 12:35:57.254,75.6,478.0,0.44,0.87,0.02,11.09,0.37,1.54
2024-12-06 12:35:57.263,74.92,469.0,0.46,0.88,0.01,11.02,1.16,1.29
2024-12-06 12:35:57.281,72.22,495.0,0.45,0.87,-0.0,11.63,-0.73,1.05
2024-12-06 12:35:57.292,74.25,476.0,0.43,0.86,-0.01,11.63,-0.73,1.05
2024-12-06 12:35:57.305,77.85,486.0,0.43,0.88,-0.01,9.8,-0.12,0.32
2024-12-06 12:35:57.313,75.15,484.0,0.42,0.87,-0.01,9.07,0.49,-0.05
2024-12-06 12:35:57.318,74.92,472.0,0.42,0.87,-0.01,8.34,0.68,0.01
2024-12-06 12:35:57.326,72.45,490.0,0.44,0.9,-0.02,7.97,0.37,1.11
2024-12-06 12:35:57.425,61.65,489.0,0.46,0.87,-0.01,5.16,-4.45,-1.33
2024-12-06 12:35:57.435,59.62,478.0,0.47,0.87,-0.01,4.62,-4.82,-1.7
2024-12-06 12:35:57.442,62.77,499.0,0.47,0.87,-0.01,4.62,-5.73,-2.74
2024-12-06 12:35:57.449,58.72,473.0,0.46,0.85,-0.01,3.33,-3.47,-3.22
2024-12-06 12:35:57.461,63.0,487.0,0.49,0.87,-0.01,3.33,-3.47,-3.22
2024-12-06 12:35:57.466,61.65,474.0,0.47,0.86,-0.01,3.21,-3.72,-2.68
2024-12-06 12:35:57.507,59.62,488.0,0.49,0.86,-0.03,2.6,-3.17,-2.68
2024-12-06 12:35:57.514,53.77,498.0,0.48,0.86,-0.03,2.54,-4.39,-1.76
2024-12-06 12:35:57.519,53.32,473.0,0.47,0.86,-0.04,1.93,-3.66,-1.88
2024-12-06 12:35:57.527,49.95,482.0,0.46,0.87,-0.04,0.89,-2.38,-1.39
2024-12-06 12:35:57.535,52.65,483.0,0.46,0.87,-0.04,0.53,-2.44,-1.45
2024-12-06 12:35:57.558,49.05,500.0,0.45,0.88,-0.02,-0.82,-0.42,-1.15
2024-12-06 12:35:57.562,45.67,501.0,0.43,0.87,-0.02,-0.82,-0.3,-1.39
2024-12-06 12:35:57.569,48.82,482.0,0.46,0.88,-0.03,-1.37,2.51,-1.7
2024-12-06 12:35:57.583,48.15,476.0,0.46,0.88,-0.03,-1.24,3.3,-0.17
2024-12-06 12:35:57.590,50.17,483.0,0.47,0.89,-0.03,-0.69,3.42,0.25
2024-12-06 12:35:57.593,47.25,495.0,0.46,0.88,-0.03,-0.69,3.42,0.25
2024-12-06 12:35:57.599,48.15,496.0,0.48,0.89,-0.03,-1.3,6.54,0.86
2024-12-06 12:35:57.605,45.45,485.0,0.48,0.88,-0.03,-0.69,4.89,1.48
2024-12-06 12:35:57.613,42.3,487.0,0.5,0.88,-0.04,-0.94,6.35,1.54
2024-12-06 12:35:57.621,39.6,481.0,0.5,0.88,-0.04,-0.94,5.38,2.27
2024-12-06 12:35:57.629,39.6,495.0,0.49,0.88,-0.03,-0.94,3.73,1.54
2024-12-06 12:35:57.635,42.08,489.0,0.47,0.87,-0.04,-0.57,3.73,1.54
2024-12-06 12:35:57.645,41.85,481.0,0.5,0.89,-0.04,-1.06,4.64,1.29
2024-12-06 12:35:57.654,40.95,474.0,0.48,0.88,-0.03,-0.33,1.1,1.84
2024-12-06 12:35:57.659,43.2,485.0,0.46,0.86,-0.05,-0.27,1.35,0.68
2024-12-06 12:35:57.667,41.85,490.0,0.46,0.86,-0.05,-0.57,2.75,0.74
2024-12-06 12:35:57.748,36.0,502.0,0.47,0.87,-0.03,1.26,-0.18,-0.17
2024-12-06 12:35:57.751,38.02,494.0,0.44,0.87,-0.04,1.38,2.93,-1.7
2024-12-06 12:35:57.758,34.2,499.0,0.48,0.88,-0.02,1.01,4.58,-2.13
2024-12-06 12:35:57.766,33.08,486.0,0.47,0.88,-0.01,1.26,3.18,-1.27
2024-12-06 12:35:57.774,30.82,479.0,0.43,0.86,-0.02,1.32,3.0,-2.31
2024-12-06 12:35:57.784,27.22,496.0,0.44,0.87,-0.02,0.95,5.38,-4.02
2024-12-06 12:35:57.790,32.4,509.0,0.44,0.87,-0.02,1.01,5.56,-3.47
2024-12-06 12:35:57.799,29.7,504.0,0.47,0.89,-0.01,1.01,5.56,-3.47
2024-12-06 12:35:57.805,28.35,475.0,0.43,0.87,-0.03,1.32,4.46,-3.35
2024-12-06 12:35:57.814,28.8,494.0,0.43,0.85,-0.03,0.83,6.9,-5.06
2024-12-06 12:35:57.821,31.27,478.0,0.49,0.87,0.01,0.4,7.02,-4.87
2024-12-06 12:35:57.829,28.12,498.0,0.48,0.87,-0.01,0.4,4.34,-3.71
2024-12-06 12:35:57.841,27.22,491.0,0.48,0.87,-0.01,0.59,4.64,-4.57
2024-12-06 12:35:57.859,26.55,485.0,0.44,0.85,-0.05,0.59,4.64,-4.57
2024-12-06 12:35:57.864,25.42,500.0,0.47,0.86,0.0,-1.24,1.71,-5.85
2024-12-06 12:35:57.867,20.48,490.0,0.45,0.86,-0.04,-1.61,1.96,-6.03
2024-12-06 12:35:57.884,22.27,475.0,0.45,0.86,-0.06,-1.55,2.26,-7.13
2024-12-06 12:35:57.890,24.52,499.0,0.43,0.86,-0.06,-2.1,1.84,-7.86
2024-12-06 12:35:57.910,24.75,493.0,0.45,0.87,-0.03,-2.1,1.84,-7.86
2024-12-06 12:35:57.912,20.48,485.0,0.47,0.87,-0.04,-2.16,1.1,-7.92
2024-12-06 12:35:57.924,23.17,497.0,0.47,0.88,-0.05,-1.55,1.29,-8.05
2024-12-06 12:35:57.952,23.62,495.0,0.45,0.87,-0.0,-0.39,-0.79,-10.43
2024-12-06 12:35:57.963,20.92,478.0,0.45,0.87,-0.0,-0.45,-0.3,-11.34
2024-12-06 12:35:57.971,20.02,481.0,0.43,0.88,-0.01,-0.45,15.32,-12.38
2024-12-06 12:35:57.982,20.25,480.0,0.43,0.87,-0.02,0.04,0.07,-12.38
2024-12-06 12:35:57.984,15.07,502.0,0.42,0.87,-0.02,0.65,-0.42,-13.42
2024-12-06 12:35:57.991,20.7,478.0,0.41,0.87,-0.03,1.44,-0.48,-14.7
2024-12-06 12:35:57.999,17.1,478.0,0.41,0.87,-0.04,2.11,-0.42,-15.86
2024-12-06 12:35:58.11,17.32,489.0,0.41,0.87,-0.04,2.91,-1.15,-16.9
2024-12-06 12:35:58.14,18.45,482.0,0.41,0.87,-0.05,2.91,-0.79,-17.57
2024-12-06 12:35:58.22,13.5,483.0,0.41,0.87,-0.06,3.27,-0.79,-17.57
2024-12-06 12:35:58.31,19.57,462.0,0.42,0.87,-0.07,3.58,-0.61,-17.75
2024-12-06 12:35:58.41,13.95,482.0,0.42,0.89,-0.09,3.64,-0.54,-17.2
2024-12-06 12:35:58.47,16.42,481.0,0.41,0.89,-0.09,3.46,-0.3,-16.53
2024-12-06 12:35:58.55,18.45,478.0,0.41,0.89,-0.09,3.21,-0.85,-16.65
2024-12-06 12:35:58.63,20.7,493.0,0.39,0.88,-0.09,2.48,0.31,-16.29
2024-12-06 12:35:58.71,21.15,471.0,0.4,0.89,-0.08,2.48,0.31,-16.29
2024-12-06 12:35:58.79,16.88,476.0,0.38,0.89,-0.08,2.11,-1.95,-15.92
2024-12-06 12:35:58.88,19.12,476.0,0.38,0.9,-0.1,0.83,-0.73,-16.04
2024-12-06 12:35:58.95,16.88,498.0,0.4,0.91,-0.08,0.04,-0.18,-15.0
2024-12-06 12:35:58.103,18.0,485.0,0.4,0.91,-0.08,-0.45,-1.09,-14.21
2024-12-06 12:35:58.110,16.65,472.0,0.39,0.9,-0.08,-1.0,0.43,-13.48
2024-12-06 12:35:58.147,16.42,497.0,0.39,0.89,-0.07,-1.0,0.43,-13.48
2024-12-06 12:35:58.150,18.23,479.0,0.41,0.92,-0.02,-0.69,-2.25,-12.32
2024-12-06 12:35:58.161,17.77,486.0,0.4,0.91,-0.03,-0.69,0.49,-11.95
2024-12-06 12:35:58.169,18.9,490.0,0.43,0.93,-0.01,-0.94,0.49,-11.95
2024-12-06 12:35:58.171,16.2,484.0,0.42,0.93,0.0,-0.02,-2.68,-10.85
2024-12-06 12:35:58.180,22.05,489.0,0.41,0.91,-0.03,0.1,-1.22,-10.61
2024-12-06 12:35:58.188,17.32,477.0,0.4,0.91,-0.01,0.77,-1.77,-10.49
2024-12-06 12:35:58.197,14.17,497.0,0.4,0.91,-0.01,1.08,-1.83,-9.69
2024-12-06 12:35:58.204,20.02,486.0,0.42,0.92,-0.01,1.5,-1.46,-8.23
2024-12-06 12:35:58.213,15.75,479.0,0.42,0.93,-0.02,1.5,-1.46,-8.23
2024-12-06 12:35:58.222,16.65,484.0,0.39,0.92,-0.02,1.69,-2.13,-7.8
2024-12-06 12:35:58.227,17.1,487.0,0.4,0.93,-0.03,1.44,-0.54,-7.25
2024-12-06 12:35:58.235,19.12,510.0,0.4,0.94,-0.02,1.44,-1.4,-6.15
2024-12-06 12:35:58.251,16.2,465.0,0.4,0.94,-0.02,1.38,-1.7,-5.54
2024-12-06 12:35:58.256,16.88,473.0,0.38,0.93,-0.04,1.2,0.37,-5.42
2024-12-06 12:35:58.259,16.2,479.0,0.37,0.93,-0.05,1.2,0.37,-5.42
2024-12-06 12:35:58.267,18.45,478.0,0.4,0.95,-0.04,1.32,0.86,-4.26
2024-12-06 12:35:58.275,13.27,479.0,0.39,0.94,-0.04,1.56,1.04,-2.98
2024-12-06 12:35:58.281,16.2,472.0,0.36,0.93,-0.04,1.69,2.26,-2.8
2024-12-06 12:35:58.290,13.27,488.0,0.37,0.93,-0.04,1.81,2.93,-2.55
2024-12-06 12:35:58.299,13.72,491.0,0.38,0.92,-0.02,1.81,2.93,-2.55
2024-12-06 12:35:58.310,14.17,475.0,0.39,0.92,-0.02,2.11,2.32,-1.76
2024-12-06 12:35:58.318,13.05,478.0,0.39,0.92,-0.03,2.48,2.63,-0.97
2024-12-06 12:35:58.323,14.4,487.0,0.4,0.93,-0.04,2.97,3.0,-0.42
2024-12-06 12:35:58.330,12.6,484.0,0.4,0.93,-0.04,3.58,3.24,0.38
2024-12-06 12:35:58.337,17.77,479.0,0.41,0.94,-0.04,4.37,3.12,0.99
2024-12-06 12:35:58.367,11.25,466.0,0.37,0.91,-0.05,4.98,3.73,-0.05
2024-12-06 12:35:58.372,14.85,470.0,0.37,0.91,-0.04,5.1,3.18,-0.29
2024-12-06 12:35:58.375,12.82,472.0,0.37,0.91,-0.04,5.29,3.12,-0.48
2024-12-06 12:35:58.474,9.9,486.0,0.38,0.87,-0.03,5.59,4.09,-0.29
2024-12-06 12:35:58.481,11.02,469.0,0.4,0.89,-0.02,5.47,4.22,-0.23
2024-12-06 12:35:58.489,12.15,487.0,0.4,0.89,-0.02,5.71,1.16,-0.29
2024-12-06 12:35:58.497,11.02,475.0,0.36,0.89,-0.02,5.41,0.74,-2.0
2024-12-06 12:35:58.508,13.27,488.0,0.36,0.89,-0.05,5.41,0.74,-2.0
2024-12-06 12:35:58.515,11.92,495.0,0.4,0.91,-0.04,5.29,0.98,-2.55
2024-12-06 12:35:58.520,13.27,474.0,0.43,0.9,-0.03,5.1,-0.61,-1.94
2024-12-06 12:35:58.528,11.7,485.0,0.42,0.89,-0.04,4.55,-0.24,-1.7
2024-12-06 12:35:58.540,10.57,470.0,0.41,0.89,-0.03,4.43,-1.15,-1.82
2024-12-06 12:35:58.545,8.1,491.0,0.41,0.89,-0.03,4.25,-3.84,-1.94
2024-12-06 12:35:58.552,8.1,493.0,0.39,0.88,-0.03,4.25,-3.84,-1.94
2024-12-06 12:35:58.560,11.47,491.0,0.38,0.88,-0.03,3.58,-4.57,-3.1
2024-12-06 12:35:58.597,7.65,475.0,0.38,0.88,-0.03,3.03,-5.31,-3.83
2024-12-06 12:35:58.600,13.05,477.0,0.37,0.92,-0.06,2.17,-4.57,-5.54
2024-12-06 12:35:58.618,12.82,482.0,0.37,0.92,-0.05,1.99,-3.6,-4.87
2024-12-06 12:35:58.622,6.75,512.0,0.36,0.91,-0.05,1.62,-2.07,-4.38
2024-12-06 12:35:58.625,9.9,513.0,0.36,0.91,-0.05,1.26,-0.79,-4.08
2024-12-06 12:35:58.629,9.22,474.0,0.37,0.9,-0.05,0.95,-0.42,-3.65
2024-12-06 12:35:58.636,10.12,478.0,0.37,0.9,-0.05,0.95,-0.42,-3.65
2024-12-06 12:35:58.644,9.68,488.0,0.36,0.89,-0.06,0.77,0.25,-3.77
2024-12-06 12:35:58.653,10.35,469.0,0.37,0.89,-0.06,0.53,0.68,-3.83
2024-12-06 12:35:58.667,8.1,495.0,0.38,0.9,-0.06,0.4,0.62,-3.53
2024-12-06 12:35:58.670,10.12,504.0,0.38,0.9,-0.06,0.53,0.68,-3.53
2024-12-06 12:35:58.675,11.7,490.0,0.37,0.9,-0.07,0.53,0.68,-3.53
2024-12-06 12:35:58.683,9.9,476.0,0.37,0.89,-0.07,0.59,1.16,-3.53
2024-12-06 12:35:58.691,13.72,490.0,0.38,0.9,-0.07,0.77,0.98,-3.1
2024-12-06 12:35:58.709,10.57,468.0,0.39,0.91,-0.07,0.65,1.23,-2.37
2024-12-06 12:35:58.718,13.5,481.0,0.39,0.92,-0.06,0.28,2.2,-0.29
2024-12-06 12:35:58.726,8.1,491.0,0.4,0.93,-0.06,0.28,2.2,-0.29
2024-12-06 12:35:58.734,11.25,483.0,0.4,0.92,-0.06,-0.08,2.32,0.62
2024-12-06 12:35:58.739,11.47,476.0,0.4,0.9,-0.06,-0.21,1.59,1.11
2024-12-06 12:35:58.746,7.88,480.0,0.4,0.89,-0.06,-0.33,0.8,1.35
2024-12-06 12:35:58.754,12.82,487.0,0.41,0.9,-0.06,-0.39,-0.3,1.6
2024-12-06 12:35:58.766,10.8,486.0,0.41,0.9,-0.06,-0.45,-1.46,1.96
2024-12-06 12:35:58.770,6.97,489.0,0.41,0.9,-0.06,-0.69,-2.07,2.39
2024-12-06 12:35:58.778,7.88,480.0,0.4,0.91,-0.06,-0.69,-2.07,2.39
2024-12-06 12:35:58.786,13.27,469.0,0.4,0.92,-0.06,-0.94,-2.5,2.82
2024-12-06 12:35:58.815,9.68,487.0,0.39,0.92,-0.06,-1.24,-2.56,3.37
2024-12-06 12:35:58.818,11.02,473.0,0.38,0.92,-0.06,-1.61,-2.07,4.28
2024-12-06 12:35:58.829,12.6,477.0,0.37,0.92,-0.06,-1.67,-1.95,4.59
2024-12-06 12:35:58.832,11.7,468.0,0.37,0.91,-0.06,-1.79,-1.83,4.47
2024-12-06 12:35:58.840,10.8,482.0,0.37,0.91,-0.06,-1.79,-1.34,4.34
2024-12-06 12:35:58.853,10.8,473.0,0.38,0.91,-0.06,-1.67,-1.7,4.34
2024-12-06 12:35:58.864,9.68,484.0,0.38,0.91,-0.06,-1.49,-1.89,4.28
2024-12-06 12:35:58.867,12.6,496.0,0.37,0.9,-0.07,-1.49,-2.01,4.1
2024-12-06 12:35:58.871,8.1,493.0,0.37,0.89,-0.07,-1.37,-2.01,4.1
2024-12-06 12:35:58.883,11.25,476.0,0.37,0.89,-0.06,-1.3,-2.62,3.92
2024-12-06 12:35:58.888,11.25,473.0,0.37,0.88,-0.06,-1.49,-3.17,3.79
2024-12-06 12:35:58.899,11.47,472.0,0.38,0.89,-0.07,-1.92,-3.66,3.79
2024-12-06 12:35:58.905,10.8,471.0,0.38,0.89,-0.07,-2.59,-3.96,4.1
2024-12-06 12:35:58.927,8.55,476.0,0.4,0.9,-0.07,-3.07,-5.18,4.59
2024-12-06 12:35:58.940,13.27,475.0,0.39,0.9,-0.08,-3.44,-6.34,4.77
2024-12-06 12:35:58.942,13.72,496.0,0.39,0.9,-0.08,-3.69,-8.6,4.47
2024-12-06 12:35:58.951,9.9,466.0,0.4,0.9,-0.08,-3.93,-9.88,4.71
2024-12-06 12:35:58.957,10.12,483.0,0.41,0.9,-0.07,-3.93,-9.88,4.71
2024-12-06 12:35:58.965,9.22,486.0,0.42,0.9,-0.06,-4.36,-10.62,5.14
2024-12-06 12:35:58.978,11.25,498.0,0.42,0.9,-0.05,-4.78,-11.47,5.69
2024-12-06 12:35:58.988,11.47,480.0,0.43,0.9,-0.04,-5.58,-11.84,6.36
2024-12-06 12:35:58.991,11.47,487.0,0.43,0.9,-0.04,-6.25,-12.14,7.03
2024-12-06 12:35:58.997,12.38,478.0,0.43,0.9,-0.03,-6.8,-13.0,7.64
2024-12-06 12:35:59.5,9.22,473.0,0.44,0.91,-0.02,-6.8,-13.0,7.64
2024-12-06 12:35:59.17,7.88,474.0,0.43,0.91,-0.03,-7.23,-13.61,8.01
2024-12-06 12:35:59.52,10.8,471.0,0.43,0.9,-0.03,-7.53,-14.95,7.33
2024-12-06 12:35:59.58,7.88,494.0,0.43,0.9,-0.03,-7.23,-14.83,7.03
2024-12-06 12:35:59.61,8.1,483.0,0.43,0.9,-0.03,-6.86,-15.07,6.72
2024-12-06 12:35:59.66,13.27,473.0,0.41,0.89,-0.03,-6.37,-15.01,6.11
2024-12-06 12:35:59.75,10.57,475.0,0.4,0.89,-0.04,-5.7,-14.7,5.02
2024-12-06 12:35:59.82,13.72,471.0,0.4,0.89,-0.04,-4.91,-14.28,3.67
2024-12-06 12:35:59.94,12.82,474.0,0.39,0.89,-0.03,-4.91,-14.28,2.39
2024-12-06 12:35:59.103,10.35,483.0,0.39,0.89,-0.04,-4.23,-13.91,2.39
2024-12-06 12:35:59.106,5.85,484.0,0.4,0.9,-0.03,-3.87,-13.24,1.6
2024-12-06 12:35:59.114,12.15,469.0,0.41,0.9,-0.03,-3.69,-12.63,1.48
2024-12-06 12:35:59.137,10.8,472.0,0.4,0.9,-0.04,-3.5,-11.16,1.35
2024-12-06 12:35:59.145,4.72,478.0,0.4,0.9,-0.05,-3.5,-11.16,1.35
2024-12-06 12:35:59.147,6.3,473.0,0.38,0.89,-0.06,-3.56,-11.04,0.8
2024-12-06 12:35:59.153,7.88,491.0,0.38,0.9,-0.07,-3.81,-10.8,0.07
2024-12-06 12:35:59.160,12.38,462.0,0.38,0.9,-0.07,-4.17,-10.68,-0.72
2024-12-06 12:35:59.173,10.8,485.0,0.38,0.9,-0.07,-4.54,-10.8,-1.33
2024-12-06 12:35:59.177,11.25,471.0,0.38,0.9,-0.07,-4.78,-10.62,-1.45
2024-12-06 12:35:59.184,10.12,473.0,0.39,0.9,-0.07,-4.78,-10.62,-1.45
2024-12-06 12:35:59.193,11.25,480.0,0.39,0.9,-0.07,-4.97,-10.43,-1.27
2024-12-06 12:35:59.201,10.57,486.0,0.4,0.89,-0.06,-5.15,-10.13,-1.03
2024-12-06 12:35:59.210,10.12,481.0,0.4,0.89,-0.06,-5.15,-9.64,-0.91
2024-12-06 12:35:59.227,7.2,512.0,0.4,0.9,-0.06,-4.91,-9.82,-0.54
2024-12-06 12:35:59.234,11.47,475.0,0.41,0.9,-0.06,-4.91,-9.82,-0.42
2024-12-06 12:35:59.241,9.9,467.0,0.41,0.91,-0.07,-4.72,-9.88,-0.42
2024-12-06 12:35:59.268,12.6,487.0,0.4,0.91,-0.06,-4.84,-9.58,-0.66
2024-12-06 12:35:59.271,6.52,476.0,0.4,0.9,-0.06,-4.48,-9.39,-1.45
2024-12-06 12:35:59.273,9.0,472.0,0.4,0.9,-0.06,-4.11,-9.46,-1.64
2024-12-06 12:35:59.278,13.72,494.0,0.4,0.9,-0.06,-4.11,-9.46,-1.64
2024-12-06 12:35:59.286,11.25,491.0,0.4,0.9,-0.06,-3.75,-9.52,-1.76
2024-12-06 12:35:59.297,12.38,480.0,0.4,0.9,-0.06,-3.5,-9.03,-1.82
2024-12-06 12:35:59.311,12.6,484.0,0.39,0.91,-0.06,-3.14,-8.6,-2.13
2024-12-06 12:35:59.313,7.42,478.0,0.39,0.91,-0.06,-2.83,-8.66,-2.55
2024-12-06 12:35:59.317,12.15,480.0,0.39,0.92,-0.06,-2.71,-8.24,-2.92
2024-12-06 12:35:59.326,10.57,495.0,0.39,0.92,-0.06,-2.71,-8.24,-2.92
2024-12-06 12:35:59.333,11.47,478.0,0.39,0.92,-0.05,-2.65,-7.56,-3.1
2024-12-06 12:35:59.341,12.6,485.0,0.39,0.92,-0.05,-2.53,-6.83,-2.92
2024-12-06 12:35:59.349,8.1,481.0,0.39,0.92,-0.05,-2.34,-6.28,-2.55
2024-12-06 12:35:59.357,10.8,492.0,0.39,0.92,-0.05,-2.28,-5.49,-2.25
2024-12-06 12:35:59.367,7.65,480.0,0.38,0.91,-0.06,-2.16,-4.39,-2.19
2024-12-06 12:35:59.373,11.25,486.0,0.38,0.91,-0.06,-2.16,-4.39,-2.19
2024-12-06 12:35:59.385,11.25,514.0,0.37,0.91,-0.05,-2.16,-3.41,-2.19
2024-12-06 12:35:59.389,11.92,484.0,0.37,0.91,-0.05,-2.16,-2.8,-2.31
2024-12-06 12:35:59.396,7.65,474.0,0.37,0.91,-0.05,-2.22,-2.44,-2.49
2024-12-06 12:35:59.404,12.38,480.0,0.41,0.91,-0.05,-2.16,-2.13,-2.74
2024-12-06 12:35:59.412,9.0,507.0,0.38,0.91,-0.05,-2.16,-1.83,-2.86
2024-12-06 12:35:59.420,13.27,478.0,0.38,0.9,-0.05,-2.16,-1.83,-2.86
2024-12-06 12:35:59.520,9.0,505.0,0.4,0.91,-0.05,-2.46,-2.62,-0.97
2024-12-06 12:35:59.535,11.7,484.0,0.4,0.91,-0.05,-2.53,-2.31,-0.91
2024-12-06 12:35:59.538,11.47,490.0,0.4,0.9,-0.05,-2.53,-2.31,-0.91
2024-12-06 12:35:59.541,10.8,483.0,0.4,0.91,-0.04,-2.53,-2.62,-0.78
2024-12-06 12:35:59.549,10.8,478.0,0.4,0.91,-0.04,-2.65,-2.5,-0.6
2024-12-06 12:35:59.557,11.47,502.0,0.4,0.91,-0.04,-2.71,-2.25,-0.36
2024-12-06 12:35:59.565,12.15,492.0,0.4,0.91,-0.04,-2.83,-2.38,0.07
2024-12-06 12:35:59.574,14.17,471.0,0.41,0.92,-0.04,-2.95,-2.25,0.56
2024-12-06 12:35:59.590,13.27,478.0,0.41,0.92,-0.05,-2.95,-2.31,0.8
2024-12-06 12:35:59.596,13.95,477.0,0.41,0.92,-0.05,-2.83,-2.8,0.99
2024-12-06 12:35:59.604,9.0,480.0,0.4,0.92,-0.06,-2.59,-3.11,0.8
2024-12-06 12:35:59.611,11.25,493.0,0.4,0.92,-0.06,-2.34,-3.41,0.68
2024-12-06 12:35:59.620,11.25,488.0,0.41,0.92,-0.06,-1.98,-3.6,0.74
2024-12-06 12:35:59.629,9.22,490.0,0.41,0.91,-0.06,-1.98,-3.6,0.74
2024-12-06 12:35:59.636,7.42,477.0,0.41,0.91,-0.06,-1.43,-3.47,0.99
2024-12-06 12:35:59.646,13.27,490.0,0.41,0.91,-0.06,-0.94,-3.41,1.29
2024-12-06 12:35:59.651,9.0,472.0,0.4,0.9,-0.06,-0.51,-2.99,1.48
2024-12-06 12:35:59.659,12.38,487.0,0.4,0.9,-0.06,-0.08,-2.19,1.54
2024-12-06 12:35:59.669,8.77,473.0,0.4,0.9,-0.06,0.53,-1.7,1.6
2024-12-06 12:35:59.675,8.1,475.0,0.39,0.9,-0.06,0.53,-1.7,1.6
2024-12-06 12:35:59.686,10.8,478.0,0.39,0.9,-0.06,1.14,-1.46,1.48
2024-12-06 12:35:59.691,8.32,485.0,0.38,0.9,-0.07,1.5,-0.48,1.29
2024-12-06 12:35:59.727,13.05,488.0,0.39,0.92,-0.06,1.99,2.08,1.11
2024-12-06 12:35:59.732,10.57,488.0,0.39,0.93,-0.06,1.87,2.93,1.41
2024-12-06 12:35:59.742,9.68,487.0,0.4,0.93,-0.06,1.75,3.79,1.84
2024-12-06 12:35:59.744,10.8,487.0,0.4,0.93,-0.05,1.38,4.46,2.15
2024-12-06 12:35:59.752,8.77,490.0,0.4,0.93,-0.05,1.08,4.83,2.39
2024-12-06 12:35:59.761,6.97,478.0,0.4,0.93,-0.04,1.08,4.83,2.39
2024-12-06 12:35:59.769,11.02,499.0,0.41,0.91,-0.04,0.83,4.77,2.39
2024-12-06 12:35:59.775,5.4,481.0,0.4,0.9,-0.04,0.77,3.97,2.15
2024-12-06 12:35:59.783,11.7,479.0,0.41,0.89,-0.04,0.77,3.12,1.66
2024-12-06 12:35:59.798,13.27,473.0,0.41,0.89,-0.03,0.65,2.39,1.17
2024-12-06 12:35:59.803,11.02,492.0,0.41,0.88,-0.03,0.65,1.77,0.8
2024-12-06 12:35:59.806,11.47,477.0,0.42,0.88,-0.03,0.65,1.77,0.8
2024-12-06 12:35:59.829,8.55,477.0,0.41,0.89,-0.02,0.53,1.35,0.44
2024-12-06 12:35:59.840,9.45,487.0,0.41,0.89,-0.02,0.53,1.29,0.25
2024-12-06 12:35:59.843,11.7,534.0,0.41,0.89,-0.02,0.53,1.23,0.01
2024-12-06 12:35:59.845,11.02,478.0,0.41,0.89,-0.02,0.53,1.23,0.01
2024-12-06 12:35:59.853,11.7,488.0,0.41,0.89,-0.02,0.47,1.53,-0.17
2024-12-06 12:35:59.862,9.22,472.0,0.41,0.89,-0.03,0.34,1.84,-0.29
2024-12-06 12:35:59.871,10.8,471.0,0.41,0.89,-0.04,0.22,1.84,-0.48
2024-12-06 12:35:59.879,10.8,450.0,0.41,0.89,-0.04,0.04,1.9,-0.6
2024-12-06 12:35:59.885,13.05,491.0,0.41,0.89,-0.04,-0.08,2.02,-0.54
2024-12-06 12:35:59.893,9.45,472.0,0.41,0.9,-0.05,-0.08,2.02,-0.54
2024-12-06 12:35:59.901,8.77,478.0,0.41,0.9,-0.05,-0.21,1.9,-0.42
2024-12-06 12:35:59.909,10.57,479.0,0.41,0.9,-0.05,-0.39,1.77,-0.36
2024-12-06 12:35:59.915,11.25,482.0,0.41,0.9,-0.05,-0.45,1.53,-0.36
2024-12-06 12:35:59.926,10.35,478.0,0.41,0.9,-0.05,-0.45,0.98,-0.48
2024-12-06 12:35:59.973,6.75,480.0,0.41,0.91,-0.06,0.89,1.59,0.25
2024-12-06 12:35:59.976,10.8,493.0,0.41,0.9,-0.05,0.89,1.59,0.25
2024-12-06 12:35:59.992,9.0,474.0,0.41,0.9,-0.05,1.08,1.59,0.32
2024-12-06 12:35:59.997,9.9,496.0,0.41,0.9,-0.04,1.2,1.77,0.38
2024-12-06 12:36:00.0,10.57,484.0,0.41,0.9,-0.04,1.14,1.84,0.38
2024-12-06 12:36:00.7,8.77,481.0,0.41,0.9,-0.04,1.01,2.02,0.32
2024-12-06 12:36:00.15,6.52,477.0,0.41,0.9,-0.04,1.01,2.02,0.07
2024-12-06 12:36:00.23,13.72,489.0,0.4,0.9,-0.04,0.89,2.2,0.07
2024-12-06 12:36:00.31,8.1,480.0,0.4,0.9,-0.04,0.77,2.14,-0.11
2024-12-06 12:36:00.44,7.88,477.0,0.4,0.9,-0.04,0.65,2.14,-0.36
2024-12-06 12:36:00.48,11.02,477.0,0.41,0.89,-0.04,0.59,1.96,-0.42
2024-12-06 12:36:00.55,6.75,491.0,0.41,0.89,-0.04,0.59,1.53,-0.42
2024-12-06 12:36:00.64,8.77,488.0,0.41,0.89,-0.04,0.65,1.23,-0.54
2024-12-06 12:36:00.74,6.07,479.0,0.41,0.89,-0.04,0.65,1.23,-0.54
2024-12-06 12:36:00.81,5.62,488.0,0.41,0.89,-0.04,0.71,0.68,-0.72
2024-12-06 12:36:00.86,14.17,469.0,0.41,0.9,-0.05,0.71,0.25,-0.97
2024-12-06 12:36:00.96,9.45,467.0,0.41,0.9,-0.04,0.65,-0.12,-1.15
2024-12-06 12:36:00.109,7.65,493.0,0.41,0.9,-0.04,0.59,-0.24,-1.33
2024-12-06 12:36:00.110,11.7,491.0,0.41,0.9,-0.04,0.59,-0.24,-1.33
2024-12-06 12:36:00.124,11.47,490.0,0.41,0.89,-0.04,0.4,0.0,-1.45
2024-12-06 12:36:00.128,12.38,489.0,0.4,0.89,-0.04,0.4,0.31,-1.45
2024-12-06 12:36:00.134,11.02,470.0,0.4,0.89,-0.05,0.47,0.8,-1.52
2024-12-06 12:36:00.142,11.25,475.0,0.4,0.89,-0.05,0.59,1.41,-1.39
2024-12-06 12:36:00.147,10.8,478.0,0.4,0.89,-0.04,0.71,1.9,-1.15
2024-12-06 12:36:00.180,11.25,531.0,0.41,0.9,-0.05,0.77,2.93,-0.54
2024-12-06 12:36:00.185,11.02,475.0,0.42,0.9,-0.05,0.77,2.93,-0.29
2024-12-06 12:36:00.193,8.1,494.0,0.43,0.9,-0.05,0.59,2.93,-0.29
2024-12-06 12:36:00.203,13.05,493.0,0.43,0.9,-0.04,0.47,2.39,0.19
2024-12-06 12:36:00.211,11.25,486.0,0.43,0.9,-0.04,0.1,1.9,0.74
2024-12-06 12:36:00.216,8.1,488.0,0.43,0.9,-0.03,-0.33,1.77,1.17
2024-12-06 12:36:00.225,9.0,486.0,0.43,0.9,-0.03,-0.63,1.41,1.48
2024-12-06 12:36:00.233,11.7,487.0,0.43,0.9,-0.03,-0.63,1.41,1.6
2024-12-06 12:36:00.246,9.9,488.0,0.43,0.9,-0.04,-0.76,1.04,1.6
2024-12-06 12:36:00.257,12.6,466.0,0.42,0.89,-0.03,-0.69,0.55,1.6
2024-12-06 12:36:00.269,7.42,485.0,0.42,0.89,-0.03,-0.63,0.62,1.6
2024-12-06 12:36:00.271,13.27,474.0,0.42,0.88,-0.03,-0.57,0.74,1.78
2024-12-06 12:36:00.280,11.47,468.0,0.42,0.89,-0.04,-0.57,0.74,1.78
2024-12-06 12:36:00.291,10.8,474.0,0.43,0.89,-0.04,-0.57,1.16,2.09
2024-12-06 12:36:00.304,10.35,479.0,0.43,0.9,-0.04,-0.69,1.77,2.51
2024-12-06 12:36:00.307,7.42,464.0,0.42,0.89,-0.04,-0.63,2.32,2.7
2024-12-06 12:36:00.310,12.38,474.0,0.42,0.89,-0.04,-0.45,2.69,2.57
2024-12-06 12:36:00.319,10.8,476.0,0.41,0.89,-0.05,-0.45,3.06,2.39
2024-12-06 12:36:00.325,11.47,469.0,0.41,0.89,-0.05,-0.45,3.06,2.39
2024-12-06 12:36:00.333,12.15,471.0,0.42,0.89,-0.04,-0.57,3.48,2.39
2024-12-06 12:36:00.341,13.27,470.0,0.43,0.9,-0.04,-0.76,3.54,2.63
2024-12-06 12:36:00.354,7.65,469.0,0.43,0.9,-0.04,-0.94,3.67,3.12
2024-12-06 12:36:00.356,10.57,471.0,0.43,0.9,-0.04,-1.06,3.54,3.67
2024-12-06 12:36:00.364,9.68,483.0,0.43,0.91,-0.04,-1.06,3.06,3.92
2024-12-06 12:36:00.402,13.27,481.0,0.42,0.91,-0.05,-0.94,2.87,3.73
2024-12-06 12:36:00.407,5.85,479.0,0.43,0.9,-0.05,-0.21,2.93,3.73
2024-12-06 12:36:00.412,11.92,505.0,0.43,0.91,-0.05,-0.21,2.93,3.73
2024-12-06 12:36:00.419,9.22,476.0,0.44,0.91,-0.05,0.04,3.24,4.34
2024-12-06 12:36:00.446,11.47,514.0,0.42,0.9,-0.05,0.65,4.28,4.83
2024-12-06 12:36:00.450,10.8,470.0,0.42,0.9,-0.05,0.65,4.28,4.83
2024-12-06 12:36:00.456,8.55,468.0,0.42,0.9,-0.04,0.89,4.22,4.89
2024-12-06 12:36:00.466,8.1,482.0,0.43,0.9,-0.04,1.08,4.52,5.14
2024-12-06 12:36:00.475,12.6,464.0,0.43,0.9,-0.04,1.26,4.64,5.38
2024-12-06 12:36:00.571,8.55,471.0,0.43,0.9,-0.04,1.26,4.89,5.56
2024-12-06 12:36:00.580,11.02,486.0,0.44,0.89,-0.04,1.01,4.7,6.66
2024-12-06 12:36:00.588,5.4,477.0,0.45,0.9,-0.05,1.26,5.19,6.42
2024-12-06 12:36:00.593,10.57,493.0,0.45,0.9,-0.05,1.38,5.5,6.48
2024-12-06 12:36:00.628,5.62,485.0,0.45,0.9,-0.04,1.44,5.01,6.79
2024-12-06 12:36:00.632,9.68,469.0,0.45,0.89,-0.03,1.14,4.64,7.09
2024-12-06 12:36:00.639,9.9,476.0,0.45,0.89,-0.03,1.01,4.03,6.79
2024-12-06 12:36:00.649,12.15,481.0,0.45,0.88,-0.03,1.01,4.03,6.79
2024-12-06 12:36:00.654,8.32,481.0,0.45,0.88,-0.04,1.01,4.46,5.99
2024-12-06 12:36:00.662,11.92,491.0,0.47,0.89,-0.01,0.4,4.58,6.18
2024-12-06 12:36:00.671,7.88,491.0,0.47,0.89,-0.02,0.47,2.57,6.85
2024-12-06 12:36:00.679,7.2,492.0,0.47,0.89,-0.02,0.16,3.0,7.09
2024-12-06 12:36:00.686,11.7,480.0,0.46,0.88,-0.04,0.22,3.61,6.97
2024-12-06 12:36:00.694,7.88,484.0,0.46,0.87,-0.03,0.22,3.61,6.97
2024-12-06 12:36:00.704,11.47,484.0,0.47,0.87,-0.02,0.28,3.06,7.09
2024-12-06 12:36:00.711,11.7,480.0,0.48,0.87,-0.02,0.04,2.51,7.64
2024-12-06 12:36:00.717,13.27,519.0,0.48,0.87,-0.03,-0.02,1.84,8.37
2024-12-06 12:36:00.726,13.05,469.0,0.48,0.87,-0.03,-0.15,1.53,8.86
2024-12-06 12:36:00.735,11.02,478.0,0.48,0.87,-0.03,-0.33,1.77,9.04
2024-12-06 12:36:00.741,13.72,473.0,0.48,0.87,-0.03,-0.33,1.77,9.04
2024-12-06 12:36:00.749,9.0,484.0,0.48,0.87,-0.03,-0.27,1.65,9.23
2024-12-06 12:36:00.760,10.57,468.0,0.48,0.87,-0.03,-0.21,1.71,9.47
2024-12-06 12:36:00.766,5.62,466.0,0.48,0.87,-0.03,-0.27,2.08,9.72
2024-12-06 12:36:00.772,11.25,510.0,0.48,0.87,-0.02,-0.27,1.9,9.9
2024-12-06 12:36:00.783,11.47,470.0,0.48,0.87,-0.02,-0.33,1.53,10.2
2024-12-06 12:36:00.790,13.95,477.0,0.48,0.88,-0.02,-0.33,1.53,10.2
2024-12-06 12:36:00.796,9.0,472.0,0.47,0.88,-0.01,-0.51,1.1,10.81
2024-12-06 12:36:00.804,6.97,476.0,0.46,0.89,-0.01,-0.63,-0.12,11.85
2024-12-06 12:36:00.812,9.45,475.0,0.45,0.89,-0.02,-0.76,-1.34,13.01
2024-12-06 12:36:00.820,11.92,477.0,0.45,0.89,-0.02,-0.82,-1.52,14.17
2024-12-06 12:36:00.861,9.68,464.0,0.49,0.85,-0.03,-0.45,-0.73,16.25
2024-12-06 12:36:00.863,11.25,476.0,0.53,0.83,-0.03,-0.45,1.53,15.21
2024-12-06 12:36:00.866,11.7,473.0,0.53,0.83,-0.03,-0.51,3.54,14.05
2024-12-06 12:36:00.877,11.92,469.0,0.54,0.84,-0.03,-0.51,3.54,14.05
2024-12-06 12:36:00.881,12.38,477.0,0.54,0.85,-0.03,-0.63,5.19,12.89
2024-12-06 12:36:00.889,13.95,477.0,0.53,0.87,-0.02,-0.82,5.86,11.97
2024-12-06 12:36:00.900,8.77,496.0,0.52,0.87,-0.02,-0.88,4.46,11.79
2024-12-06 12:36:00.907,7.42,490.0,0.52,0.85,-0.03,-1.12,2.51,11.49
2024-12-06 12:36:00.914,8.77,487.0,0.52,0.85,-0.03,-1.49,0.43,11.12
2024-12-06 12:36:00.928,11.7,490.0,0.51,0.83,-0.03,-1.49,-3.54,9.17
2024-12-06 12:36:00.933,6.3,478.0,0.45,0.81,-0.03,-1.3,-3.54,9.17
2024-12-06 12:36:00.939,13.27,476.0,0.43,0.79,-0.04,-1.55,-4.02,5.63
2024-12-06 12:36:00.944,12.82,493.0,0.45,0.81,-0.02,-1.79,-4.45,3.0
2024-12-06 12:36:00.955,15.97,494.0,0.46,0.82,-0.01,-1.67,-6.34,1.54
2024-12-06 12:36:00.962,9.0,483.0,0.46,0.82,-0.01,-1.67,-5.73,0.13
2024-12-06 12:36:00.969,15.97,486.0,0.46,0.82,-0.01,-1.67,-5.73,-1.58
2024-12-06 12:36:00.978,14.85,480.0,0.45,0.82,0.0,-1.61,-4.76,-1.58
2024-12-06 12:36:00.989,14.17,489.0,0.44,0.82,0.0,-1.18,-4.27,-3.96
2024-12-06 12:36:00.992,18.0,484.0,0.47,0.82,0.0,-0.94,-2.25,-6.15
2024-12-06 12:36:01.0,20.02,481.0,0.46,0.81,0.02,-0.27,-2.86,-7.8
2024-12-06 12:36:01.9,19.57,482.0,0.46,0.81,0.02,0.53,-2.99,-10.24
2024-12-06 12:36:01.17,15.52,481.0,0.46,0.8,-0.0,0.4,0.8,-11.83
2024-12-06 12:36:01.24,22.05,498.0,0.49,0.82,0.0,0.4,0.8,-11.83
2024-12-06 12:36:01.32,19.12,478.0,0.48,0.83,0.01,0.95,-1.77,-12.5
2024-12-06 12:36:01.40,12.38,484.0,0.48,0.82,-0.02,1.38,-0.67,-13.72
2024-12-06 12:36:01.50,20.25,487.0,0.49,0.83,-0.01,1.26,1.1,-14.52
2024-12-06 12:36:01.57,23.4,478.0,0.49,0.83,-0.01,1.75,-0.79,-15.19
2024-12-06 12:36:01.64,25.2,494.0,0.49,0.83,-0.01,1.5,-1.46,-15.61
2024-12-06 12:36:01.97,24.52,488.0,0.49,0.83,-0.02,1.5,-1.46,-15.61
2024-12-06 12:36:01.101,24.52,495.0,0.49,0.86,-0.03,0.47,-2.92,-16.35
2024-12-06 12:36:01.106,28.35,468.0,0.49,0.86,-0.03,0.04,-3.23,-16.35
2024-12-06 12:36:01.113,31.27,486.0,0.48,0.85,-0.05,-0.57,-1.83,-15.98
2024-12-06 12:36:01.120,28.35,493.0,0.48,0.86,-0.03,-0.57,-1.83,-15.98
2024-12-06 12:36:01.129,36.22,482.0,0.48,0.87,-0.03,-1.06,-3.05,-15.68
2024-12-06 12:36:01.134,31.05,489.0,0.46,0.87,-0.04,-1.37,-0.73,-15.43
2024-12-06 12:36:01.142,34.65,503.0,0.47,0.87,-0.03,-1.37,0.19,-15.49
2024-12-06 12:36:01.154,32.62,487.0,0.47,0.88,-0.03,-1.43,1.71,-14.82
2024-12-06 12:36:01.161,38.47,552.0,0.47,0.88,-0.03,-0.88,1.65,-14.58
2024-12-06 12:36:01.167,40.95,487.0,0.48,0.87,-0.03,-0.88,1.65,-14.58
2024-12-06 12:36:01.175,37.58,514.0,0.47,0.87,-0.04,-0.76,2.81,-14.45
2024-12-06 12:36:01.183,40.95,484.0,0.47,0.86,-0.03,0.04,2.93,-15.07
2024-12-06 12:36:01.192,41.17,490.0,0.48,0.87,-0.03,0.22,3.54,-15.49
2024-12-06 12:36:01.199,44.55,489.0,0.51,0.88,-0.02,0.59,3.91,-15.25
2024-12-06 12:36:01.206,40.27,490.0,0.51,0.88,-0.02,0.89,2.93,-14.39
2024-12-06 12:36:01.220,46.12,495.0,0.5,0.89,-0.02,0.89,3.61,-14.15
2024-12-06 12:36:01.224,46.35,490.0,0.48,0.88,-0.02,1.38,3.61,-14.15
2024-12-06 12:36:01.232,45.67,503.0,0.47,0.87,-0.03,1.44,3.91,-14.39
2024-12-06 12:36:01.238,48.38,542.0,0.47,0.87,-0.03,1.87,4.77,-14.76
2024-12-06 12:36:01.246,50.4,486.0,0.49,0.88,-0.03,2.36,4.4,-14.64
2024-12-06 12:36:01.254,49.72,484.0,0.49,0.88,-0.03,2.78,4.89,-13.66
2024-12-06 12:36:01.306,52.65,491.0,0.49,0.88,-0.03,3.7,3.54,-13.3
2024-12-06 12:36:01.308,47.92,498.0,0.47,0.88,-0.03,3.7,4.95,-12.07
2024-12-06 12:36:01.315,55.57,498.0,0.48,0.9,-0.02,3.39,4.28,-10.98
2024-12-06 12:36:01.323,58.27,505.0,0.47,0.89,-0.03,3.09,3.61,-9.76
2024-12-06 12:36:01.332,58.27,494.0,0.44,0.88,-0.04,3.09,3.18,-9.51
2024-12-06 12:36:01.339,59.4,501.0,0.44,0.88,-0.04,2.11,4.09,-8.96
2024-12-06 12:36:01.347,61.65,500.0,0.45,0.89,-0.03,1.81,2.93,-8.29
2024-12-06 12:36:01.354,63.45,493.0,0.45,0.9,-0.03,1.81,2.93,-8.29
2024-12-06 12:36:01.364,64.8,501.0,0.45,0.9,-0.04,1.44,2.93,-7.25
2024-12-06 12:36:01.378,60.52,493.0,0.45,0.9,-0.02,0.77,2.45,-6.34
2024-12-06 12:36:01.380,64.12,505.0,0.46,0.91,-0.02,0.16,2.32,-5.54
2024-12-06 12:36:01.387,60.75,516.0,0.46,0.91,-0.02,-0.76,3.48,-4.08
2024-12-06 12:36:01.400,66.38,508.0,0.47,0.92,-0.02,-0.63,1.16,-3.04
2024-12-06 12:36:01.402,66.15,491.0,0.45,0.91,-0.01,-0.63,1.16,-3.04
2024-12-06 12:36:01.409,67.72,521.0,0.45,0.91,-0.03,-0.94,1.23,-2.68
2024-12-06 12:36:01.418,64.57,501.0,0.45,0.91,-0.02,-1.37,1.16,-2.06
2024-12-06 12:36:01.426,69.53,509.0,0.44,0.91,-0.02,-1.18,-0.18,-1.82
2024-12-06 12:36:01.434,69.53,519.0,0.44,0.91,-0.03,-1.24,0.19,-1.52
2024-12-06 12:36:01.444,66.6,516.0,0.45,0.92,-0.03,-1.37,0.43,-0.97
2024-12-06 12:36:01.449,70.65,514.0,0.45,0.92,-0.02,-1.37,0.43,-0.97
2024-12-06 12:36:01.459,71.78,508.0,0.43,0.91,-0.02,-1.24,0.07,-0.66
2024-12-06 12:36:01.465,69.07,531.0,0.45,0.92,-0.02,-1.24,1.29,-0.29
2024-12-06 12:36:01.477,71.55,528.0,0.45,0.92,-0.02,-1.24,1.35,0.93
2024-12-06 12:36:01.481,69.97,543.0,0.43,0.91,-0.03,-0.69,0.55,1.6
2024-12-06 12:36:01.625,83.25,522.0,0.45,0.87,-0.02,-1.85,-2.5,6.85
2024-12-06 12:36:01.639,78.3,523.0,0.45,0.88,-0.03,-2.28,-2.25,7.33
2024-12-06 12:36:01.646,84.38,518.0,0.45,0.88,-0.03,-2.16,-2.74,7.82
2024-12-06 12:36:01.651,81.9,516.0,0.45,0.88,-0.04,-1.85,-3.41,8.01
2024-12-06 12:36:01.660,87.07,534.0,0.45,0.87,-0.03,-1.85,-3.41,8.01
2024-12-06 12:36:01.665,86.85,513.0,0.47,0.87,-0.01,-2.16,-4.27,8.25
2024-12-06 12:36:01.677,86.4,512.0,0.48,0.88,-0.01,-2.77,-4.88,8.68
2024-12-06 12:36:01.682,87.52,544.0,0.47,0.89,-0.01,-3.01,-5.92,8.98
2024-12-06 12:36:01.693,89.55,522.0,0.47,0.88,-0.01,-3.14,-7.32,8.98
2024-12-06 12:36:01.698,88.42,521.0,0.47,0.88,-0.01,-3.75,-8.05,9.04
2024-12-06 12:36:01.708,87.97,521.0,0.47,0.89,-0.01,-3.75,-8.78,9.04
2024-12-06 12:36:01.713,85.5,512.0,0.47,0.89,-0.01,-4.23,-8.78,9.04
2024-12-06 12:36:01.722,85.28,525.0,0.46,0.88,-0.01,-4.48,-9.39,9.1
2024-12-06 12:36:01.730,90.45,533.0,0.47,0.87,-0.0,-4.6,-9.94,9.17
2024-12-06 12:36:01.742,85.72,542.0,0.47,0.86,-0.0,-4.91,-10.07,9.41
2024-12-06 12:36:01.749,89.77,526.0,0.47,0.86,-0.0,-5.39,-9.76,10.02
2024-12-06 12:36:01.754,91.12,530.0,0.48,0.87,-0.0,-5.58,-9.82,10.63
2024-12-06 12:36:01.760,93.38,537.0,0.47,0.88,-0.0,-5.58,-9.82,10.63
2024-12-06 12:36:01.768,89.77,527.0,0.47,0.88,0.0,-5.7,-10.49,11.12
2024-12-06 12:36:01.806,91.35,541.0,0.48,0.87,-0.01,-6.68,-10.8,11.61
2024-12-06 12:36:01.809,91.12,527.0,0.48,0.87,-0.01,-6.8,-11.59,11.61
2024-12-06 12:36:01.814,94.5,539.0,0.48,0.86,-0.01,-6.74,-12.81,11.61
2024-12-06 12:36:01.822,92.47,540.0,0.48,0.85,-0.0,-6.86,-13.18,11.3
2024-12-06 12:36:01.830,92.92,537.0,0.49,0.86,-0.0,-7.29,-12.81,11.18
2024-12-06 12:36:01.841,96.07,532.0,0.49,0.86,-0.0,-7.59,-12.26,11.42
2024-12-06 12:36:01.850,97.2,535.0,0.49,0.87,-0.01,-7.16,-12.39,11.79
2024-12-06 12:36:01.856,96.07,529.0,0.49,0.87,-0.01,-7.16,-12.39,11.79
2024-12-06 12:36:01.865,98.1,530.0,0.48,0.85,-0.01,-6.61,-12.32,11.73
2024-12-06 12:36:01.871,93.15,546.0,0.48,0.85,-0.0,-6.31,-12.2,11.3
2024-12-06 12:36:01.884,98.32,543.0,0.49,0.85,-0.0,-6.25,-11.35,10.94
2024-12-06 12:36:01.912,99.45,533.0,0.49,0.86,-0.0,-5.94,-11.1,10.26
2024-12-06 12:36:01.915,97.42,548.0,0.46,0.85,0.0,-5.7,-12.14,9.35
2024-12-06 12:36:01.926,98.1,562.0,0.46,0.84,-0.01,-5.46,-12.87,7.76
2024-12-06 12:36:01.928,101.25,540.0,0.49,0.85,-0.0,-5.88,-12.14,6.79
2024-12-06 12:36:01.934,100.12,556.0,0.49,0.85,-0.0,-5.88,-11.78,6.6
2024-12-06 12:36:01.942,99.22,546.0,0.51,0.85,-0.01,-5.33,-11.96,6.6
2024-12-06 12:36:01.950,97.42,548.0,0.51,0.86,-0.02,-5.33,-11.96,6.6
2024-12-06 12:36:01.980,100.35,531.0,0.5,0.84,-0.02,-3.81,-11.29,6.42
2024-12-06 12:36:01.985,103.05,556.0,0.5,0.84,-0.02,-3.69,-10.62,6.05
2024-12-06 12:36:01.988,98.1,573.0,0.5,0.85,-0.02,-3.69,-10.31,5.81
2024-12-06 12:36:01.997,101.25,550.0,0.5,0.86,-0.02,-3.56,-10.31,5.81
2024-12-06 12:36:02.6,98.32,547.0,0.51,0.87,-0.02,-3.56,-10.07,5.93
2024-12-06 12:36:02.13,100.35,540.0,0.51,0.88,-0.03,-3.2,-10.19,6.36
2024-12-06 12:36:02.23,102.15,560.0,0.51,0.87,-0.03,-2.95,-10.43,6.91
2024-12-06 12:36:02.31,103.05,549.0,0.51,0.87,-0.03,-2.83,-10.49,7.27
2024-12-06 12:36:02.41,98.55,547.0,0.51,0.86,-0.03,-2.83,-10.62,7.7
2024-12-06 12:36:02.51,105.52,548.0,0.51,0.85,-0.03,-2.83,-10.62,7.7
2024-12-06 12:36:02.56,99.22,570.0,0.5,0.85,-0.03,-2.83,-10.98,7.95
2024-12-06 12:36:02.66,100.57,549.0,0.47,0.87,-0.05,-2.83,-10.13,8.13
2024-12-06 12:36:02.68,101.47,565.0,0.44,0.9,-0.05,-3.07,-6.4,8.62
2024-12-06 12:36:02.74,106.2,562.0,0.44,0.9,-0.05,-3.01,-4.21,9.78
2024-12-06 12:36:02.87,101.47,565.0,0.44,0.89,-0.02,-3.01,-2.01,11.18
2024-12-06 12:36:02.92,104.62,569.0,0.46,0.86,-0.01,-2.89,-2.01,11.18
2024-12-06 12:36:02.99,105.07,562.0,0.49,0.85,-0.0,-2.53,-0.85,12.52
2024-12-06 12:36:02.108,102.38,563.0,0.5,0.84,-0.02,-2.59,0.0,13.32
2024-12-06 12:36:02.114,103.72,557.0,0.52,0.84,-0.02,-2.65,0.74,13.32
2024-12-06 12:36:02.122,105.52,546.0,0.52,0.84,-0.04,-2.77,0.0,13.19
2024-12-06 12:36:02.130,101.25,556.0,0.53,0.84,-0.04,-2.34,-0.06,12.64
2024-12-06 12:36:02.140,106.65,548.0,0.53,0.84,-0.06,-2.34,-0.06,12.64
2024-12-06 12:36:02.146,107.1,552.0,0.53,0.84,-0.05,-1.79,-1.03,11.91
2024-12-06 12:36:02.155,101.92,548.0,0.53,0.84,-0.04,-1.55,-3.11,11.24
2024-12-06 12:36:02.168,104.62,566.0,0.53,0.84,-0.03,-1.43,-3.47,10.39
2024-12-06 12:36:02.170,105.3,542.0,0.53,0.83,-0.02,-0.94,-3.41,9.47
2024-12-06 12:36:02.178,105.07,542.0,0.53,0.83,-0.02,-0.02,-3.05,8.37
2024-12-06 12:36:02.212,104.85,535.0,0.54,0.81,0.01,2.85,-0.18,4.77
2024-12-06 12:36:02.217,106.65,552.0,0.54,0.81,0.01,3.52,0.92,3.43
2024-12-06 12:36:02.225,108.22,550.0,0.55,0.81,0.02,4.01,1.77,2.15
2024-12-06 12:36:02.233,101.7,531.0,0.55,0.81,0.02,4.01,1.77,2.15
2024-12-06 12:36:02.240,107.1,552.0,0.55,0.8,0.01,4.43,2.14,0.86
2024-12-06 12:36:02.248,107.55,549.0,0.55,0.79,-0.0,4.49,2.26,-0.23
2024-12-06 12:36:02.256,97.88,549.0,0.56,0.78,-0.01,4.37,2.02,-1.09
2024-12-06 12:36:02.263,105.3,541.0,0.56,0.78,-0.01,4.13,1.23,-1.82
2024-12-06 12:36:02.273,106.65,553.0,0.56,0.78,-0.02,3.46,0.8,-2.31
2024-12-06 12:36:02.280,102.15,550.0,0.56,0.78,-0.02,3.46,0.8,-2.31
2024-12-06 12:36:02.291,105.97,539.0,0.55,0.79,-0.02,2.78,0.13,-2.61
2024-12-06 12:36:02.296,101.47,565.0,0.55,0.8,-0.01,2.11,-0.79,-2.68
2024-12-06 12:36:02.304,99.67,546.0,0.54,0.8,-0.01,1.38,-1.52,-2.68
2024-12-06 12:36:02.311,107.77,545.0,0.53,0.81,-0.0,0.65,-1.83,-2.8
2024-12-06 12:36:02.319,107.1,554.0,0.53,0.81,-0.0,-0.02,-1.64,-2.92
2024-12-06 12:36:02.330,106.42,584.0,0.52,0.81,0.0,-0.02,-1.64,-2.92
2024-12-06 12:36:02.336,99.22,546.0,0.52,0.82,0.0,-0.69,-1.34,-3.16
2024-12-06 12:36:02.349,105.3,542.0,0.52,0.82,-0.0,-1.24,-1.34,-3.53
2024-12-06 12:36:02.352,101.7,531.0,0.53,0.82,-0.01,-1.73,-1.22,-4.14
2024-12-06 12:36:02.358,104.62,545.0,0.53,0.82,-0.01,-2.16,-1.28,-4.75
2024-12-06 12:36:02.366,105.75,534.0,0.53,0.82,-0.01,-2.59,-1.34,-5.42
2024-12-06 12:36:02.382,103.72,550.0,0.53,0.82,-0.02,-2.59,-1.34,-5.42
2024-12-06 12:36:02.384,104.4,542.0,0.54,0.82,-0.03,-2.77,-1.34,-6.22
2024-12-06 12:36:02.390,100.57,533.0,0.54,0.83,-0.04,-2.77,-1.34,-6.7
2024-12-06 12:36:02.398,103.27,557.0,0.54,0.83,-0.04,-2.65,-1.7,-7.19
2024-12-06 12:36:02.430,103.05,564.0,0.53,0.85,-0.04,-2.16,-2.19,-7.68
2024-12-06 12:36:02.437,103.95,546.0,0.53,0.85,-0.04,-1.85,-2.01,-7.44
2024-12-06 12:36:02.446,102.15,555.0,0.53,0.84,-0.04,-1.55,-2.07,-7.01
2024-12-06 12:36:02.453,106.2,551.0,0.53,0.84,-0.03,-1.3,-2.01,-6.4
2024-12-06 12:36:02.461,107.77,559.0,0.53,0.84,-0.03,-1.24,-1.89,-5.73
2024-12-06 12:36:02.468,103.95,545.0,0.53,0.84,-0.03,-1.24,-1.89,-5.73
2024-12-06 12:36:02.481,108.9,547.0,0.53,0.85,-0.04,-1.18,-1.58,-5.06
2024-12-06 12:36:02.491,101.7,553.0,0.53,0.85,-0.04,-1.06,-1.15,-4.38
2024-12-06 12:36:02.500,106.65,557.0,0.53,0.85,-0.04,-0.94,-0.91,-3.71
2024-12-06 12:36:02.504,103.27,561.0,0.53,0.85,-0.04,-0.69,-0.73,-3.1
2024-12-06 12:36:02.515,102.82,561.0,0.53,0.85,-0.04,-0.51,-0.61,-2.55
2024-12-06 12:36:02.545,105.52,566.0,0.53,0.83,-0.03,0.28,-1.22,-1.64
2024-12-06 12:36:02.548,107.1,554.0,0.53,0.83,-0.03,0.59,-1.22,-1.58
2024-12-06 12:36:02.556,104.62,574.0,0.54,0.83,-0.03,0.59,-1.34,-1.45
2024-12-06 12:36:02.562,106.65,575.0,0.53,0.83,-0.02,0.83,-1.34,-1.45
2024-12-06 12:36:02.578,105.07,579.0,0.53,0.83,-0.01,0.95,-1.46,-1.52
2024-12-06 12:36:02.668,101.7,582.0,0.52,0.83,-0.01,1.01,1.96,-3.47
2024-12-06 12:36:02.678,101.02,587.0,0.52,0.84,-0.02,1.01,1.96,-3.47
2024-12-06 12:36:02.687,105.07,566.0,0.52,0.85,-0.02,0.89,1.9,-3.41
2024-12-06 12:36:02.692,102.38,560.0,0.52,0.85,-0.02,0.77,2.02,-3.16
2024-12-06 12:36:02.700,101.7,565.0,0.52,0.86,-0.02,0.71,1.9,-2.86
2024-12-06 12:36:02.708,103.5,570.0,0.52,0.86,-0.02,0.47,1.53,-2.43
2024-12-06 12:36:02.719,105.07,565.0,0.52,0.86,-0.02,0.1,1.23,-2.13
2024-12-06 12:36:02.724,105.07,563.0,0.51,0.86,-0.02,0.1,1.23,-2.13
2024-12-06 12:36:02.731,103.27,566.0,0.51,0.86,-0.03,-0.21,0.8,-1.82
2024-12-06 12:36:02.739,104.4,556.0,0.51,0.86,-0.03,-0.51,0.31,-1.58
2024-12-06 12:36:02.749,104.85,559.0,0.51,0.85,-0.03,-0.94,-0.12,-1.33
2024-12-06 12:36:02.762,104.62,578.0,0.52,0.84,-0.04,-1.18,-0.24,-1.21
2024-12-06 12:36:02.766,107.55,570.0,0.52,0.84,-0.04,-1.24,-0.3,-0.84
2024-12-06 12:36:02.772,105.75,574.0,0.52,0.84,-0.04,-1.24,-0.3,-0.84
2024-12-06 12:36:02.782,103.27,563.0,0.52,0.85,-0.04,-1.12,-0.3,-0.42
2024-12-06 12:36:02.787,102.82,574.0,0.52,0.85,-0.04,-0.69,-0.3,0.01
2024-12-06 12:36:02.795,105.75,579.0,0.52,0.85,-0.03,-0.21,-0.12,0.25
2024-12-06 12:36:02.831,105.52,559.0,0.51,0.85,-0.02,0.59,1.16,0.5
2024-12-06 12:36:02.834,107.1,546.0,0.51,0.85,-0.02,0.71,1.59,0.38
2024-12-06 12:36:02.841,107.77,551.0,0.51,0.84,-0.02,0.83,2.02,0.19
2024-12-06 12:36:02.849,108.0,554.0,0.51,0.84,-0.02,0.89,2.57,0.01
2024-12-06 12:36:02.907,107.1,549.0,0.52,0.85,-0.03,1.69,2.51,-0.05
2024-12-06 12:36:02.909,103.5,577.0,0.52,0.85,-0.03,1.69,2.2,-0.11
2024-12-06 12:36:02.918,100.57,550.0,0.52,0.85,-0.02,1.56,1.84,-0.23
2024-12-06 12:36:02.936,104.4,574.0,0.52,0.84,-0.02,1.01,1.23,-0.29
2024-12-06 12:36:02.940,102.15,548.0,0.52,0.84,-0.02,1.01,1.23,-0.29
2024-12-06 12:36:02.948,101.92,554.0,0.52,0.84,-0.01,0.65,1.35,-0.29
2024-12-06 12:36:02.956,104.4,552.0,0.52,0.84,-0.01,0.47,1.53,-0.36
2024-12-06 12:36:02.963,107.77,547.0,0.52,0.84,-0.01,0.47,1.65,-0.17
2024-12-06 12:36:03.5,101.47,553.0,0.52,0.83,-0.02,0.53,1.9,-0.42
2024-12-06 12:36:03.10,104.62,550.0,0.52,0.83,-0.02,0.53,1.71,-0.72
2024-12-06 12:36:03.17,104.4,549.0,0.53,0.83,-0.01,0.47,1.53,-1.09
2024-12-06 12:36:03.26,107.1,546.0,0.53,0.83,-0.01,0.47,1.53,-1.09
2024-12-06 12:36:03.34,106.42,540.0,0.52,0.83,-0.01,0.4,1.35,-1.45
2024-12-06 12:36:03.42,101.92,564.0,0.52,0.83,-0.01,0.34,1.41,-1.88
2024-12-06 12:36:03.48,108.0,543.0,0.52,0.83,-0.01,0.4,1.71,-2.25
2024-12-06 12:36:03.61,105.75,578.0,0.52,0.83,-0.01,0.47,2.2,-2.55
2024-12-06 12:36:03.65,106.2,570.0,0.53,0.83,-0.02,0.59,2.57,-2.61
2024-12-06 12:36:03.78,104.85,548.0,0.53,0.84,-0.02,0.59,2.57,-2.61
2024-12-06 12:36:03.85,102.6,582.0,0.53,0.84,-0.02,0.77,2.45,-2.68
2024-12-06 12:36:03.123,104.62,546.0,0.53,0.83,-0.03,0.65,1.77,-2.86
2024-12-06 12:36:03.128,104.62,559.0,0.53,0.84,-0.03,0.1,0.62,-2.92
2024-12-06 12:36:03.134,98.55,552.0,0.53,0.84,-0.03,-0.21,0.19,-2.86
2024-12-06 12:36:03.144,104.4,550.0,0.53,0.84,-0.03,-0.39,-0.12,-2.61
2024-12-06 12:36:03.151,101.92,553.0,0.52,0.84,-0.02,-0.57,-0.42,-2.37
2024-12-06 12:36:03.159,102.15,555.0,0.52,0.84,-0.02,-0.57,-0.42,-2.37
2024-12-06 12:36:03.165,106.42,559.0,0.52,0.84,-0.02,-0.69,-0.36,-2.13
2024-12-06 12:36:03.191,101.47,544.0,0.51,0.85,-0.02,-0.57,0.07,-1.64
2024-12-06 12:36:03.198,104.4,540.0,0.51,0.85,-0.02,-0.51,0.25,-1.58
2024-12-06 12:36:03.208,103.95,543.0,0.51,0.85,-0.02,-0.51,0.25,-1.58
2024-12-06 12:36:03.236,105.52,543.0,0.52,0.85,-0.02,-0.57,0.62,-1.88
2024-12-06 12:36:03.242,106.42,559.0,0.52,0.85,-0.02,-0.57,0.62,-1.88
2024-12-06 12:36:03.251,104.85,552.0,0.52,0.85,-0.02,-0.45,0.62,-1.82
2024-12-06 12:36:03.260,99.9,548.0,0.52,0.85,-0.02,-0.15,0.55,-1.82
2024-12-06 12:36:03.272,104.62,600.0,0.52,0.85,-0.02,0.04,0.37,-1.76
2024-12-06 12:36:03.274,104.85,541.0,0.52,0.85,-0.02,0.1,0.49,-1.88
2024-12-06 12:36:03.286,104.17,541.0,0.52,0.84,-0.02,0.1,0.49,-1.94
2024-12-06 12:36:03.290,104.17,548.0,0.52,0.84,-0.02,0.28,0.55,-1.94
2024-12-06 12:36:03.296,105.3,562.0,0.52,0.84,-0.02,0.4,0.55,-1.94
2024-12-06 12:36:03.304,104.85,542.0,0.52,0.84,-0.02,0.53,0.74,-1.88
2024-12-06 12:36:03.334,105.52,551.0,0.52,0.85,-0.02,0.77,0.92,-1.64
2024-12-06 12:36:03.337,102.82,532.0,0.52,0.85,-0.01,0.77,0.98,-1.64
2024-12-06 12:36:03.342,104.62,534.0,0.52,0.84,-0.01,0.59,1.1,-1.52
2024-12-06 12:36:03.350,100.35,537.0,0.52,0.84,-0.01,0.4,1.16,-1.45
2024-12-06 12:36:03.358,107.77,530.0,0.52,0.84,-0.01,0.28,1.1,-1.45
2024-12-06 12:36:03.369,108.67,534.0,0.52,0.84,-0.01,0.16,0.98,-1.45
2024-12-06 12:36:03.374,101.7,547.0,0.52,0.84,-0.01,0.16,0.98,-1.45
2024-12-06 12:36:03.382,103.5,533.0,0.51,0.85,-0.01,-0.02,0.74,-1.64
2024-12-06 12:36:03.390,105.3,549.0,0.51,0.85,-0.01,-0.15,0.49,-1.82
2024-12-06 12:36:03.398,105.07,548.0,0.51,0.85,-0.01,-0.15,0.37,-2.0
2024-12-06 12:36:03.407,105.07,541.0,0.51,0.85,-0.01,-0.08,0.25,-2.19
2024-12-06 12:36:03.414,101.7,538.0,0.51,0.85,-0.01,-0.15,0.19,-2.49
2024-12-06 12:36:03.430,103.5,538.0,0.5,0.85,-0.01,-0.15,0.19,-2.49
2024-12-06 12:36:03.434,102.6,548.0,0.5,0.85,-0.01,-0.27,0.37,-2.74
2024-12-06 12:36:03.439,101.47,541.0,0.5,0.84,-0.01,-0.45,0.43,-2.98
2024-12-06 12:36:03.456,100.8,539.0,0.5,0.84,-0.01,-0.63,0.37,-3.22
2024-12-06 12:36:03.461,105.07,588.0,0.5,0.84,-0.01,-0.82,0.49,-3.59
2024-12-06 12:36:03.463,104.62,540.0,0.5,0.84,-0.01,-0.88,0.74,-3.96
2024-12-06 12:36:03.471,104.62,547.0,0.5,0.84,-0.01,-0.88,0.74,-3.96
2024-12-06 12:36:03.478,101.02,544.0,0.5,0.84,-0.02,-0.76,0.98,-4.26
2024-12-06 12:36:03.484,106.2,547.0,0.5,0.84,-0.03,-0.45,1.1,-4.63
2024-12-06 12:36:03.496,106.65,529.0,0.5,0.84,-0.03,-0.21,1.04,-4.93
2024-12-06 12:36:03.512,102.6,533.0,0.5,0.84,-0.02,-0.08,0.98,-5.3
2024-12-06 12:36:03.514,106.65,548.0,0.5,0.84,-0.02,-0.02,1.16,-5.54
2024-12-06 12:36:03.523,107.32,536.0,0.5,0.84,-0.02,-0.02,1.16,-5.54
2024-12-06 12:36:03.563,103.27,563.0,0.5,0.84,-0.01,-0.21,1.84,-5.73
2024-12-06 12:36:03.565,105.3,553.0,0.5,0.85,-0.01,-0.08,2.93,-5.67
2024-12-06 12:36:03.569,106.88,535.0,0.5,0.85,-0.01,-0.08,3.24,-5.85
2024-12-06 12:36:03.589,104.85,532.0,0.5,0.85,-0.01,0.22,4.22,-5.91
2024-12-06 12:36:03.594,108.0,547.0,0.51,0.85,-0.01,0.53,4.46,-5.85
2024-12-06 12:36:03.601,104.62,532.0,0.51,0.84,-0.02,0.53,4.46,-5.85
2024-12-06 12:36:03.609,106.2,544.0,0.51,0.84,-0.02,0.89,4.64,-5.79
2024-12-06 12:36:03.712,104.85,532.0,0.51,0.85,-0.02,1.2,4.77,-5.79
2024-12-06 12:36:03.726,107.77,546.0,0.5,0.86,-0.01,5.59,9.22,-6.7
2024-12-06 12:36:03.732,102.15,564.0,0.5,0.86,-0.0,5.53,9.22,-7.01
2024-12-06 12:36:03.740,105.07,526.0,0.5,0.85,0.0,5.59,8.85,-7.31
2024-12-06 12:36:03.757,107.55,534.0,0.5,0.85,0.0,5.59,8.31,-7.62
2024-12-06 12:36:03.785,105.52,530.0,0.49,0.81,-0.0,6.87,9.77,-8.96
2024-12-06 12:36:03.792,106.2,524.0,0.49,0.81,-0.0,7.48,10.62,-10.79
2024-12-06 12:36:03.803,105.07,530.0,0.5,0.78,-0.01,7.48,10.62,-10.79
2024-12-06 12:36:03.808,104.85,511.0,0.52,0.79,-0.0,7.79,11.17,-12.81
2024-12-06 12:36:03.818,101.92,517.0,0.52,0.81,-0.0,8.03,11.24,-14.45
2024-12-06 12:36:03.824,102.82,515.0,0.51,0.83,-0.0,8.34,10.75,-16.16
2024-12-06 12:36:03.833,104.17,535.0,0.5,0.85,-0.0,8.46,10.44,-17.99
2024-12-06 12:36:03.841,104.62,533.0,0.5,0.85,-0.0,8.46,10.2,-19.7
2024-12-06 12:36:03.847,104.4,518.0,0.49,0.86,-0.01,8.46,10.2,-21.41
2024-12-06 12:36:03.859,102.82,509.0,0.49,0.86,-0.01,8.58,9.89,-21.41
2024-12-06 12:36:03.866,101.02,543.0,0.45,0.91,-0.01,8.77,9.16,-22.15
2024-12-06 12:36:03.870,103.5,526.0,0.39,0.91,0.01,10.47,6.78,-18.3
2024-12-06 12:36:03.879,101.92,514.0,0.42,0.84,-0.02,11.27,5.93,-17.38
2024-12-06 12:36:03.887,107.1,511.0,0.42,0.84,-0.02,9.74,8.61,-17.69
2024-12-06 12:36:03.895,105.52,514.0,0.46,0.84,-0.03,11.63,7.27,-16.84
2024-12-06 12:36:03.903,102.38,518.0,0.45,0.86,0.01,11.63,7.27,-16.84
2024-12-06 12:36:03.911,104.62,502.0,0.44,0.86,-0.0,12.55,9.1,-16.65
2024-12-06 12:36:03.919,104.85,525.0,0.44,0.87,0.0,12.92,11.42,-17.08
2024-12-06 12:36:03.927,105.07,506.0,0.44,0.89,-0.0,13.04,12.58,-17.38
2024-12-06 12:36:03.935,104.4,525.0,0.44,0.9,-0.01,13.16,12.33,-17.2
2024-12-06 12:36:03.943,102.15,501.0,0.44,0.9,-0.01,12.92,11.78,-17.14
2024-12-06 12:36:03.954,101.02,512.0,0.44,0.91,-0.03,12.61,10.87,-17.02
2024-12-06 12:36:03.965,103.72,520.0,0.45,0.91,-0.04,12.61,10.87,-17.02
2024-12-06 12:36:03.972,107.32,517.0,0.45,0.92,-0.06,12.24,9.16,-16.77
2024-12-06 12:36:03.981,104.62,518.0,0.45,0.93,-0.06,11.63,7.57,-15.61
2024-12-06 12:36:03.983,104.17,505.0,0.44,0.93,-0.07,10.9,5.99,-14.39
2024-12-06 12:36:04.11,103.95,511.0,0.44,0.91,-0.07,8.95,2.93,-13.05
2024-12-06 12:36:04.14,104.62,485.0,0.43,0.91,-0.07,7.97,1.77,-12.26
2024-12-06 12:36:04.22,107.32,501.0,0.43,0.91,-0.07,6.93,0.74,-11.59
2024-12-06 12:36:04.30,100.57,494.0,0.43,0.91,-0.06,5.78,0.07,-10.79
2024-12-06 12:36:04.39,104.17,498.0,0.41,0.95,-0.06,4.55,-0.91,-9.69
2024-12-06 12:36:04.56,103.05,507.0,0.41,0.95,-0.06,3.21,-0.12,-6.76
2024-12-06 12:36:04.59,103.05,502.0,0.39,0.99,-0.06,3.21,-0.12,-6.76
2024-12-06 12:36:04.61,99.67,490.0,0.37,0.97,-0.06,2.17,1.04,-4.2
2024-12-06 12:36:04.70,103.5,503.0,0.37,0.95,-0.06,1.14,2.51,-2.37
2024-12-06 12:36:04.77,102.6,494.0,0.37,0.96,-0.06,0.47,3.42,-0.72
2024-12-06 12:36:04.89,98.77,496.0,0.4,0.97,-0.06,0.04,4.58,0.93
2024-12-06 12:36:04.101,101.47,470.0,0.38,0.97,-0.06,-0.15,6.11,2.51
2024-12-06 12:36:04.108,97.88,488.0,0.38,0.95,-0.06,-0.15,6.11,2.51
2024-12-06 12:36:04.111,95.85,494.0,0.39,0.93,-0.05,-0.08,6.96,3.37
2024-12-06 12:36:04.119,99.0,496.0,0.41,0.93,-0.05,-0.02,7.39,3.86
2024-12-06 12:36:04.125,102.15,502.0,0.41,0.93,-0.05,0.1,7.57,4.53
2024-12-06 12:36:04.132,100.35,501.0,0.41,0.93,-0.05,0.47,7.7,4.71
2024-12-06 12:36:04.142,101.47,514.0,0.42,0.9,-0.03,0.77,8.12,4.53
2024-12-06 12:36:04.148,97.88,501.0,0.43,0.89,-0.03,0.77,8.12,4.53
2024-12-06 12:36:04.156,94.95,498.0,0.44,0.9,-0.03,1.14,7.82,4.95
2024-12-06 12:36:04.164,97.42,510.0,0.44,0.88,-0.02,1.87,7.08,5.2
2024-12-06 12:36:04.172,94.05,520.0,0.44,0.87,-0.02,2.6,7.39,5.14
2024-12-06 12:36:04.180,91.57,503.0,0.44,0.89,-0.03,3.52,7.33,5.08
2024-12-06 12:36:04.188,93.82,502.0,0.44,0.89,-0.03,4.43,6.6,4.89
2024-12-06 12:36:04.196,95.17,504.0,0.43,0.88,-0.02,4.43,6.6,3.98
2024-12-06 12:36:04.209,90.45,541.0,0.43,0.87,-0.01,5.23,6.47,3.98
2024-12-06 12:36:04.212,93.82,504.0,0.44,0.88,-0.02,5.65,6.6,3.43
2024-12-06 12:36:04.221,93.6,505.0,0.43,0.87,-0.01,6.2,6.47,3.0
2024-12-06 12:36:04.228,90.67,511.0,0.43,0.85,-0.0,6.57,6.23,2.02
2024-12-06 12:36:04.263,87.97,511.0,0.44,0.87,-0.03,7.24,5.5,1.54
2024-12-06 12:36:04.266,87.52,520.0,0.44,0.87,-0.03,7.36,4.77,1.48
2024-12-06 12:36:04.274,87.52,530.0,0.44,0.87,-0.03,6.93,3.42,1.6
2024-12-06 12:36:04.282,87.07,524.0,0.44,0.88,-0.03,6.2,3.12,1.29
2024-12-06 12:36:04.289,87.3,512.0,0.43,0.88,-0.03,6.2,3.12,1.29
2024-12-06 12:36:04.297,85.95,512.0,0.43,0.88,-0.02,4.98,2.57,0.74
2024-12-06 12:36:04.306,85.5,519.0,0.43,0.89,-0.02,3.82,1.35,0.19
2024-12-06 12:36:04.317,79.42,514.0,0.43,0.89,-0.03,2.78,1.1,-0.05
2024-12-06 12:36:04.321,84.6,522.0,0.43,0.89,-0.03,2.66,0.86,-0.48
2024-12-06 12:36:04.329,86.17,520.0,0.42,0.88,-0.04,2.66,0.13,-0.78
2024-12-06 12:36:04.336,82.57,515.0,0.43,0.88,-0.04,2.66,0.13,-0.78
2024-12-06 12:36:04.346,81.67,533.0,0.43,0.91,-0.05,2.6,-0.24,-0.36
2024-12-06 12:36:04.352,82.12,520.0,0.42,0.9,-0.05,2.97,0.07,0.01
2024-12-06 12:36:04.367,78.3,507.0,0.4,0.88,-0.05,3.21,0.62,-0.72
2024-12-06 12:36:04.369,80.32,500.0,0.4,0.88,-0.05,2.91,0.62,-1.52
2024-12-06 12:36:04.375,79.2,504.0,0.41,0.88,-0.04,2.91,0.62,-1.52
2024-12-06 12:36:04.383,78.97,506.0,0.41,0.89,-0.03,2.3,0.19,-2.0
2024-12-06 12:36:04.398,76.05,514.0,0.41,0.87,-0.02,1.14,0.86,-3.65
2024-12-06 12:36:04.411,81.22,510.0,0.43,0.9,-0.04,1.08,0.98,-3.96
2024-12-06 12:36:04.419,77.62,507.0,0.43,0.9,-0.04,1.44,1.04,-3.65
2024-12-06 12:36:04.422,77.17,530.0,0.43,0.9,-0.06,1.44,1.04,-3.65
2024-12-06 12:36:04.430,76.72,504.0,0.42,0.88,-0.05,1.99,0.43,-3.83
2024-12-06 12:36:04.469,77.85,501.0,0.41,0.87,-0.04,1.93,1.1,-6.76
2024-12-06 12:36:04.471,73.8,514.0,0.4,0.85,-0.04,1.62,1.1,-6.76
2024-12-06 12:36:04.476,74.92,499.0,0.42,0.87,-0.04,1.26,1.77,-7.44
2024-12-06 12:36:04.491,71.1,514.0,0.42,0.89,-0.06,1.75,1.96,-7.07
2024-12-06 12:36:04.493,70.42,490.0,0.42,0.89,-0.09,2.66,2.26,-6.7
2024-12-06 12:36:04.505,69.3,515.0,0.42,0.9,-0.07,3.33,1.71,-6.4
2024-12-06 12:36:04.507,69.75,512.0,0.42,0.91,-0.06,3.33,1.71,-6.4
2024-12-06 12:36:04.514,70.2,499.0,0.43,0.91,-0.06,3.39,1.29,-6.22
2024-12-06 12:36:04.526,67.05,500.0,0.43,0.9,-0.05,3.27,1.47,-6.22
2024-12-06 12:36:04.531,69.3,505.0,0.43,0.89,-0.04,2.66,0.68,-6.52
2024-12-06 12:36:04.538,70.2,516.0,0.43,0.89,-0.04,1.44,0.31,-6.09
2024-12-06 12:36:04.547,68.17,518.0,0.45,0.9,-0.04,0.71,-0.73,-5.36
2024-12-06 12:36:04.554,65.03,517.0,0.45,0.89,-0.05,0.71,-0.73,-5.36
2024-12-06 12:36:04.562,63.0,523.0,0.43,0.87,-0.06,0.28,-1.95,-5.48
2024-12-06 12:36:04.569,63.0,526.0,0.44,0.89,-0.06,-0.33,-2.62,-5.91
2024-12-06 12:36:04.580,64.12,504.0,0.45,0.89,-0.06,-0.33,-3.05,-5.54
2024-12-06 12:36:04.587,65.47,504.0,0.45,0.89,-0.07,0.4,-4.21,-5.06
2024-12-06 12:36:04.593,62.1,495.0,0.45,0.89,-0.07,0.47,-4.63,-4.08
2024-12-06 12:36:04.603,59.85,502.0,0.47,0.92,-0.06,0.47,-4.63,-4.08
2024-12-06 12:36:04.609,63.45,505.0,0.47,0.92,-0.05,0.47,-5.12,-2.43
2024-12-06 12:36:04.625,63.9,551.0,0.43,0.9,-0.05,0.53,-5.73,-2.13
2024-12-06 12:36:04.628,60.07,522.0,0.43,0.91,-0.05,-0.33,-4.33,-2.61
2024-12-06 12:36:04.632,58.72,494.0,0.43,0.91,-0.05,-0.94,-4.08,-1.94
2024-12-06 12:36:04.640,58.27,494.0,0.45,0.93,-0.04,-0.76,-5.0,-1.52
2024-12-06 12:36:04.651,59.17,501.0,0.42,0.91,-0.03,-0.76,-5.0,-1.52
2024-12-06 12:36:04.656,61.65,509.0,0.41,0.9,-0.03,-1.12,-4.39,-2.13
2024-12-06 12:36:04.770,48.15,476.0,0.41,0.89,-0.06,-0.76,0.86,1.05
2024-12-06 12:36:04.777,49.5,485.0,0.39,0.88,-0.06,-0.27,1.47,0.44
2024-12-06 12:36:04.788,51.07,496.0,0.41,0.89,-0.05,-0.15,2.51,0.01
2024-12-06 12:36:04.794,52.42,476.0,0.41,0.89,-0.05,0.16,2.51,0.74
2024-12-06 12:36:04.812,49.27,476.0,0.43,0.9,-0.04,0.53,2.14,1.6
2024-12-06 12:36:04.824,45.22,483.0,0.41,0.88,-0.04,0.59,1.77,1.17
2024-12-06 12:36:04.831,48.15,472.0,0.43,0.88,-0.03,0.22,1.9,0.38
2024-12-06 12:36:04.834,44.32,489.0,0.44,0.9,-0.03,-0.08,1.29,0.38
2024-12-06 12:36:04.839,48.15,483.0,0.44,0.9,-0.03,-0.27,0.8,0.25
2024-12-06 12:36:04.847,45.9,496.0,0.42,0.9,-0.03,-0.27,0.8,-15.37
2024-12-06 12:36:04.855,47.7,475.0,0.39,0.88,-0.04,0.1,0.8,-1.03
2024-12-06 12:36:04.863,44.77,491.0,0.41,0.89,-0.05,0.4,1.47,-2.0
2024-12-06 12:36:04.871,41.85,498.0,0.45,0.92,-0.05,0.89,1.59,-1.15
2024-12-06 12:36:04.879,44.77,490.0,0.43,0.91,-0.05,1.5,1.71,0.01
2024-12-06 12:36:04.915,44.77,491.0,0.43,0.91,-0.05,1.99,2.26,-0.11
2024-12-06 12:36:04.918,45.67,482.0,0.44,0.89,-0.04,0.77,0.43,0.74
2024-12-06 12:36:04.925,39.15,478.0,0.44,0.89,-0.04,-0.15,-0.06,0.13
2024-12-06 12:36:04.933,42.97,486.0,0.41,0.88,-0.03,-1.43,0.43,-0.91
2024-12-06 12:36:04.943,40.72,484.0,0.41,0.88,-0.03,-1.43,0.43,-0.91
2024-12-06 12:36:04.948,41.85,481.0,0.44,0.9,-0.04,-2.46,0.74,-0.23
2024-12-06 12:36:04.956,37.35,497.0,0.43,0.91,-0.04,-2.71,0.49,1.23
2024-12-06 12:36:04.964,28.35,482.0,0.4,0.89,-0.05,-2.59,0.74,1.48
2024-12-06 12:36:04.976,38.47,493.0,0.4,0.89,-0.05,-2.71,1.35,0.74
2024-12-06 12:36:04.981,41.17,487.0,0.39,0.88,-0.05,-3.07,1.59,0.86
2024-12-06 12:36:04.990,38.47,490.0,0.42,0.9,-0.04,-3.07,1.59,0.86
2024-12-06 12:36:04.998,35.1,483.0,0.43,0.92,-0.03,-3.56,1.71,1.6
2024-12-06 12:36:05.4,34.2,495.0,0.41,0.9,-0.05,-3.26,2.14,1.41
2024-12-06 12:36:05.17,31.5,481.0,0.41,0.89,-0.06,-2.95,2.63,0.38
2024-12-06 12:36:05.22,35.1,500.0,0.41,0.89,-0.04,-2.89,2.14,0.19
2024-12-06 12:36:05.27,35.1,498.0,0.44,0.89,-0.04,-2.46,1.04,0.44
2024-12-06 12:36:05.35,37.12,484.0,0.45,0.88,-0.03,-2.46,1.04,0.44
2024-12-06 12:36:05.43,36.45,476.0,0.42,0.86,-0.03,-2.16,0.8,-0.05
2024-12-06 12:36:05.51,31.72,496.0,0.4,0.86,-0.04,-1.92,0.37,-1.52
2024-12-06 12:36:05.63,36.22,492.0,0.41,0.88,-0.02,-2.28,-0.06,-2.37
2024-12-06 12:36:05.69,33.97,491.0,0.41,0.9,-0.02,-2.53,-0.06,-2.74
2024-12-06 12:36:05.78,34.88,481.0,0.41,0.9,-0.02,-2.46,1.23,-3.04
2024-12-06 12:36:05.84,30.6,475.0,0.4,0.9,-0.04,-2.46,1.23,-3.04
2024-12-06 12:36:05.90,24.52,490.0,0.39,0.9,-0.07,-1.3,1.9,-3.65
2024-12-06 12:36:05.98,32.4,475.0,0.4,0.89,-0.06,-0.76,1.84,-4.26
2024-12-06 12:36:05.106,31.27,500.0,0.42,0.89,-0.04,-0.69,1.71,-4.38
2024-12-06 12:36:05.137,30.15,478.0,0.42,0.89,-0.01,-1.18,2.26,-4.02
2024-12-06 12:36:05.139,30.38,476.0,0.38,0.89,-0.08,-0.82,2.87,-4.57
2024-12-06 12:36:05.145,30.6,496.0,0.38,0.89,-0.07,-0.69,2.45,-5.73
2024-12-06 12:36:05.152,26.77,476.0,0.41,0.89,-0.04,-1.12,1.84,-5.85
2024-12-06 12:36:05.163,26.55,500.0,0.41,0.89,-0.04,-1.24,2.08,-5.67
2024-12-06 12:36:05.168,23.17,481.0,0.41,0.88,-0.03,-1.24,2.08,-5.67
2024-12-06 12:36:05.176,27.45,493.0,0.4,0.87,-0.04,-1.73,2.57,-5.85
2024-12-06 12:36:05.185,29.47,479.0,0.39,0.87,-0.04,-2.04,2.63,-6.58
2024-12-06 12:36:05.194,27.22,477.0,0.38,0.88,-0.04,-1.79,2.32,-7.5
2024-12-06 12:36:05.199,27.45,476.0,0.38,0.89,-0.03,-1.98,1.35,-8.53
2024-12-06 12:36:05.208,26.1,490.0,0.38,0.89,-0.03,-2.4,1.53,-8.96
2024-12-06 12:36:05.215,24.97,467.0,0.41,0.92,-0.03,-2.46,2.87,-8.17
2024-12-06 12:36:05.225,28.12,476.0,0.45,0.94,-0.04,-2.46,2.87,-8.17
2024-12-06 12:36:05.234,24.07,480.0,0.47,0.95,-0.04,-1.79,3.12,-6.15
2024-12-06 12:36:05.244,22.05,472.0,0.44,0.93,-0.03,-1.37,2.51,-4.63
2024-12-06 12:36:05.249,24.52,462.0,0.4,0.88,-0.01,-1.12,1.84,-5.24
2024-12-06 12:36:05.264,22.95,474.0,0.4,0.86,-0.01,-0.88,1.1,-7.13
2024-12-06 12:36:05.266,20.48,477.0,0.4,0.86,-0.01,-0.76,0.25,-8.41
2024-12-06 12:36:05.273,25.2,476.0,0.41,0.88,-0.02,-0.76,0.25,-8.41
2024-12-06 12:36:05.288,24.07,500.0,0.39,0.91,-0.03,0.16,-0.36,-9.94
2024-12-06 12:36:05.294,24.52,473.0,0.39,0.92,-0.03,0.89,0.25,-10.91
2024-12-06 12:36:05.307,16.42,472.0,0.39,0.92,-0.03,1.44,1.35,-11.22
2024-12-06 12:36:05.310,25.88,483.0,0.39,0.92,-0.03,1.44,1.65,-10.98
2024-12-06 12:36:05.318,25.2,480.0,0.39,0.91,-0.02,2.05,1.65,-10.98
2024-12-06 12:36:05.331,24.97,475.0,0.4,0.91,-0.03,2.36,2.14,-10.67
2024-12-06 12:36:05.334,21.38,478.0,0.4,0.91,-0.03,2.24,2.45,-10.24
2024-12-06 12:36:05.368,18.9,495.0,0.39,0.91,-0.03,1.81,1.77,-9.94
2024-12-06 12:36:05.392,19.12,477.0,0.37,0.91,-0.06,0.1,0.37,-10.06
2024-12-06 12:36:05.396,20.48,504.0,0.37,0.9,-0.06,0.1,0.37,-10.06
2024-12-06 12:36:05.402,22.72,476.0,0.37,0.9,-0.07,0.16,0.62,-9.69
2024-12-06 12:36:05.416,20.02,474.0,0.36,0.9,-0.06,0.16,1.16,-9.27
2024-12-06 12:36:05.420,20.02,497.0,0.36,0.91,-0.06,0.22,1.53,-8.78
2024-12-06 12:36:05.428,21.15,532.0,0.36,0.91,-0.07,0.22,2.57,-8.17
2024-12-06 12:36:05.435,20.25,488.0,0.36,0.93,-0.07,0.4,3.36,-7.68
2024-12-06 12:36:05.444,24.3,463.0,0.35,0.93,-0.07,0.4,3.36,-7.68
2024-12-06 12:36:05.453,21.15,489.0,0.35,0.92,-0.06,0.53,4.34,-7.5
2024-12-06 12:36:05.456,24.3,474.0,0.36,0.92,-0.05,0.71,4.89,-7.19
2024-12-06 12:36:05.467,21.6,474.0,0.36,0.92,-0.05,0.71,5.13,-6.52
2024-12-06 12:36:05.471,23.4,493.0,0.36,0.92,-0.05,0.65,6.11,-6.03
2024-12-06 12:36:05.483,20.92,486.0,0.36,0.93,-0.05,1.01,6.84,-5.67
2024-12-06 12:36:05.488,20.25,521.0,0.37,0.94,-0.05,1.01,6.84,-5.67
2024-12-06 12:36:05.496,19.57,487.0,0.38,0.94,-0.05,1.5,7.45,-5.24
2024-12-06 12:36:05.504,20.92,467.0,0.38,0.93,-0.05,2.24,7.27,-5.06
2024-12-06 12:36:05.512,20.7,475.0,0.41,0.93,-0.04,2.66,7.39,-4.93
2024-12-06 12:36:05.520,15.52,477.0,0.41,0.93,-0.04,3.21,6.35,-3.9
2024-12-06 12:36:05.527,20.48,488.0,0.41,0.92,-0.02,3.82,2.75,-4.51
2024-12-06 12:36:05.535,20.92,476.0,0.37,0.89,-0.03,3.82,2.75,-4.51
2024-12-06 12:36:05.543,20.7,471.0,0.37,0.9,-0.04,3.64,3.12,-6.4
2024-12-06 12:36:05.553,21.38,467.0,0.42,0.93,-0.02,3.82,2.2,-6.28
2024-12-06 12:36:05.560,17.32,472.0,0.43,0.94,-0.03,4.19,0.37,-4.81
2024-12-06 12:36:05.589,20.92,472.0,0.43,0.94,-0.03,4.74,0.37,-4.08
2024-12-06 12:36:05.592,21.6,475.0,0.38,0.9,-0.04,5.84,-1.22,-4.08
2024-12-06 12:36:05.597,21.6,489.0,0.36,0.91,-0.03,5.71,-1.58,-3.96
2024-12-06 12:36:05.605,17.1,472.0,0.36,0.91,-0.03,5.35,-1.46,-3.77
2024-12-06 12:36:05.612,20.25,474.0,0.34,0.91,-0.03,4.74,0.43,-3.53
2024-12-06 12:36:05.623,20.48,475.0,0.34,0.93,-0.05,4.74,0.43,-3.53
2024-12-06 12:36:05.628,22.72,488.0,0.35,0.95,-0.05,3.88,2.93,-2.13
2024-12-06 12:36:05.637,21.82,490.0,0.35,0.95,-0.05,3.46,4.7,-0.29
2024-12-06 12:36:05.644,11.02,479.0,0.35,0.93,-0.06,3.15,6.47,0.93
2024-12-06 12:36:05.661,21.82,494.0,0.35,0.91,-0.05,2.97,6.66,1.84
2024-12-06 12:36:05.667,20.02,475.0,0.37,0.89,-0.04,2.97,6.66,1.84
2024-12-06 12:36:05.676,15.52,465.0,0.38,0.88,-0.04,2.85,4.89,1.9
2024-12-06 12:36:05.683,18.45,484.0,0.38,0.89,-0.04,2.72,3.24,1.23
2024-12-06 12:36:05.693,20.92,474.0,0.39,0.9,-0.03,2.54,1.59,0.56
2024-12-06 12:36:05.701,20.48,475.0,0.39,0.94,-0.03,2.3,0.0,0.5
2024-12-06 12:36:05.706,23.17,495.0,0.39,0.92,-0.03,2.24,-1.03,0.5
2024-12-06 12:36:05.715,22.5,477.0,0.39,0.93,-0.03,2.24,-1.03,0.5
2024-12-06 12:36:05.814,22.05,469.0,0.37,0.9,-0.04,1.87,0.98,0.13
2024-12-06 12:36:05.820,20.02,482.0,0.37,0.91,-0.04,1.38,1.1,0.13
2024-12-06 12:36:05.828,19.12,484.0,0.37,0.91,-0.04,1.38,1.1,0.13
2024-12-06 12:36:05.836,21.15,487.0,0.37,0.91,-0.03,0.83,0.98,0.13
2024-12-06 12:36:05.845,17.1,473.0,0.36,0.9,-0.03,0.47,0.86,-0.05
2024-12-06 12:36:05.853,17.55,478.0,0.36,0.9,-0.04,0.16,0.55,-0.36
2024-12-06 12:36:05.859,20.48,483.0,0.36,0.9,-0.04,-0.15,0.25,-0.48
2024-12-06 12:36:05.868,21.6,479.0,0.37,0.9,-0.04,-0.45,-0.06,-0.42
2024-12-06 12:36:05.888,20.92,484.0,0.38,0.9,-0.04,-0.76,-0.36,-0.29
2024-12-06 12:36:05.893,17.55,486.0,0.39,0.91,-0.04,-1.18,-0.12,0.01
2024-12-06 12:36:05.902,21.6,468.0,0.38,0.91,-0.03,-1.37,-0.61,0.25
2024-12-06 12:36:05.906,18.9,468.0,0.38,0.91,-0.03,-1.43,-0.91,0.07
2024-12-06 12:36:05.913,19.35,475.0,0.38,0.9,-0.03,-1.43,-0.91,-0.29
2024-12-06 12:36:05.923,17.32,474.0,0.38,0.9,-0.03,-1.43,-0.97,-0.29
2024-12-06 12:36:05.929,18.0,479.0,0.38,0.9,-0.03,-1.24,-1.64,-0.6
2024-12-06 12:36:05.937,20.25,523.0,0.37,0.91,-0.04,-1.0,-1.7,-1.03
2024-12-06 12:36:05.945,15.3,474.0,0.36,0.91,-0.05,-0.51,-1.64,-1.64
2024-12-06 12:36:05.953,18.45,485.0,0.36,0.91,-0.05,-0.21,-1.52,-2.31
2024-12-06 12:36:05.961,19.35,484.0,0.36,0.92,-0.05,-0.21,-1.28,-2.8
2024-12-06 12:36:05.969,19.12,468.0,0.36,0.92,-0.05,-0.02,-1.28,-2.8
2024-12-06 12:36:05.977,18.67,479.0,0.37,0.93,-0.05,-0.02,-0.97,-2.92
2024-12-06 12:36:05.985,17.77,471.0,0.37,0.93,-0.05,-0.15,-0.54,-2.8
2024-12-06 12:36:05.994,21.38,477.0,0.37,0.94,-0.05,-0.39,0.07,-2.55
2024-12-06 12:36:06.1,17.77,473.0,0.37,0.94,-0.05,-0.51,0.49,-2.25
2024-12-06 12:36:06.10,17.55,469.0,0.38,0.94,-0.05,-0.57,0.49,-2.19
2024-12-06 12:36:06.40,20.7,480.0,0.37,0.93,-0.05,-0.57,0.49,-2.19
2024-12-06 12:36:06.42,13.95,476.0,0.38,0.91,-0.05,0.1,-0.48,-2.8
2024-12-06 12:36:06.47,20.02,477.0,0.38,0.91,-0.05,0.34,-0.79,-2.8
2024-12-06 12:36:06.56,21.38,485.0,0.37,0.92,-0.05,0.34,-0.79,-2.8
2024-12-06 12:36:06.63,14.85,478.0,0.37,0.92,-0.05,0.47,-0.79,-2.74
2024-12-06 12:36:06.71,15.52,468.0,0.37,0.92,-0.05,0.65,-0.73,-2.49
2024-12-06 12:36:06.90,18.9,468.0,0.37,0.93,-0.05,0.65,-0.48,-2.25
2024-12-06 12:36:06.95,21.15,508.0,0.37,0.93,-0.05,0.47,0.07,-1.88
2024-12-06 12:36:06.99,20.92,477.0,0.37,0.93,-0.05,0.28,0.07,-1.21
2024-12-06 12:36:06.102,17.1,469.0,0.38,0.93,-0.04,0.28,0.07,-1.21
2024-12-06 12:36:06.110,20.02,472.0,0.37,0.93,-0.04,0.16,-0.24,-1.03
2024-12-06 12:36:06.118,16.42,479.0,0.37,0.92,-0.03,-0.02,-0.24,-1.03
2024-12-06 12:36:06.130,20.25,473.0,0.37,0.91,-0.02,0.04,-1.03,-1.09
2024-12-06 12:36:06.134,22.72,481.0,0.37,0.88,-0.03,0.1,-1.52,-1.09
2024-12-06 12:36:06.141,20.92,480.0,0.37,0.91,-0.03,0.22,-1.83,-1.21
2024-12-06 12:36:06.150,20.7,484.0,0.36,0.91,-0.03,0.22,-1.83,-1.21
2024-12-06 12:36:06.162,20.92,477.0,0.36,0.91,-0.04,0.28,-2.31,-1.39
2024-12-06 12:36:06.165,18.0,470.0,0.36,0.91,-0.04,0.22,-2.31,-1.33
2024-12-06 12:36:06.173,17.32,471.0,0.36,0.91,-0.04,0.16,-2.25,-1.15
2024-12-06 12:36:06.189,24.3,474.0,0.36,0.91,-0.04,-0.08,-2.19,-0.84
2024-12-06 12:36:06.194,17.77,495.0,0.36,0.91,-0.04,-0.51,-2.31,-0.54
2024-12-06 12:36:06.200,19.12,469.0,0.36,0.91,-0.04,-0.51,-2.31,-0.36
2024-12-06 12:36:06.206,22.72,471.0,0.36,0.91,-0.05,-0.94,-2.62,-0.36
2024-12-06 12:36:06.214,15.52,495.0,0.36,0.9,-0.05,-1.37,-2.92,-0.36
2024-12-06 12:36:06.221,21.6,482.0,0.36,0.9,-0.05,-1.73,-3.47,-0.48
2024-12-06 12:36:06.230,18.0,484.0,0.36,0.9,-0.06,-2.16,-3.6,-0.48
2024-12-06 12:36:06.237,21.15,491.0,0.36,0.9,-0.06,-2.65,-4.02,-0.17
2024-12-06 12:36:06.245,20.7,465.0,0.37,0.92,-0.06,-2.89,-4.94,0.25
2024-12-06 12:36:06.254,20.48,474.0,0.38,0.92,-0.06,-2.89,-4.94,0.25
2024-12-06 12:36:06.262,19.12,478.0,0.38,0.92,-0.05,-3.2,-5.55,0.44
2024-12-06 12:36:06.268,18.0,488.0,0.37,0.91,-0.05,-3.38,-6.4,0.44
2024-12-06 12:36:06.277,17.55,464.0,0.37,0.91,-0.04,-3.5,-7.56,0.25
2024-12-06 12:36:06.286,18.23,469.0,0.37,0.91,-0.05,-3.62,-8.54,-0.11
2024-12-06 12:36:06.292,22.95,480.0,0.36,0.9,-0.05,-3.62,-9.52,-0.66
2024-12-06 12:36:06.302,23.4,485.0,0.35,0.9,-0.05,-3.62,-9.52,-0.66
2024-12-06 12:36:06.309,20.7,472.0,0.34,0.9,-0.05,-3.44,-10.19,-1.45
2024-12-06 12:36:06.356,21.15,573.0,0.36,0.93,-0.04,-3.69,-9.15,-2.13
2024-12-06 12:36:06.362,17.1,479.0,0.35,0.92,-0.04,-3.75,-7.5,-1.7
2024-12-06 12:36:06.373,21.15,485.0,0.35,0.92,-0.04,-3.62,-7.01,-1.52
2024-12-06 12:36:06.378,19.57,468.0,0.35,0.92,-0.04,-3.69,-6.46,-1.39
2024-12-06 12:36:06.386,19.57,470.0,0.35,0.91,-0.03,-3.69,-5.98,-1.45
2024-12-06 12:36:06.394,20.92,473.0,0.34,0.91,-0.03,-3.87,-5.98,-1.45
2024-12-06 12:36:06.401,20.7,469.0,0.34,0.92,-0.03,-4.11,-5.18,-1.64
2024-12-06 12:36:06.409,21.82,473.0,0.35,0.92,-0.03,-4.23,-4.76,-1.7
2024-12-06 12:36:06.419,21.82,476.0,0.36,0.93,-0.03,-4.36,-4.63,-1.52
2024-12-06 12:36:06.426,17.77,472.0,0.36,0.93,-0.03,-4.36,-4.45,-0.91
2024-12-06 12:36:06.433,23.17,481.0,0.38,0.93,-0.03,-4.42,-4.57,-0.29
2024-12-06 12:36:06.444,21.15,468.0,0.39,0.92,-0.03,-4.42,-4.57,-0.29
2024-12-06 12:36:06.449,20.02,479.0,0.38,0.92,-0.03,-4.54,-4.57,0.13
2024-12-06 12:36:06.457,22.72,469.0,0.38,0.92,-0.03,-4.78,-4.76,0.38
2024-12-06 12:36:06.467,22.95,473.0,0.38,0.92,-0.03,-4.91,-5.12,0.32
2024-12-06 12:36:06.473,21.6,470.0,0.38,0.92,-0.03,-4.84,-5.79,0.13
2024-12-06 12:36:06.481,21.15,470.0,0.37,0.92,-0.03,-4.72,-6.4,-0.11
2024-12-06 12:36:06.515,21.15,484.0,0.36,0.92,-0.04,-3.99,-6.65,-0.97
2024-12-06 12:36:06.522,20.48,484.0,0.36,0.92,-0.04,-3.75,-6.1,-0.97
2024-12-06 12:36:06.527,18.23,476.0,0.36,0.93,-0.03,-3.75,-6.1,-0.97
2024-12-06 12:36:06.566,21.6,475.0,0.37,0.93,-0.04,-2.83,-3.35,0.68
2024-12-06 12:36:06.587,20.48,469.0,0.36,0.91,-0.05,-2.04,-3.11,0.56
2024-12-06 12:36:06.590,23.62,470.0,0.37,0.91,-0.05,-1.73,-3.23,0.32
2024-12-06 12:36:06.595,24.3,472.0,0.37,0.91,-0.05,-1.37,-3.6,0.19
2024-12-06 12:36:06.603,20.92,470.0,0.37,0.91,-0.04,-1.12,-4.15,0.19
2024-12-06 12:36:06.611,20.25,483.0,0.37,0.91,-0.04,-1.12,-4.15,0.19
2024-12-06 12:36:06.619,19.8,493.0,0.37,0.92,-0.04,-1.0,-4.57,0.25
2024-12-06 12:36:06.629,19.57,474.0,0.37,0.93,-0.04,-1.0,-4.94,0.32
2024-12-06 12:36:06.635,22.05,472.0,0.37,0.93,-0.04,-1.0,-5.37,0.25
2024-12-06 12:36:06.645,24.52,482.0,0.36,0.94,-0.04,-1.06,-5.37,0.07
2024-12-06 12:36:06.660,22.27,468.0,0.35,0.94,-0.04,-1.12,-5.18,-0.29
2024-12-06 12:36:06.670,18.45,470.0,0.34,0.94,-0.04,-1.12,-4.63,-0.66
2024-12-06 12:36:06.674,22.72,490.0,0.34,0.94,-0.04,-1.24,-3.78,-0.91
2024-12-06 12:36:06.685,20.92,486.0,0.34,0.94,-0.03,-1.3,-2.8,-0.91
2024-12-06 12:36:06.725,23.17,476.0,0.35,0.92,-0.03,-1.37,0.37,-1.15
2024-12-06 12:36:06.741,21.38,476.0,0.36,0.92,-0.03,-1.24,0.62,-1.21
2024-12-06 12:36:06.746,22.72,502.0,0.36,0.92,-0.03,-1.12,0.98,-1.15
2024-12-06 12:36:06.748,18.23,504.0,0.36,0.93,-0.03,-1.12,0.98,-1.15
2024-12-06 12:36:06.752,16.88,475.0,0.37,0.93,-0.04,-0.82,1.41,-1.03
2024-12-06 12:36:06.760,20.25,474.0,0.38,0.93,-0.04,-0.51,1.71,-0.72
2024-12-06 12:36:06.860,20.25,478.0,0.38,0.92,-0.04,-0.21,1.77,-0.29
2024-12-06 12:36:06.866,18.67,472.0,0.37,0.92,-0.03,0.47,-1.95,1.6
2024-12-06 12:36:06.873,17.1,498.0,0.36,0.91,-0.03,0.65,-1.95,1.29
2024-12-06 12:36:06.881,22.05,479.0,0.35,0.91,-0.03,0.77,-1.7,0.93
2024-12-06 12:36:06.894,23.85,490.0,0.35,0.91,-0.03,0.77,-1.28,0.5
2024-12-06 12:36:06.902,17.55,475.0,0.35,0.91,-0.03,0.77,-0.42,0.13
2024-12-06 12:36:06.905,16.42,470.0,0.35,0.92,-0.03,0.77,0.92,0.07
2024-12-06 12:36:06.914,23.62,480.0,0.36,0.93,-0.02,0.65,0.92,0.07
2024-12-06 12:36:06.920,19.57,472.0,0.37,0.94,-0.02,0.53,2.14,0.5
2024-12-06 12:36:06.955,20.25,471.0,0.37,0.94,-0.02,0.28,3.18,1.17
2024-12-06 12:36:06.957,20.25,479.0,0.36,0.92,-0.03,0.16,3.91,1.66
2024-12-06 12:36:06.959,18.67,469.0,0.37,0.91,-0.03,0.22,3.73,1.41
2024-12-06 12:36:06.967,19.12,468.0,0.38,0.9,-0.03,0.22,3.06,1.29
2024-12-06 12:36:06.974,21.6,467.0,0.39,0.91,-0.03,0.04,2.39,1.54
2024-12-06 12:36:06.982,23.62,480.0,0.39,0.91,-0.03,-0.21,1.77,2.02
2024-12-06 12:36:06.991,22.5,485.0,0.39,0.92,-0.02,-0.45,1.04,2.51
2024-12-06 12:36:07.3,18.67,474.0,0.39,0.92,-0.03,-0.45,1.04,2.51
2024-12-06 12:36:07.11,22.05,488.0,0.38,0.93,-0.03,-0.51,0.62,2.76
2024-12-06 12:36:07.14,20.02,483.0,0.38,0.93,-0.03,-0.57,0.62,2.88
2024-12-06 12:36:07.23,20.02,486.0,0.38,0.93,-0.03,-0.39,0.43,3.12
2024-12-06 12:36:07.30,20.48,482.0,0.38,0.92,-0.03,-0.15,0.55,3.49
2024-12-06 12:36:07.41,18.9,479.0,0.38,0.92,-0.03,0.22,1.04,3.86
2024-12-06 12:36:07.57,16.42,489.0,0.38,0.91,-0.03,0.65,1.47,4.04
2024-12-06 12:36:07.60,21.38,507.0,0.38,0.9,-0.03,0.65,1.47,4.04
2024-12-06 12:36:07.62,20.48,474.0,0.38,0.89,-0.04,1.2,2.08,4.34
2024-12-06 12:36:07.71,23.17,475.0,0.38,0.89,-0.04,1.75,2.51,4.59
2024-12-06 12:36:07.79,21.6,482.0,0.38,0.9,-0.04,2.11,2.81,4.77
2024-12-06 12:36:07.85,15.07,494.0,0.38,0.9,-0.04,2.3,2.93,4.95
2024-12-06 12:36:07.110,21.6,486.0,0.38,0.91,-0.04,2.3,2.87,4.83
2024-12-06 12:36:07.115,22.5,485.0,0.38,0.92,-0.05,2.48,2.51,4.59
2024-12-06 12:36:07.121,21.6,506.0,0.38,0.92,-0.05,2.48,1.77,4.28
2024-12-06 12:36:07.128,18.0,482.0,0.38,0.92,-0.05,2.3,1.16,4.28
2024-12-06 12:36:07.131,19.35,485.0,0.39,0.92,-0.05,2.24,0.68,4.59
2024-12-06 12:36:07.141,17.77,473.0,0.39,0.92,-0.05,2.24,0.68,4.59
2024-12-06 12:36:07.175,17.1,476.0,0.39,0.93,-0.04,1.44,0.74,6.18
2024-12-06 12:36:07.184,17.1,479.0,0.38,0.93,-0.04,1.44,0.74,6.18
2024-12-06 12:36:07.191,19.8,470.0,0.37,0.93,-0.04,1.38,0.55,6.18
2024-12-06 12:36:07.194,20.48,477.0,0.37,0.92,-0.04,1.5,0.74,6.05
2024-12-06 12:36:07.203,20.7,479.0,0.38,0.91,-0.04,1.56,1.53,6.18
2024-12-06 12:36:07.215,19.12,469.0,0.38,0.91,-0.04,1.75,2.02,6.97
2024-12-06 12:36:07.219,22.27,476.0,0.39,0.91,-0.04,1.75,2.02,6.97
2024-12-06 12:36:07.225,19.35,480.0,0.4,0.91,-0.04,1.87,2.57,8.01
2024-12-06 12:36:07.232,20.02,484.0,0.4,0.9,-0.05,2.05,3.48,8.92
2024-12-06 12:36:07.241,20.25,494.0,0.39,0.89,-0.05,2.17,4.4,9.59
2024-12-06 12:36:07.252,18.0,481.0,0.39,0.89,-0.05,2.42,4.83,9.84
2024-12-06 12:36:07.255,21.38,473.0,0.39,0.89,-0.06,2.42,5.62,9.72
2024-12-06 12:36:07.263,23.85,490.0,0.39,0.89,-0.05,2.42,5.62,9.72
2024-12-06 12:36:07.270,18.45,494.0,0.42,0.9,-0.05,2.05,6.72,9.78
2024-12-06 12:36:07.285,21.6,470.0,0.45,0.92,-0.01,0.77,7.15,11.36
2024-12-06 12:36:07.287,23.4,496.0,0.45,0.93,-0.0,0.28,5.38,13.44
2024-12-06 12:36:07.294,21.82,546.0,0.45,0.93,-0.0,-0.27,5.38,14.17
2024-12-06 12:36:07.305,19.12,473.0,0.43,0.92,-0.04,-0.69,5.86,13.8
2024-12-06 12:36:07.314,19.35,484.0,0.42,0.92,-0.04,-0.69,5.86,13.8
2024-12-06 12:36:07.317,20.02,468.0,0.43,0.91,-0.03,-0.76,4.03,13.5
2024-12-06 12:36:07.327,22.05,503.0,0.43,0.91,-0.03,-0.76,2.93,13.32
2024-12-06 12:36:07.334,22.72,472.0,0.43,0.9,-0.02,-0.82,2.32,13.01
2024-12-06 12:36:07.341,21.38,469.0,0.43,0.89,-0.02,-0.69,1.65,12.64
2024-12-06 12:36:07.349,23.85,449.0,0.43,0.89,-0.02,-0.57,1.59,12.28
2024-12-06 12:36:07.357,21.15,485.0,0.43,0.89,-0.02,-0.57,1.59,11.79
2024-12-06 12:36:07.368,20.92,534.0,0.43,0.88,-0.02,-0.39,1.65,11.79
2024-12-06 12:36:07.374,18.0,481.0,0.43,0.88,-0.02,-0.15,1.84,11.3
2024-12-06 12:36:07.407,21.15,480.0,0.43,0.89,-0.01,0.1,2.57,10.02
2024-12-06 12:36:07.417,17.77,471.0,0.44,0.89,-0.01,0.1,2.39,9.96
2024-12-06 12:36:07.420,21.82,479.0,0.44,0.89,-0.01,-0.08,2.51,9.96
2024-12-06 12:36:07.430,20.92,483.0,0.44,0.89,-0.01,-0.15,2.51,9.9
2024-12-06 12:36:07.440,19.35,495.0,0.44,0.89,-0.01,-0.21,2.02,9.96
2024-12-06 12:36:07.442,16.65,471.0,0.44,0.88,-0.01,-0.21,2.02,9.96
2024-12-06 12:36:07.450,19.12,473.0,0.44,0.88,-0.02,-0.39,1.65,9.9
2024-12-06 12:36:07.461,20.02,480.0,0.44,0.88,-0.02,-0.82,1.47,9.78
2024-12-06 12:36:07.471,20.92,475.0,0.44,0.89,-0.01,-1.24,0.68,9.78
2024-12-06 12:36:07.476,20.7,472.0,0.44,0.89,-0.02,-1.79,0.25,9.72
2024-12-06 12:36:07.481,21.15,478.0,0.44,0.89,-0.02,-2.34,0.68,9.84
2024-12-06 12:36:07.488,18.45,479.0,0.45,0.89,-0.03,-2.34,0.68,9.84
2024-12-06 12:36:07.500,22.5,482.0,0.45,0.9,-0.03,-2.59,0.13,10.2
2024-12-06 12:36:07.508,24.97,480.0,0.45,0.9,-0.03,-2.89,-0.12,10.81
2024-12-06 12:36:07.514,23.62,479.0,0.45,0.89,-0.03,-3.14,-0.3,10.94
2024-12-06 12:36:07.533,19.35,485.0,0.45,0.89,-0.03,-3.26,-0.91,10.81
2024-12-06 12:36:07.536,9.22,501.0,0.46,0.88,-0.02,-3.44,-1.52,10.81
2024-12-06 12:36:07.543,22.72,492.0,0.45,0.89,-0.02,-3.62,-2.13,11.18
2024-12-06 12:36:07.553,19.8,495.0,0.45,0.88,-0.02,-3.87,-3.41,11.55
2024-12-06 12:36:07.560,21.6,482.0,0.45,0.88,-0.02,-4.23,-4.08,12.16
2024-12-06 12:36:07.578,16.65,496.0,0.45,0.88,-0.02,-4.66,-6.34,13.5
2024-12-06 12:36:07.583,23.4,495.0,0.45,0.87,-0.02,-4.66,-6.34,13.5
2024-12-06 12:36:07.598,19.35,500.0,0.45,0.87,-0.02,-4.84,-6.77,13.87
2024-12-06 12:36:07.623,20.25,486.0,0.46,0.87,-0.02,-5.39,-7.93,15.57
2024-12-06 12:36:07.629,20.92,481.0,0.49,0.84,-0.03,-5.82,-6.34,14.9
2024-12-06 12:36:07.647,18.0,504.0,0.52,0.84,-0.03,-6.37,-3.96,13.01
2024-12-06 12:36:07.650,20.92,504.0,0.51,0.87,-0.02,-6.43,-2.99,12.34
2024-12-06 12:36:07.653,22.05,485.0,0.48,0.89,-0.0,-6.25,-4.15,12.71
2024-12-06 12:36:07.662,21.15,483.0,0.49,0.89,-0.0,-6.68,-5.06,12.89
2024-12-06 12:36:07.669,21.82,497.0,0.5,0.87,-0.02,-6.68,-5.06,12.83
2024-12-06 12:36:07.681,20.48,485.0,0.5,0.87,-0.03,-6.86,-6.22,12.83
2024-12-06 12:36:07.689,25.42,490.0,0.46,0.85,-0.02,-6.86,-9.27,11.97
2024-12-06 12:36:07.692,11.92,489.0,0.42,0.82,-0.03,-6.61,-11.53,8.98
2024-12-06 12:36:07.700,25.42,484.0,0.44,0.81,-0.03,-6.98,-10.19,5.99
2024-12-06 12:36:07.712,24.75,490.0,0.44,0.81,-0.03,-6.61,-12.14,3.98
2024-12-06 12:36:07.719,23.62,481.0,0.46,0.82,-0.01,-6.07,-12.51,2.15
2024-12-06 12:36:07.725,21.6,487.0,0.46,0.82,-0.01,-6.07,-12.51,2.15
2024-12-06 12:36:07.732,26.55,483.0,0.46,0.82,0.0,-5.46,-11.29,0.13
2024-12-06 12:36:07.742,24.3,506.0,0.45,0.81,0.01,-4.66,-10.86,-2.31
2024-12-06 12:36:07.753,22.27,498.0,0.46,0.81,0.01,-3.81,-8.85,-5.18
2024-12-06 12:36:07.758,27.67,472.0,0.46,0.81,0.01,-3.14,-6.22,-7.01
2024-12-06 12:36:07.766,29.92,480.0,0.5,0.83,0.02,-1.73,-7.26,-8.35
2024-12-06 12:36:07.773,25.42,489.0,0.48,0.83,0.02,-1.73,-7.26,-8.35
2024-12-06 12:36:07.780,28.8,498.0,0.48,0.82,0.01,-0.45,-5.55,-10.61
2024-12-06 12:36:07.788,29.25,530.0,0.49,0.83,0.02,0.04,-2.99,-11.95
2024-12-06 12:36:07.795,28.35,480.0,0.49,0.83,0.02,1.2,-4.88,-13.17
2024-12-06 12:36:07.804,33.08,481.0,0.49,0.83,0.01,1.32,-4.21,-13.84
2024-12-06 12:36:07.815,28.8,481.0,0.49,0.83,0.01,1.62,-5.61,-15.31
2024-12-06 12:36:07.909,42.75,472.0,0.47,0.85,-0.03,-0.88,-2.13,-13.6
2024-12-06 12:36:07.912,45.9,476.0,0.47,0.86,-0.02,-1.12,-1.4,-13.23
2024-12-06 12:36:07.919,49.05,459.0,0.46,0.86,-0.02,-1.43,-0.79,-12.93
2024-12-06 12:36:07.938,48.15,476.0,0.46,0.87,-0.01,-1.92,0.0,-12.5
2024-12-06 12:36:07.949,50.4,480.0,0.48,0.88,-0.03,-1.92,0.0,-12.5
2024-12-06 12:36:07.953,51.07,443.0,0.48,0.89,-0.03,-1.98,0.55,-11.95
2024-12-06 12:36:07.957,53.32,491.0,0.47,0.89,-0.03,-1.37,-0.85,-11.71
2024-12-06 12:36:07.968,50.62,475.0,0.47,0.89,-0.03,-1.3,-0.36,-11.83
2024-12-06 12:36:07.973,53.32,465.0,0.47,0.89,-0.02,-1.0,-0.97,-12.32
2024-12-06 12:36:07.984,55.35,470.0,0.47,0.88,-0.02,-0.88,-0.42,-12.75
2024-12-06 12:36:07.992,55.57,481.0,0.47,0.88,-0.03,-0.88,-0.42,-12.75
2024-12-06 12:36:07.997,55.12,473.0,0.48,0.89,-0.02,-0.39,-0.91,-12.93
2024-12-06 12:36:08.10,59.62,482.0,0.49,0.89,-0.02,-0.45,-1.03,-12.01
2024-12-06 12:36:08.13,54.22,480.0,0.48,0.89,-0.02,0.16,-2.56,-11.46
2024-12-06 12:36:08.22,60.75,479.0,0.47,0.88,-0.02,0.28,-1.77,-11.22
2024-12-06 12:36:08.29,60.3,500.0,0.47,0.88,-0.02,0.16,-2.13,-11.04
2024-12-06 12:36:08.43,58.27,480.0,0.47,0.89,-0.01,0.16,-1.4,-10.73
2024-12-06 12:36:08.46,58.5,487.0,0.46,0.89,-0.02,-0.02,-1.4,-10.73
2024-12-06 12:36:08.53,62.32,480.0,0.45,0.89,-0.01,0.1,-2.13,-10.43
2024-12-06 12:36:08.61,61.42,482.0,0.45,0.91,-0.02,-0.27,-2.13,-9.88
2024-12-06 12:36:08.69,62.77,481.0,0.46,0.91,-0.02,-0.57,-1.52,-8.72
2024-12-06 12:36:08.77,64.12,475.0,0.46,0.91,-0.02,-0.51,-1.28,-8.29
2024-12-06 12:36:08.89,69.07,488.0,0.44,0.9,-0.02,-0.88,-1.83,-7.44
2024-12-06 12:36:08.99,67.72,489.0,0.45,0.91,-0.02,-0.88,-1.83,-7.44
2024-12-06 12:36:08.102,69.3,461.0,0.44,0.9,-0.02,-1.43,-2.38,-6.76
2024-12-06 12:36:08.111,67.28,478.0,0.44,0.91,-0.03,-2.1,-1.83,-5.97
2024-12-06 12:36:08.120,67.72,487.0,0.44,0.9,-0.03,-2.53,-2.01,-5.18
2024-12-06 12:36:08.148,69.53,481.0,0.45,0.89,-0.03,-3.26,-3.05,-3.04
2024-12-06 12:36:08.154,72.9,490.0,0.44,0.89,-0.03,-3.01,-3.05,-2.61
2024-12-06 12:36:08.162,72.0,494.0,0.44,0.89,-0.03,-3.07,-3.41,-1.82
2024-12-06 12:36:08.170,76.28,482.0,0.45,0.9,-0.02,-2.77,-3.78,-1.15
2024-12-06 12:36:08.183,75.15,500.0,0.44,0.89,-0.03,-2.77,-3.78,-1.15
2024-12-06 12:36:08.188,74.25,476.0,0.45,0.9,-0.02,-2.53,-4.63,-0.6
2024-12-06 12:36:08.196,76.28,500.0,0.45,0.91,-0.02,-2.83,-6.1,0.38
2024-12-06 12:36:08.205,78.07,482.0,0.44,0.89,-0.02,-2.83,-6.53,0.68
2024-12-06 12:36:08.210,76.05,485.0,0.44,0.89,-0.02,-3.14,-5.73,0.56
2024-12-06 12:36:08.217,78.75,493.0,0.44,0.9,-0.02,-3.5,-5.12,0.93
2024-12-06 12:36:08.225,80.55,499.0,0.45,0.92,-0.03,-3.5,-5.12,0.93
2024-12-06 12:36:08.233,75.6,485.0,0.43,0.91,-0.03,-2.95,-5.85,1.48
2024-12-06 12:36:08.241,81.0,488.0,0.43,0.9,-0.02,-2.4,-6.71,1.84
2024-12-06 12:36:08.249,76.72,500.0,0.43,0.91,-0.02,-2.59,-6.83,2.09
2024-12-06 12:36:08.262,78.53,501.0,0.43,0.91,-0.02,-2.53,-5.92,2.09
2024-12-06 12:36:08.266,80.55,481.0,0.42,0.9,-0.02,-2.53,-5.85,2.09
2024-12-06 12:36:08.303,81.22,493.0,0.43,0.88,-0.01,-2.71,-7.14,2.82
2024-12-06 12:36:08.305,85.28,494.0,0.43,0.88,-0.01,-3.2,-7.44,2.76
2024-12-06 12:36:08.313,82.35,496.0,0.44,0.89,-0.01,-3.2,-7.44,2.76
2024-12-06 12:36:08.319,82.8,509.0,0.44,0.9,-0.02,-3.81,-7.56,2.94
2024-12-06 12:36:08.327,85.72,496.0,0.43,0.89,-0.02,-3.87,-7.5,2.94
2024-12-06 12:36:08.335,88.2,500.0,0.44,0.89,-0.01,-3.99,-7.5,2.94
2024-12-06 12:36:08.342,87.75,499.0,0.44,0.9,-0.02,-4.23,-7.26,3.25
2024-12-06 12:36:08.351,88.42,495.0,0.44,0.9,-0.02,-4.11,-6.83,3.49
2024-12-06 12:36:08.362,86.62,481.0,0.43,0.89,-0.02,-4.11,-7.32,3.37
2024-12-06 12:36:08.367,89.55,498.0,0.43,0.88,-0.01,-3.87,-7.32,3.37
2024-12-06 12:36:08.374,88.65,503.0,0.44,0.88,-0.0,-4.11,-8.24,3.37
2024-12-06 12:36:08.382,92.7,499.0,0.44,0.89,-0.01,-4.54,-8.66,3.49
2024-12-06 12:36:08.403,87.97,508.0,0.44,0.89,-0.02,-4.72,-8.91,3.67
2024-12-06 12:36:08.409,92.02,511.0,0.44,0.89,-0.01,-5.33,-10.8,3.79
2024-12-06 12:36:08.413,93.15,514.0,0.44,0.89,-0.01,-5.33,-10.8,3.79
2024-12-06 12:36:08.426,91.8,516.0,0.44,0.9,-0.01,-6.07,-11.78,4.1
2024-12-06 12:36:08.437,95.62,511.0,0.44,0.9,-0.02,-6.61,-12.08,4.4
2024-12-06 12:36:08.440,94.5,529.0,0.44,0.89,-0.01,-6.98,-12.32,4.47
2024-12-06 12:36:08.446,94.05,532.0,0.44,0.89,-0.01,-7.47,-13.12,4.65
2024-12-06 12:36:08.456,92.47,507.0,0.44,0.9,-0.02,-7.9,-13.24,5.2
2024-12-06 12:36:08.461,94.5,521.0,0.44,0.91,-0.03,-7.9,-13.24,5.2
2024-12-06 12:36:08.476,96.07,522.0,0.44,0.91,-0.03,-7.96,-13.48,5.81
2024-12-06 12:36:08.484,95.62,535.0,0.43,0.89,-0.02,-7.77,-13.48,6.24
2024-12-06 12:36:08.487,95.85,525.0,0.44,0.89,-0.01,-7.84,-14.16,6.42
2024-12-06 12:36:08.496,95.85,523.0,0.44,0.89,-0.01,-7.77,-13.48,6.91
2024-12-06 12:36:08.532,95.17,519.0,0.45,0.89,-0.02,-7.77,-13.48,6.91
2024-12-06 12:36:08.535,93.6,524.0,0.45,0.88,-0.01,-6.98,-13.0,8.8
2024-12-06 12:36:08.539,101.7,537.0,0.46,0.87,-0.0,-6.98,-12.26,8.92
2024-12-06 12:36:08.548,96.3,532.0,0.47,0.86,0.0,-6.98,-12.26,8.92
2024-12-06 12:36:08.559,101.7,528.0,0.48,0.86,-0.0,-6.8,-12.08,9.23
2024-12-06 12:36:08.561,100.8,552.0,0.48,0.87,-0.01,-6.49,-12.45,9.53
2024-12-06 12:36:08.570,99.9,554.0,0.48,0.88,-0.0,-6.19,-12.63,9.78
2024-12-06 12:36:08.578,99.9,534.0,0.48,0.88,-0.0,-5.82,-12.2,9.59
2024-12-06 12:36:08.587,96.52,541.0,0.48,0.88,-0.0,-5.58,-12.14,9.17
2024-12-06 12:36:08.594,100.57,558.0,0.48,0.87,-0.0,-5.58,-12.14,9.17
2024-12-06 12:36:08.602,98.32,555.0,0.49,0.88,-0.01,-5.27,-11.84,8.92
2024-12-06 12:36:08.612,101.25,544.0,0.48,0.89,-0.02,-4.72,-11.65,8.8
2024-12-06 12:36:08.618,101.7,560.0,0.48,0.9,-0.02,-4.11,-12.63,8.8
2024-12-06 12:36:08.634,104.62,538.0,0.47,0.9,-0.02,-3.75,-12.87,8.68
2024-12-06 12:36:08.637,99.45,551.0,0.47,0.9,-0.02,-3.62,-12.2,8.31
2024-12-06 12:36:08.641,102.15,578.0,0.46,0.89,-0.01,-3.62,-12.2,8.31
2024-12-06 12:36:08.649,105.3,546.0,0.46,0.88,-0.01,-3.44,-11.9,7.82
2024-12-06 12:36:08.665,104.4,548.0,0.46,0.88,-0.02,-3.2,-11.41,7.52
2024-12-06 12:36:08.668,104.17,572.0,0.46,0.88,-0.01,-3.01,-11.1,7.46
2024-12-06 12:36:08.676,105.52,558.0,0.46,0.88,-0.02,-2.77,-10.8,7.46
2024-12-06 12:36:08.690,102.6,570.0,0.46,0.88,-0.02,-2.53,-10.13,7.46
2024-12-06 12:36:08.697,98.77,561.0,0.45,0.88,-0.03,-2.22,-7.38,7.4
2024-12-06 12:36:08.702,105.97,547.0,0.45,0.89,-0.03,-2.22,-7.38,7.4
2024-12-06 12:36:08.705,106.42,562.0,0.45,0.89,-0.02,-1.92,-7.26,7.64
2024-12-06 12:36:08.721,104.62,550.0,0.44,0.87,-0.01,-1.73,-6.53,7.64
2024-12-06 12:36:08.727,98.32,603.0,0.45,0.86,-0.0,-1.79,-5.43,7.52
2024-12-06 12:36:08.761,102.38,599.0,0.45,0.86,-0.0,-1.98,-5.0,7.52
2024-12-06 12:36:08.764,108.67,561.0,0.48,0.84,-0.02,-1.98,-5.37,7.21
2024-12-06 12:36:08.767,107.1,581.0,0.48,0.84,-0.02,-1.92,-4.88,6.54
2024-12-06 12:36:08.773,108.0,559.0,0.49,0.83,-0.01,-1.92,-4.88,5.99
2024-12-06 12:36:08.783,102.38,566.0,0.49,0.84,-0.0,-2.16,-5.37,5.99
2024-12-06 12:36:08.789,101.02,573.0,0.49,0.85,-0.0,-2.59,-5.61,5.38
2024-12-06 12:36:08.797,103.05,570.0,0.49,0.85,-0.01,-2.71,-5.43,4.53
2024-12-06 12:36:08.816,103.05,565.0,0.5,0.84,-0.01,-2.53,-5.55,3.73
2024-12-06 12:36:08.821,103.95,587.0,0.5,0.84,-0.01,-2.22,-5.92,3.06
2024-12-06 12:36:08.832,105.52,590.0,0.51,0.85,-0.01,-2.1,-5.92,2.57
2024-12-06 12:36:08.835,101.47,596.0,0.51,0.85,-0.02,-2.04,-5.98,2.27
2024-12-06 12:36:08.845,104.17,574.0,0.5,0.86,-0.02,-1.79,-6.04,2.02
2024-12-06 12:36:08.857,99.22,572.0,0.5,0.86,-0.02,-1.55,-5.98,1.9
2024-12-06 12:36:08.872,104.17,573.0,0.5,0.86,-0.02,-1.3,-5.79,1.96
2024-12-06 12:36:08.983,103.95,599.0,0.49,0.83,-0.02,1.44,-2.25,4.4
2024-12-06 12:36:08.988,105.07,595.0,0.5,0.82,-0.01,1.69,-0.79,3.73
2024-12-06 12:36:08.996,107.77,588.0,0.5,0.81,-0.01,2.17,0.62,3.06
2024-12-06 12:36:09.4,105.3,575.0,0.51,0.81,-0.01,2.78,2.08,2.33
2024-12-06 12:36:09.11,103.27,586.0,0.51,0.81,-0.01,3.33,3.73,1.48
2024-12-06 12:36:09.20,103.95,577.0,0.52,0.8,-0.01,4.01,4.22,0.44
2024-12-06 12:36:09.28,103.27,585.0,0.52,0.8,-0.01,4.01,4.22,0.44
2024-12-06 12:36:09.34,106.88,578.0,0.52,0.8,-0.02,4.37,4.89,-0.6
2024-12-06 12:36:09.42,104.62,578.0,0.52,0.81,-0.02,4.55,5.13,-1.64
2024-12-06 12:36:09.51,105.07,565.0,0.51,0.81,-0.03,4.55,4.77,-2.61
2024-12-06 12:36:09.58,103.05,587.0,0.51,0.81,-0.03,4.49,5.19,-3.53
